choice, accuracy, solution,  reward, cumulative_reward, rt,  total_trial_time, iti, cp_with_slow_fast, high_val_cue
0.000000000000000000e+00,1.000000000000000000e+00,0.000000000000000000e+00,5.300000000000000000e+01,5.300000000000000000e+01,6.161661148071289062e-01,2.147742986679077148e+00,5.325208900044833271e-01,0.000000000000000000e+00,1.120000000000000000e+02
1.000000000000000000e+00,1.000000000000000000e+00,1.000000000000000000e+00,5.600000000000000000e+01,1.090000000000000000e+02,2.793440818786621094e-01,1.637913942337036133e+00,3.540529370325197767e-01,0.000000000000000000e+00,1.120000000000000000e+02
0.000000000000000000e+00,1.000000000000000000e+00,0.000000000000000000e+00,5.500000000000000000e+01,1.640000000000000000e+02,2.890710830688476562e-01,1.711686134338378906e+00,4.324018124003400354e-01,0.000000000000000000e+00,1.120000000000000000e+02
1.000000000000000000e+00,1.000000000000000000e+00,1.000000000000000000e+00,5.200000000000000000e+01,2.160000000000000000e+02,2.544620037078857422e-01,1.884444952011108398e+00,6.333878710349728491e-01,0.000000000000000000e+00,1.120000000000000000e+02
0.000000000000000000e+00,1.000000000000000000e+00,0.000000000000000000e+00,5.000000000000000000e+01,2.660000000000000000e+02,3.342220783233642578e-01,2.067698001861572266e+00,7.344016162732110997e-01,0.000000000000000000e+00,1.120000000000000000e+02
0.000000000000000000e+00,1.000000000000000000e+00,0.000000000000000000e+00,5.600000000000000000e+01,3.220000000000000000e+02,2.476558685302734375e-01,1.798243999481201172e+00,5.495548734455110163e-01,0.000000000000000000e+00,1.120000000000000000e+02
1.000000000000000000e+00,1.000000000000000000e+00,1.000000000000000000e+00,5.300000000000000000e+01,3.750000000000000000e+02,2.696599960327148438e-01,1.908227205276489258e+00,6.411298517593688739e-01,0.000000000000000000e+00,1.120000000000000000e+02
1.000000000000000000e+00,1.000000000000000000e+00,1.000000000000000000e+00,5.100000000000000000e+01,4.260000000000000000e+02,3.177039623260498047e-01,1.712100028991699219e+00,4.035284051367095115e-01,0.000000000000000000e+00,1.120000000000000000e+02
0.000000000000000000e+00,1.000000000000000000e+00,0.000000000000000000e+00,5.000000000000000000e+01,4.760000000000000000e+02,3.201642036437988281e-01,1.624583959579467773e+00,3.115797199843521881e-01,0.000000000000000000e+00,1.120000000000000000e+02
0.000000000000000000e+00,1.000000000000000000e+00,0.000000000000000000e+00,5.500000000000000000e+01,5.310000000000000000e+02,3.074419498443603516e-01,1.608103990554809570e+00,3.197846833736776584e-01,0.000000000000000000e+00,1.120000000000000000e+02
0.000000000000000000e+00,1.000000000000000000e+00,0.000000000000000000e+00,5.000000000000000000e+01,5.810000000000000000e+02,3.257389068603515625e-01,1.578495025634765625e+00,2.649445974576724594e-01,0.000000000000000000e+00,1.120000000000000000e+02
0.000000000000000000e+00,1.000000000000000000e+00,0.000000000000000000e+00,5.200000000000000000e+01,6.330000000000000000e+02,3.182060718536376953e-01,1.686398983001708984e+00,3.846471250196210612e-01,0.000000000000000000e+00,1.120000000000000000e+02
0.000000000000000000e+00,1.000000000000000000e+00,0.000000000000000000e+00,5.200000000000000000e+01,6.850000000000000000e+02,3.142409324645996094e-01,1.861566066741943359e+00,5.461401437077533227e-01,0.000000000000000000e+00,1.120000000000000000e+02
1.000000000000000000e+00,1.000000000000000000e+00,1.000000000000000000e+00,5.300000000000000000e+01,7.380000000000000000e+02,2.893228530883789062e-01,1.945337057113647461e+00,6.747278107396534885e-01,0.000000000000000000e+00,1.120000000000000000e+02
1.000000000000000000e+00,1.000000000000000000e+00,1.000000000000000000e+00,5.100000000000000000e+01,7.890000000000000000e+02,3.283710479736328125e-01,1.774978160858154297e+00,4.500597257432102372e-01,0.000000000000000000e+00,1.120000000000000000e+02
0.000000000000000000e+00,1.000000000000000000e+00,0.000000000000000000e+00,5.000000000000000000e+01,8.390000000000000000e+02,3.140630722045898438e-01,2.049021005630493164e+00,7.321506377608086868e-01,0.000000000000000000e+00,1.120000000000000000e+02
0.000000000000000000e+00,1.000000000000000000e+00,0.000000000000000000e+00,5.200000000000000000e+01,8.910000000000000000e+02,3.581628799438476562e-01,1.839515924453735352e+00,4.887213789672754660e-01,0.000000000000000000e+00,1.120000000000000000e+02
1.000000000000000000e+00,1.000000000000000000e+00,1.000000000000000000e+00,5.300000000000000000e+01,9.440000000000000000e+02,3.838930130004882812e-01,1.949275016784667969e+00,5.713282793522549419e-01,0.000000000000000000e+00,1.120000000000000000e+02
0.000000000000000000e+00,1.000000000000000000e+00,0.000000000000000000e+00,5.600000000000000000e+01,1.000000000000000000e+03,2.669420242309570312e-01,1.942390203475952148e+00,6.803601812039843377e-01,0.000000000000000000e+00,1.120000000000000000e+02
0.000000000000000000e+00,1.000000000000000000e+00,0.000000000000000000e+00,5.400000000000000000e+01,1.054000000000000000e+03,3.256850242614746094e-01,2.018389940261840820e+00,7.154735430715807309e-01,0.000000000000000000e+00,1.120000000000000000e+02
1.000000000000000000e+00,1.000000000000000000e+00,1.000000000000000000e+00,5.200000000000000000e+01,1.106000000000000000e+03,2.805268764495849609e-01,1.785633087158203125e+00,5.013693828884162595e-01,0.000000000000000000e+00,1.120000000000000000e+02
1.000000000000000000e+00,1.000000000000000000e+00,1.000000000000000000e+00,5.400000000000000000e+01,1.160000000000000000e+03,3.331990242004394531e-01,1.915394067764282227e+00,5.834344838228594510e-01,0.000000000000000000e+00,1.120000000000000000e+02
1.000000000000000000e+00,1.000000000000000000e+00,1.000000000000000000e+00,5.200000000000000000e+01,1.212000000000000000e+03,2.806158065795898438e-01,1.797657966613769531e+00,5.145708519478978671e-01,0.000000000000000000e+00,1.120000000000000000e+02
0.000000000000000000e+00,1.000000000000000000e+00,0.000000000000000000e+00,5.000000000000000000e+01,1.262000000000000000e+03,3.842241764068603516e-01,1.869117021560668945e+00,5.004429460823784925e-01,0.000000000000000000e+00,1.120000000000000000e+02
0.000000000000000000e+00,1.000000000000000000e+00,0.000000000000000000e+00,5.600000000000000000e+01,1.318000000000000000e+03,3.319609165191650391e-01,1.831671953201293945e+00,4.988507375848981740e-01,0.000000000000000000e+00,1.120000000000000000e+02
0.000000000000000000e+00,1.000000000000000000e+00,0.000000000000000000e+00,5.600000000000000000e+01,1.374000000000000000e+03,3.037509918212890625e-01,1.625316143035888672e+00,3.244670708829488492e-01,0.000000000000000000e+00,1.120000000000000000e+02
1.000000000000000000e+00,1.000000000000000000e+00,1.000000000000000000e+00,5.300000000000000000e+01,1.427000000000000000e+03,3.460829257965087891e-01,1.844140052795410156e+00,5.018053581340591318e-01,0.000000000000000000e+00,1.120000000000000000e+02
1.000000000000000000e+00,1.000000000000000000e+00,1.000000000000000000e+00,5.200000000000000000e+01,1.479000000000000000e+03,2.881729602813720703e-01,1.646677970886230469e+00,3.653777455882280534e-01,0.000000000000000000e+00,1.120000000000000000e+02
0.000000000000000000e+00,1.000000000000000000e+00,0.000000000000000000e+00,5.200000000000000000e+01,1.531000000000000000e+03,3.011698722839355469e-01,1.790739059448242188e+00,5.060480310298152151e-01,0.000000000000000000e+00,1.120000000000000000e+02
0.000000000000000000e+00,1.000000000000000000e+00,0.000000000000000000e+00,5.200000000000000000e+01,1.583000000000000000e+03,3.169109821319580078e-01,1.627113103866577148e+00,3.167735831448774686e-01,0.000000000000000000e+00,1.120000000000000000e+02
1.000000000000000000e+00,1.000000000000000000e+00,1.000000000000000000e+00,5.500000000000000000e+01,1.638000000000000000e+03,3.126368522644042969e-01,1.609584093093872070e+00,2.930916618061926715e-01,0.000000000000000000e+00,1.120000000000000000e+02
1.000000000000000000e+00,1.000000000000000000e+00,1.000000000000000000e+00,5.300000000000000000e+01,1.691000000000000000e+03,3.147370815277099609e-01,1.747560977935791016e+00,4.405808861319652769e-01,0.000000000000000000e+00,1.120000000000000000e+02
0.000000000000000000e+00,1.000000000000000000e+00,0.000000000000000000e+00,5.200000000000000000e+01,1.743000000000000000e+03,2.658140659332275391e-01,1.819998025894165039e+00,5.605898518993639446e-01,0.000000000000000000e+00,1.120000000000000000e+02
0.000000000000000000e+00,1.000000000000000000e+00,0.000000000000000000e+00,5.300000000000000000e+01,1.796000000000000000e+03,2.931330204010009766e-01,1.689960002899169922e+00,4.174250853421644369e-01,0.000000000000000000e+00,1.120000000000000000e+02
0.000000000000000000e+00,1.000000000000000000e+00,0.000000000000000000e+00,5.500000000000000000e+01,1.851000000000000000e+03,4.202120304107666016e-01,2.047652006149291992e+00,6.315936726648185839e-01,0.000000000000000000e+00,1.120000000000000000e+02
1.000000000000000000e+00,1.000000000000000000e+00,1.000000000000000000e+00,5.400000000000000000e+01,1.905000000000000000e+03,2.919220924377441406e-01,1.933610916137695312e+00,6.652586127304083163e-01,0.000000000000000000e+00,1.120000000000000000e+02
1.000000000000000000e+00,1.000000000000000000e+00,1.000000000000000000e+00,5.200000000000000000e+01,1.957000000000000000e+03,3.020341396331787109e-01,1.852995157241821289e+00,5.518074559136803003e-01,0.000000000000000000e+00,1.120000000000000000e+02
0.000000000000000000e+00,1.000000000000000000e+00,0.000000000000000000e+00,5.300000000000000000e+01,2.010000000000000000e+03,3.051948547363281250e-01,2.026929855346679688e+00,7.286098076664677681e-01,0.000000000000000000e+00,1.120000000000000000e+02
1.000000000000000000e+00,1.000000000000000000e+00,1.000000000000000000e+00,5.000000000000000000e+01,2.060000000000000000e+03,2.714331150054931641e-01,1.658766031265258789e+00,4.044499151500424161e-01,0.000000000000000000e+00,1.120000000000000000e+02
0.000000000000000000e+00,1.000000000000000000e+00,0.000000000000000000e+00,5.200000000000000000e+01,2.112000000000000000e+03,2.979590892791748047e-01,1.586488008499145508e+00,2.911402282057943269e-01,0.000000000000000000e+00,1.120000000000000000e+02
1.000000000000000000e+00,1.000000000000000000e+00,1.000000000000000000e+00,5.500000000000000000e+01,2.167000000000000000e+03,3.126130104064941406e-01,1.989001989364624023e+00,6.797958756575512851e-01,0.000000000000000000e+00,1.120000000000000000e+02
1.000000000000000000e+00,1.000000000000000000e+00,1.000000000000000000e+00,5.000000000000000000e+01,2.217000000000000000e+03,2.962930202484130859e-01,1.577351093292236328e+00,2.909941826321859049e-01,0.000000000000000000e+00,1.120000000000000000e+02
0.000000000000000000e+00,1.000000000000000000e+00,0.000000000000000000e+00,5.300000000000000000e+01,2.270000000000000000e+03,3.291518688201904297e-01,1.741730928421020508e+00,4.160130968004234764e-01,0.000000000000000000e+00,1.120000000000000000e+02
0.000000000000000000e+00,1.000000000000000000e+00,0.000000000000000000e+00,5.500000000000000000e+01,2.325000000000000000e+03,3.361129760742187500e-01,1.596315860748291016e+00,2.624883929461913068e-01,0.000000000000000000e+00,1.120000000000000000e+02
1.000000000000000000e+00,1.000000000000000000e+00,1.000000000000000000e+00,5.000000000000000000e+01,2.375000000000000000e+03,3.128800392150878906e-01,2.005185127258300781e+00,7.007023639063119091e-01,0.000000000000000000e+00,1.120000000000000000e+02
1.000000000000000000e+00,1.000000000000000000e+00,1.000000000000000000e+00,5.300000000000000000e+01,2.428000000000000000e+03,3.892838954925537109e-01,2.109205007553100586e+00,7.266339902293883490e-01,0.000000000000000000e+00,1.120000000000000000e+02
1.000000000000000000e+00,1.000000000000000000e+00,1.000000000000000000e+00,5.300000000000000000e+01,2.481000000000000000e+03,2.902579307556152344e-01,1.763261079788208008e+00,4.902246682978260717e-01,0.000000000000000000e+00,1.120000000000000000e+02
0.000000000000000000e+00,1.000000000000000000e+00,0.000000000000000000e+00,5.500000000000000000e+01,2.536000000000000000e+03,3.657419681549072266e-01,1.958381891250610352e+00,5.985787215064284350e-01,0.000000000000000000e+00,1.120000000000000000e+02
0.000000000000000000e+00,1.000000000000000000e+00,0.000000000000000000e+00,5.500000000000000000e+01,2.591000000000000000e+03,3.461468219757080078e-01,1.630709886550903320e+00,2.796855324201188431e-01,0.000000000000000000e+00,1.120000000000000000e+02
0.000000000000000000e+00,1.000000000000000000e+00,0.000000000000000000e+00,5.500000000000000000e+01,2.646000000000000000e+03,3.494801521301269531e-01,1.954200983047485352e+00,6.169688448978556394e-01,0.000000000000000000e+00,1.120000000000000000e+02
1.000000000000000000e+00,1.000000000000000000e+00,1.000000000000000000e+00,5.200000000000000000e+01,2.698000000000000000e+03,2.718908786773681641e-01,1.538466930389404297e+00,2.725210624407363169e-01,0.000000000000000000e+00,1.120000000000000000e+02
0.000000000000000000e+00,1.000000000000000000e+00,0.000000000000000000e+00,5.100000000000000000e+01,2.749000000000000000e+03,3.695299625396728516e-01,1.995958805084228516e+00,6.348325830724923513e-01,0.000000000000000000e+00,1.120000000000000000e+02
0.000000000000000000e+00,1.000000000000000000e+00,0.000000000000000000e+00,5.200000000000000000e+01,2.801000000000000000e+03,3.577029705047607422e-01,1.997461795806884766e+00,6.490277731101767866e-01,0.000000000000000000e+00,1.120000000000000000e+02
0.000000000000000000e+00,1.000000000000000000e+00,0.000000000000000000e+00,5.200000000000000000e+01,2.853000000000000000e+03,3.087661266326904297e-01,1.970679044723510742e+00,6.698049048962481100e-01,0.000000000000000000e+00,1.120000000000000000e+02
1.000000000000000000e+00,1.000000000000000000e+00,1.000000000000000000e+00,5.100000000000000000e+01,2.904000000000000000e+03,3.631410598754882812e-01,1.850397109985351562e+00,4.871271395164268325e-01,0.000000000000000000e+00,1.120000000000000000e+02
0.000000000000000000e+00,1.000000000000000000e+00,0.000000000000000000e+00,5.000000000000000000e+01,2.954000000000000000e+03,3.092520236968994141e-01,1.699793100357055664e+00,4.037170328739460579e-01,0.000000000000000000e+00,1.120000000000000000e+02
1.000000000000000000e+00,1.000000000000000000e+00,1.000000000000000000e+00,5.100000000000000000e+01,3.005000000000000000e+03,5.032951831817626953e-01,1.848346948623657227e+00,3.522477660947778144e-01,0.000000000000000000e+00,1.120000000000000000e+02
1.000000000000000000e+00,1.000000000000000000e+00,1.000000000000000000e+00,5.400000000000000000e+01,3.059000000000000000e+03,3.113090991973876953e-01,1.808352947235107422e+00,4.938670221506862301e-01,0.000000000000000000e+00,1.120000000000000000e+02
0.000000000000000000e+00,1.000000000000000000e+00,0.000000000000000000e+00,5.200000000000000000e+01,3.111000000000000000e+03,2.574381828308105469e-01,1.491674184799194336e+00,2.525244946754385267e-01,0.000000000000000000e+00,1.120000000000000000e+02
0.000000000000000000e+00,1.000000000000000000e+00,0.000000000000000000e+00,5.200000000000000000e+01,3.163000000000000000e+03,3.554480075836181641e-01,2.004601955413818359e+00,6.568065744202239431e-01,0.000000000000000000e+00,1.120000000000000000e+02
0.000000000000000000e+00,1.000000000000000000e+00,0.000000000000000000e+00,6.100000000000000000e+01,3.224000000000000000e+03,3.135390281677246094e-01,1.764213085174560547e+00,4.546279079523226629e-01,0.000000000000000000e+00,1.120000000000000000e+02
0.000000000000000000e+00,1.000000000000000000e+00,0.000000000000000000e+00,5.500000000000000000e+01,3.279000000000000000e+03,3.029448986053466797e-01,1.884212017059326172e+00,5.888346227196953331e-01,0.000000000000000000e+00,1.120000000000000000e+02
0.000000000000000000e+00,1.000000000000000000e+00,0.000000000000000000e+00,5.300000000000000000e+01,3.332000000000000000e+03,3.246779441833496094e-01,1.594434976577758789e+00,2.836169535088645666e-01,0.000000000000000000e+00,1.120000000000000000e+02
0.000000000000000000e+00,1.000000000000000000e+00,0.000000000000000000e+00,5.200000000000000000e+01,3.384000000000000000e+03,3.417539596557617188e-01,1.746113061904907227e+00,4.129853252131981955e-01,0.000000000000000000e+00,1.120000000000000000e+02
0.000000000000000000e+00,1.000000000000000000e+00,0.000000000000000000e+00,5.200000000000000000e+01,3.436000000000000000e+03,2.754721641540527344e-01,1.617455959320068359e+00,3.639167255050193006e-01,0.000000000000000000e+00,1.120000000000000000e+02
1.000000000000000000e+00,1.000000000000000000e+00,1.000000000000000000e+00,5.200000000000000000e+01,3.488000000000000000e+03,3.018679618835449219e-01,1.677289009094238281e+00,3.912391359543515579e-01,0.000000000000000000e+00,1.120000000000000000e+02
0.000000000000000000e+00,1.000000000000000000e+00,0.000000000000000000e+00,5.400000000000000000e+01,3.542000000000000000e+03,2.865610122680664062e-01,1.957792997360229492e+00,6.821623122741659051e-01,0.000000000000000000e+00,1.120000000000000000e+02
0.000000000000000000e+00,1.000000000000000000e+00,0.000000000000000000e+00,5.100000000000000000e+01,3.593000000000000000e+03,3.010151386260986328e-01,1.710453987121582031e+00,4.096510084201621105e-01,0.000000000000000000e+00,1.120000000000000000e+02
0.000000000000000000e+00,1.000000000000000000e+00,0.000000000000000000e+00,5.200000000000000000e+01,3.645000000000000000e+03,3.040661811828613281e-01,1.964173078536987305e+00,6.736085945779561879e-01,0.000000000000000000e+00,1.120000000000000000e+02
1.000000000000000000e+00,1.000000000000000000e+00,1.000000000000000000e+00,5.500000000000000000e+01,3.700000000000000000e+03,2.854390144348144531e-01,1.944371938705444336e+00,6.680776684801057463e-01,0.000000000000000000e+00,1.120000000000000000e+02
0.000000000000000000e+00,1.000000000000000000e+00,0.000000000000000000e+00,5.100000000000000000e+01,3.751000000000000000e+03,2.685499191284179688e-01,1.981441020965576172e+00,7.162330170725745848e-01,0.000000000000000000e+00,1.120000000000000000e+02
0.000000000000000000e+00,1.000000000000000000e+00,0.000000000000000000e+00,5.100000000000000000e+01,3.802000000000000000e+03,3.452329635620117188e-01,2.041991949081420898e+00,7.083088239134252007e-01,0.000000000000000000e+00,1.120000000000000000e+02
1.000000000000000000e+00,1.000000000000000000e+00,1.000000000000000000e+00,5.100000000000000000e+01,3.853000000000000000e+03,3.029940128326416016e-01,1.580327033996582031e+00,2.891544663966094664e-01,0.000000000000000000e+00,1.120000000000000000e+02
1.000000000000000000e+00,1.000000000000000000e+00,1.000000000000000000e+00,5.300000000000000000e+01,3.906000000000000000e+03,3.866860866546630859e-01,1.682888031005859375e+00,3.054395917492702117e-01,0.000000000000000000e+00,1.120000000000000000e+02
1.000000000000000000e+00,1.000000000000000000e+00,1.000000000000000000e+00,5.300000000000000000e+01,3.959000000000000000e+03,3.144390583038330078e-01,1.792793989181518555e+00,4.814603568594995608e-01,0.000000000000000000e+00,1.120000000000000000e+02
1.000000000000000000e+00,1.000000000000000000e+00,1.000000000000000000e+00,5.400000000000000000e+01,4.013000000000000000e+03,2.671530246734619141e-01,1.858380079269409180e+00,6.064622582310854604e-01,0.000000000000000000e+00,1.120000000000000000e+02
1.000000000000000000e+00,1.000000000000000000e+00,1.000000000000000000e+00,5.300000000000000000e+01,4.066000000000000000e+03,2.565319538116455078e-01,1.876597166061401367e+00,6.331185804186498789e-01,0.000000000000000000e+00,1.120000000000000000e+02
0.000000000000000000e+00,1.000000000000000000e+00,0.000000000000000000e+00,5.000000000000000000e+01,4.116000000000000000e+03,2.683389186859130859e-01,1.677685976028442383e+00,4.110936979371656586e-01,0.000000000000000000e+00,1.120000000000000000e+02
0.000000000000000000e+00,1.000000000000000000e+00,0.000000000000000000e+00,5.400000000000000000e+01,4.170000000000000000e+03,2.996659278869628906e-01,1.679986000061035156e+00,3.912168601184760064e-01,0.000000000000000000e+00,1.120000000000000000e+02
1.000000000000000000e+00,1.000000000000000000e+00,1.000000000000000000e+00,5.200000000000000000e+01,4.222000000000000000e+03,3.223819732666015625e-01,1.580765008926391602e+00,2.721499804603184081e-01,0.000000000000000000e+00,1.120000000000000000e+02
1.000000000000000000e+00,1.000000000000000000e+00,1.000000000000000000e+00,5.000000000000000000e+01,4.272000000000000000e+03,2.871499061584472656e-01,1.774666070938110352e+00,4.966602247199178866e-01,0.000000000000000000e+00,1.120000000000000000e+02
1.000000000000000000e+00,1.000000000000000000e+00,1.000000000000000000e+00,5.500000000000000000e+01,4.327000000000000000e+03,2.615349292755126953e-01,1.798264026641845703e+00,5.616064713197550518e-01,0.000000000000000000e+00,1.120000000000000000e+02
0.000000000000000000e+00,1.000000000000000000e+00,0.000000000000000000e+00,5.700000000000000000e+01,4.384000000000000000e+03,2.895610332489013672e-01,1.722094058990478516e+00,4.505473144718961653e-01,0.000000000000000000e+00,1.120000000000000000e+02
1.000000000000000000e+00,1.000000000000000000e+00,1.000000000000000000e+00,5.200000000000000000e+01,4.436000000000000000e+03,3.123290538787841797e-01,1.761830091476440430e+00,4.458140148542494297e-01,0.000000000000000000e+00,1.120000000000000000e+02
0.000000000000000000e+00,1.000000000000000000e+00,0.000000000000000000e+00,5.300000000000000000e+01,4.489000000000000000e+03,2.453789710998535156e-01,1.800709962844848633e+00,5.631538181528876752e-01,0.000000000000000000e+00,1.120000000000000000e+02
1.000000000000000000e+00,1.000000000000000000e+00,1.000000000000000000e+00,5.200000000000000000e+01,4.541000000000000000e+03,5.154330730438232422e-01,2.105857133865356445e+00,6.023777910277494652e-01,0.000000000000000000e+00,1.120000000000000000e+02
0.000000000000000000e+00,1.000000000000000000e+00,0.000000000000000000e+00,5.400000000000000000e+01,4.595000000000000000e+03,2.648348808288574219e-01,1.983625888824462891e+00,7.193157594286903045e-01,0.000000000000000000e+00,1.120000000000000000e+02
0.000000000000000000e+00,1.000000000000000000e+00,0.000000000000000000e+00,5.600000000000000000e+01,4.651000000000000000e+03,2.895610332489013672e-01,1.562847137451171875e+00,2.826788109563005413e-01,0.000000000000000000e+00,1.120000000000000000e+02
1.000000000000000000e+00,1.000000000000000000e+00,1.000000000000000000e+00,5.100000000000000000e+01,4.702000000000000000e+03,3.579761981964111328e-01,1.663288116455078125e+00,3.126809912769569211e-01,0.000000000000000000e+00,1.120000000000000000e+02
0.000000000000000000e+00,1.000000000000000000e+00,0.000000000000000000e+00,5.100000000000000000e+01,4.753000000000000000e+03,2.730119228363037109e-01,1.525753974914550781e+00,2.718825706057134695e-01,0.000000000000000000e+00,1.120000000000000000e+02
1.000000000000000000e+00,1.000000000000000000e+00,1.000000000000000000e+00,5.200000000000000000e+01,4.805000000000000000e+03,2.967720031738281250e-01,1.673126935958862305e+00,3.782992336985674942e-01,0.000000000000000000e+00,1.120000000000000000e+02
0.000000000000000000e+00,1.000000000000000000e+00,0.000000000000000000e+00,5.300000000000000000e+01,4.858000000000000000e+03,3.102278709411621094e-01,1.802486896514892578e+00,4.974151339544018446e-01,0.000000000000000000e+00,1.120000000000000000e+02
1.000000000000000000e+00,1.000000000000000000e+00,1.000000000000000000e+00,5.300000000000000000e+01,4.911000000000000000e+03,3.111770153045654297e-01,1.704009771347045898e+00,4.182541695044622587e-01,0.000000000000000000e+00,1.120000000000000000e+02
0.000000000000000000e+00,1.000000000000000000e+00,0.000000000000000000e+00,5.300000000000000000e+01,4.964000000000000000e+03,3.195569515228271484e-01,1.713109016418457031e+00,3.981184764260419229e-01,0.000000000000000000e+00,1.120000000000000000e+02
0.000000000000000000e+00,1.000000000000000000e+00,0.000000000000000000e+00,5.400000000000000000e+01,5.018000000000000000e+03,3.006289005279541016e-01,1.982090950012207031e+00,6.966538347459957370e-01,0.000000000000000000e+00,1.120000000000000000e+02
0.000000000000000000e+00,1.000000000000000000e+00,0.000000000000000000e+00,5.000000000000000000e+01,5.068000000000000000e+03,2.813668251037597656e-01,1.700425148010253906e+00,4.307618262440771617e-01,0.000000000000000000e+00,1.120000000000000000e+02
1.000000000000000000e+00,1.000000000000000000e+00,1.000000000000000000e+00,5.200000000000000000e+01,5.120000000000000000e+03,3.184249401092529297e-01,1.634003877639770508e+00,3.316125240244737760e-01,0.000000000000000000e+00,1.120000000000000000e+02
1.000000000000000000e+00,1.000000000000000000e+00,1.000000000000000000e+00,5.100000000000000000e+01,5.171000000000000000e+03,3.011488914489746094e-01,1.627964019775390625e+00,3.429686448902419804e-01,0.000000000000000000e+00,1.120000000000000000e+02
1.000000000000000000e+00,1.000000000000000000e+00,1.000000000000000000e+00,5.200000000000000000e+01,5.223000000000000000e+03,3.118839263916015625e-01,1.722090005874633789e+00,4.150754978474764378e-01,0.000000000000000000e+00,1.120000000000000000e+02
0.000000000000000000e+00,1.000000000000000000e+00,0.000000000000000000e+00,5.400000000000000000e+01,5.277000000000000000e+03,3.332319259643554688e-01,2.043770074844360352e+00,7.252664389549716706e-01,0.000000000000000000e+00,1.120000000000000000e+02
0.000000000000000000e+00,0.000000000000000000e+00,1.000000000000000000e+00,3.600000000000000000e+01,5.313000000000000000e+03,2.264029979705810547e-01,1.822706937789916992e+00,6.148753137055887885e-01,1.000000000000000000e+00,1.110000000000000000e+02
0.000000000000000000e+00,1.000000000000000000e+00,0.000000000000000000e+00,6.200000000000000000e+01,5.375000000000000000e+03,2.797629833221435547e-01,1.659114122390747070e+00,3.909025702843424988e-01,0.000000000000000000e+00,1.110000000000000000e+02
1.000000000000000000e+00,1.000000000000000000e+00,1.000000000000000000e+00,6.200000000000000000e+01,5.437000000000000000e+03,3.201320171356201172e-01,1.574214935302734375e+00,2.653554909351972246e-01,0.000000000000000000e+00,1.110000000000000000e+02
0.000000000000000000e+00,1.000000000000000000e+00,0.000000000000000000e+00,6.100000000000000000e+01,5.498000000000000000e+03,3.214278221130371094e-01,1.760036945343017578e+00,4.586119802056676797e-01,0.000000000000000000e+00,1.110000000000000000e+02
0.000000000000000000e+00,0.000000000000000000e+00,1.000000000000000000e+00,4.400000000000000000e+01,5.542000000000000000e+03,2.438440322875976562e-01,1.630056858062744141e+00,4.054303272665172320e-01,0.000000000000000000e+00,1.110000000000000000e+02
1.000000000000000000e+00,1.000000000000000000e+00,1.000000000000000000e+00,6.000000000000000000e+01,5.602000000000000000e+03,3.185460567474365234e-01,1.626843214035034180e+00,3.157870683539644729e-01,0.000000000000000000e+00,1.110000000000000000e+02
1.000000000000000000e+00,1.000000000000000000e+00,1.000000000000000000e+00,6.800000000000000000e+01,5.670000000000000000e+03,2.803330421447753906e-01,1.605473041534423828e+00,3.213287850386947753e-01,0.000000000000000000e+00,1.110000000000000000e+02
0.000000000000000000e+00,1.000000000000000000e+00,0.000000000000000000e+00,6.200000000000000000e+01,5.732000000000000000e+03,2.694029808044433594e-01,1.703969955444335938e+00,4.418774654759252685e-01,0.000000000000000000e+00,1.110000000000000000e+02
1.000000000000000000e+00,1.000000000000000000e+00,1.000000000000000000e+00,6.200000000000000000e+01,5.794000000000000000e+03,2.596099376678466797e-01,1.506376028060913086e+00,2.651878836449854115e-01,0.000000000000000000e+00,1.110000000000000000e+02
1.000000000000000000e+00,1.000000000000000000e+00,1.000000000000000000e+00,6.600000000000000000e+01,5.860000000000000000e+03,2.974400520324707031e-01,1.785477876663208008e+00,5.005210095140044668e-01,0.000000000000000000e+00,1.110000000000000000e+02
1.000000000000000000e+00,1.000000000000000000e+00,1.000000000000000000e+00,5.300000000000000000e+01,5.913000000000000000e+03,3.306128978729248047e-01,1.908221960067749023e+00,5.754047271963196319e-01,0.000000000000000000e+00,1.110000000000000000e+02
1.000000000000000000e+00,1.000000000000000000e+00,1.000000000000000000e+00,6.200000000000000000e+01,5.975000000000000000e+03,2.895789146423339844e-01,1.976999998092651367e+00,7.023697535513276913e-01,0.000000000000000000e+00,1.110000000000000000e+02
1.000000000000000000e+00,1.000000000000000000e+00,1.000000000000000000e+00,6.500000000000000000e+01,6.040000000000000000e+03,2.173500061035156250e-01,1.825515985488891602e+00,6.113996912842163400e-01,0.000000000000000000e+00,1.110000000000000000e+02
0.000000000000000000e+00,1.000000000000000000e+00,0.000000000000000000e+00,6.300000000000000000e+01,6.103000000000000000e+03,3.137509822845458984e-01,1.754117012023925781e+00,4.490811481220575163e-01,0.000000000000000000e+00,1.110000000000000000e+02
1.000000000000000000e+00,1.000000000000000000e+00,1.000000000000000000e+00,5.700000000000000000e+01,6.160000000000000000e+03,3.391869068145751953e-01,2.077275037765502930e+00,7.428027154422438549e-01,0.000000000000000000e+00,1.110000000000000000e+02
0.000000000000000000e+00,1.000000000000000000e+00,0.000000000000000000e+00,6.500000000000000000e+01,6.225000000000000000e+03,3.005399703979492188e-01,1.711109876632690430e+00,4.210041462375508359e-01,0.000000000000000000e+00,1.110000000000000000e+02
1.000000000000000000e+00,1.000000000000000000e+00,1.000000000000000000e+00,6.000000000000000000e+01,6.285000000000000000e+03,3.139560222625732422e-01,1.608536958694458008e+00,2.964166380920050803e-01,0.000000000000000000e+00,1.110000000000000000e+02
0.000000000000000000e+00,1.000000000000000000e+00,0.000000000000000000e+00,5.400000000000000000e+01,6.339000000000000000e+03,3.420078754425048828e-01,1.687472105026245117e+00,3.672092001832669705e-01,0.000000000000000000e+00,1.110000000000000000e+02
1.000000000000000000e+00,1.000000000000000000e+00,1.000000000000000000e+00,6.200000000000000000e+01,6.401000000000000000e+03,2.879970073699951172e-01,1.621587038040161133e+00,3.388906473629334504e-01,0.000000000000000000e+00,1.110000000000000000e+02
1.000000000000000000e+00,1.000000000000000000e+00,1.000000000000000000e+00,5.900000000000000000e+01,6.460000000000000000e+03,3.044490814208984375e-01,1.955233097076416016e+00,6.605161211567502910e-01,0.000000000000000000e+00,1.110000000000000000e+02
1.000000000000000000e+00,1.000000000000000000e+00,1.000000000000000000e+00,5.600000000000000000e+01,6.516000000000000000e+03,2.424759864807128906e-01,1.918936967849731445e+00,6.962019181490093356e-01,0.000000000000000000e+00,1.110000000000000000e+02
0.000000000000000000e+00,1.000000000000000000e+00,0.000000000000000000e+00,6.000000000000000000e+01,6.576000000000000000e+03,2.489960193634033203e-01,1.980541944503784180e+00,7.434788266883289864e-01,0.000000000000000000e+00,1.110000000000000000e+02
1.000000000000000000e+00,1.000000000000000000e+00,1.000000000000000000e+00,5.400000000000000000e+01,6.630000000000000000e+03,3.366570472717285156e-01,1.994810104370117188e+00,6.717954777608536876e-01,0.000000000000000000e+00,1.110000000000000000e+02
0.000000000000000000e+00,1.000000000000000000e+00,0.000000000000000000e+00,6.000000000000000000e+01,6.690000000000000000e+03,3.067040443420410156e-01,1.596352100372314453e+00,3.019143671207237811e-01,0.000000000000000000e+00,1.110000000000000000e+02
0.000000000000000000e+00,1.000000000000000000e+00,0.000000000000000000e+00,5.600000000000000000e+01,6.746000000000000000e+03,3.527231216430664062e-01,1.951008081436157227e+00,6.026435344198017852e-01,0.000000000000000000e+00,1.110000000000000000e+02
0.000000000000000000e+00,1.000000000000000000e+00,0.000000000000000000e+00,5.600000000000000000e+01,6.802000000000000000e+03,3.587689399719238281e-01,1.870779037475585938e+00,5.236512423949639672e-01,0.000000000000000000e+00,1.110000000000000000e+02
1.000000000000000000e+00,1.000000000000000000e+00,1.000000000000000000e+00,6.400000000000000000e+01,6.866000000000000000e+03,2.952089309692382812e-01,2.021482944488525391e+00,7.283378371469589885e-01,0.000000000000000000e+00,1.110000000000000000e+02
0.000000000000000000e+00,1.000000000000000000e+00,0.000000000000000000e+00,6.000000000000000000e+01,6.926000000000000000e+03,1.676459312438964844e-01,1.483885049819946289e+00,3.293488020490859536e-01,0.000000000000000000e+00,1.110000000000000000e+02
1.000000000000000000e+00,1.000000000000000000e+00,1.000000000000000000e+00,6.400000000000000000e+01,6.990000000000000000e+03,3.213350772857666016e-01,1.920273065567016602e+00,6.160838902132914630e-01,0.000000000000000000e+00,1.110000000000000000e+02
1.000000000000000000e+00,1.000000000000000000e+00,1.000000000000000000e+00,6.300000000000000000e+01,7.053000000000000000e+03,3.130750656127929688e-01,1.658236026763916016e+00,3.413589073790820327e-01,0.000000000000000000e+00,1.110000000000000000e+02
1.000000000000000000e+00,1.000000000000000000e+00,1.000000000000000000e+00,6.700000000000000000e+01,7.120000000000000000e+03,2.831749916076660156e-01,1.628957986831665039e+00,3.537155184038179856e-01,0.000000000000000000e+00,1.110000000000000000e+02
1.000000000000000000e+00,1.000000000000000000e+00,1.000000000000000000e+00,5.200000000000000000e+01,7.172000000000000000e+03,2.808089256286621094e-01,1.737076997756958008e+00,4.574200445508412316e-01,0.000000000000000000e+00,1.110000000000000000e+02
0.000000000000000000e+00,1.000000000000000000e+00,0.000000000000000000e+00,5.900000000000000000e+01,7.231000000000000000e+03,2.875671386718750000e-01,1.793648004531860352e+00,5.177390366849482506e-01,0.000000000000000000e+00,1.110000000000000000e+02
0.000000000000000000e+00,1.000000000000000000e+00,0.000000000000000000e+00,5.600000000000000000e+01,7.287000000000000000e+03,3.086581230163574219e-01,1.575146198272705078e+00,2.765526499925295423e-01,0.000000000000000000e+00,1.110000000000000000e+02
0.000000000000000000e+00,1.000000000000000000e+00,0.000000000000000000e+00,6.600000000000000000e+01,7.353000000000000000e+03,3.740780353546142578e-01,1.663735866546630859e+00,3.069872184391549408e-01,0.000000000000000000e+00,1.110000000000000000e+02
0.000000000000000000e+00,1.000000000000000000e+00,0.000000000000000000e+00,6.200000000000000000e+01,7.415000000000000000e+03,4.584791660308837891e-01,2.082208156585693359e+00,6.389273988058346010e-01,0.000000000000000000e+00,1.110000000000000000e+02
0.000000000000000000e+00,1.000000000000000000e+00,0.000000000000000000e+00,5.500000000000000000e+01,7.470000000000000000e+03,4.321689605712890625e-01,1.738867998123168945e+00,3.115742154688441179e-01,0.000000000000000000e+00,1.110000000000000000e+02
0.000000000000000000e+00,1.000000000000000000e+00,0.000000000000000000e+00,5.700000000000000000e+01,7.527000000000000000e+03,3.319129943847656250e-01,1.799309015274047852e+00,4.774469427670233745e-01,0.000000000000000000e+00,1.110000000000000000e+02
1.000000000000000000e+00,1.000000000000000000e+00,1.000000000000000000e+00,5.500000000000000000e+01,7.582000000000000000e+03,3.189918994903564453e-01,2.003978013992309570e+00,6.979377969161053574e-01,0.000000000000000000e+00,1.110000000000000000e+02
1.000000000000000000e+00,1.000000000000000000e+00,1.000000000000000000e+00,6.000000000000000000e+01,7.642000000000000000e+03,2.710041999816894531e-01,1.531901121139526367e+00,2.803631825506872066e-01,0.000000000000000000e+00,1.110000000000000000e+02
1.000000000000000000e+00,1.000000000000000000e+00,1.000000000000000000e+00,6.200000000000000000e+01,7.704000000000000000e+03,3.726921081542968750e-01,1.996718883514404297e+00,6.434347706271834610e-01,0.000000000000000000e+00,1.110000000000000000e+02
1.000000000000000000e+00,0.000000000000000000e+00,0.000000000000000000e+00,4.000000000000000000e+01,7.744000000000000000e+03,3.638720512390136719e-01,1.999812841415405273e+00,6.433652077882788811e-01,0.000000000000000000e+00,1.110000000000000000e+02
1.000000000000000000e+00,1.000000000000000000e+00,1.000000000000000000e+00,6.200000000000000000e+01,7.806000000000000000e+03,2.589118480682373047e-01,1.528077125549316406e+00,2.885302410257015726e-01,0.000000000000000000e+00,1.110000000000000000e+02
0.000000000000000000e+00,1.000000000000000000e+00,0.000000000000000000e+00,5.600000000000000000e+01,7.862000000000000000e+03,3.606269359588623047e-01,1.775247097015380859e+00,4.303943075656208594e-01,0.000000000000000000e+00,1.110000000000000000e+02
0.000000000000000000e+00,1.000000000000000000e+00,0.000000000000000000e+00,5.900000000000000000e+01,7.921000000000000000e+03,3.410918712615966797e-01,1.678956985473632812e+00,3.594902100515563470e-01,0.000000000000000000e+00,1.110000000000000000e+02
0.000000000000000000e+00,1.000000000000000000e+00,0.000000000000000000e+00,5.600000000000000000e+01,7.977000000000000000e+03,2.827630043029785156e-01,1.888437032699584961e+00,6.144168592728476153e-01,0.000000000000000000e+00,1.110000000000000000e+02
1.000000000000000000e+00,1.000000000000000000e+00,1.000000000000000000e+00,5.600000000000000000e+01,8.033000000000000000e+03,2.864620685577392578e-01,1.973291158676147461e+00,7.043803183356710518e-01,0.000000000000000000e+00,1.110000000000000000e+02
0.000000000000000000e+00,1.000000000000000000e+00,0.000000000000000000e+00,6.300000000000000000e+01,8.096000000000000000e+03,3.192090988159179688e-01,2.061208009719848633e+00,7.489756440047665720e-01,0.000000000000000000e+00,1.110000000000000000e+02
1.000000000000000000e+00,1.000000000000000000e+00,1.000000000000000000e+00,5.200000000000000000e+01,8.148000000000000000e+03,2.626361846923828125e-01,1.568711042404174805e+00,3.015428729098477145e-01,0.000000000000000000e+00,1.110000000000000000e+02
0.000000000000000000e+00,1.000000000000000000e+00,0.000000000000000000e+00,5.600000000000000000e+01,8.204000000000000000e+03,2.940127849578857422e-01,1.592019081115722656e+00,3.102905155334311216e-01,0.000000000000000000e+00,1.110000000000000000e+02
0.000000000000000000e+00,1.000000000000000000e+00,0.000000000000000000e+00,6.000000000000000000e+01,8.264000000000000000e+03,3.317179679870605469e-01,2.025787830352783203e+00,7.024294734749803037e-01,0.000000000000000000e+00,1.110000000000000000e+02
1.000000000000000000e+00,1.000000000000000000e+00,1.000000000000000000e+00,6.300000000000000000e+01,8.327000000000000000e+03,3.144538402557373047e-01,1.767765045166015625e+00,4.538379293370842227e-01,0.000000000000000000e+00,1.110000000000000000e+02
0.000000000000000000e+00,1.000000000000000000e+00,0.000000000000000000e+00,6.100000000000000000e+01,8.388000000000000000e+03,3.267970085144042969e-01,1.869709014892578125e+00,5.402271836567560381e-01,0.000000000000000000e+00,1.110000000000000000e+02
0.000000000000000000e+00,1.000000000000000000e+00,0.000000000000000000e+00,5.900000000000000000e+01,8.447000000000000000e+03,3.652839660644531250e-01,2.081446886062622070e+00,7.215777968120791197e-01,0.000000000000000000e+00,1.110000000000000000e+02
0.000000000000000000e+00,1.000000000000000000e+00,0.000000000000000000e+00,5.500000000000000000e+01,8.502000000000000000e+03,3.430559635162353516e-01,1.969058990478515625e+00,6.407917930179743982e-01,0.000000000000000000e+00,1.110000000000000000e+02
0.000000000000000000e+00,1.000000000000000000e+00,0.000000000000000000e+00,6.400000000000000000e+01,8.566000000000000000e+03,3.353810310363769531e-01,2.062683105468750000e+00,7.368156822775540071e-01,0.000000000000000000e+00,1.110000000000000000e+02
1.000000000000000000e+00,1.000000000000000000e+00,1.000000000000000000e+00,6.000000000000000000e+01,8.626000000000000000e+03,2.907919883728027344e-01,1.913837909698486328e+00,6.341843569500782429e-01,0.000000000000000000e+00,1.110000000000000000e+02
1.000000000000000000e+00,1.000000000000000000e+00,1.000000000000000000e+00,6.300000000000000000e+01,8.689000000000000000e+03,2.811520099639892578e-01,1.880803823471069336e+00,5.984104218689627608e-01,0.000000000000000000e+00,1.110000000000000000e+02
1.000000000000000000e+00,1.000000000000000000e+00,1.000000000000000000e+00,6.000000000000000000e+01,8.749000000000000000e+03,3.485379219055175781e-01,1.778532981872558594e+00,4.438655407441274847e-01,0.000000000000000000e+00,1.110000000000000000e+02
0.000000000000000000e+00,1.000000000000000000e+00,0.000000000000000000e+00,5.700000000000000000e+01,8.806000000000000000e+03,3.722469806671142578e-01,2.004198074340820312e+00,6.479572559866719761e-01,0.000000000000000000e+00,1.110000000000000000e+02
0.000000000000000000e+00,1.000000000000000000e+00,0.000000000000000000e+00,6.100000000000000000e+01,8.867000000000000000e+03,3.873808383941650391e-01,1.995424985885620117e+00,6.268240986319799646e-01,0.000000000000000000e+00,1.110000000000000000e+02
0.000000000000000000e+00,1.000000000000000000e+00,0.000000000000000000e+00,5.500000000000000000e+01,8.922000000000000000e+03,3.775019645690917969e-01,2.079067945480346680e+00,7.059429100728122908e-01,0.000000000000000000e+00,1.110000000000000000e+02
0.000000000000000000e+00,1.000000000000000000e+00,0.000000000000000000e+00,6.200000000000000000e+01,8.984000000000000000e+03,3.722310066223144531e-01,1.934712886810302734e+00,5.741237249629866923e-01,0.000000000000000000e+00,1.110000000000000000e+02
0.000000000000000000e+00,1.000000000000000000e+00,0.000000000000000000e+00,5.900000000000000000e+01,9.043000000000000000e+03,3.270161151885986328e-01,1.609557151794433594e+00,2.841362639900768539e-01,0.000000000000000000e+00,1.110000000000000000e+02
0.000000000000000000e+00,1.000000000000000000e+00,0.000000000000000000e+00,5.300000000000000000e+01,9.096000000000000000e+03,3.283309936523437500e-01,1.778537034988403320e+00,4.459071284302650318e-01,0.000000000000000000e+00,1.110000000000000000e+02
0.000000000000000000e+00,1.000000000000000000e+00,0.000000000000000000e+00,6.000000000000000000e+01,9.156000000000000000e+03,3.307709693908691406e-01,1.994724988937377930e+00,6.737909091786029592e-01,0.000000000000000000e+00,1.110000000000000000e+02
0.000000000000000000e+00,1.000000000000000000e+00,0.000000000000000000e+00,6.600000000000000000e+01,9.222000000000000000e+03,3.057842254638671875e-01,1.817143917083740234e+00,5.245436575708631866e-01,0.000000000000000000e+00,1.110000000000000000e+02
1.000000000000000000e+00,1.000000000000000000e+00,1.000000000000000000e+00,6.200000000000000000e+01,9.284000000000000000e+03,3.412749767303466797e-01,1.984933853149414062e+00,6.594224718879109215e-01,0.000000000000000000e+00,1.110000000000000000e+02
1.000000000000000000e+00,1.000000000000000000e+00,1.000000000000000000e+00,5.700000000000000000e+01,9.341000000000000000e+03,3.000051975250244141e-01,1.679905176162719727e+00,3.896827616546909567e-01,0.000000000000000000e+00,1.110000000000000000e+02
1.000000000000000000e+00,1.000000000000000000e+00,1.000000000000000000e+00,6.100000000000000000e+01,9.402000000000000000e+03,3.855888843536376953e-01,1.706444978713989258e+00,3.295875479482504589e-01,0.000000000000000000e+00,1.110000000000000000e+02
0.000000000000000000e+00,1.000000000000000000e+00,0.000000000000000000e+00,5.700000000000000000e+01,9.459000000000000000e+03,3.256421089172363281e-01,1.648880004882812500e+00,3.452077579772314109e-01,0.000000000000000000e+00,1.110000000000000000e+02
1.000000000000000000e+00,1.000000000000000000e+00,1.000000000000000000e+00,5.700000000000000000e+01,9.516000000000000000e+03,3.047590255737304688e-01,1.977475881576538086e+00,6.890618015034559729e-01,0.000000000000000000e+00,1.110000000000000000e+02
1.000000000000000000e+00,1.000000000000000000e+00,1.000000000000000000e+00,5.600000000000000000e+01,9.572000000000000000e+03,3.305060863494873047e-01,1.814691781997680664e+00,4.873814397583476343e-01,0.000000000000000000e+00,1.110000000000000000e+02
1.000000000000000000e+00,1.000000000000000000e+00,1.000000000000000000e+00,6.000000000000000000e+01,9.632000000000000000e+03,3.358988761901855469e-01,1.783192873001098633e+00,4.540278939808594649e-01,0.000000000000000000e+00,1.110000000000000000e+02
1.000000000000000000e+00,1.000000000000000000e+00,1.000000000000000000e+00,5.600000000000000000e+01,9.688000000000000000e+03,2.955842018127441406e-01,1.757464170455932617e+00,4.615815107142252072e-01,0.000000000000000000e+00,1.110000000000000000e+02
0.000000000000000000e+00,1.000000000000000000e+00,0.000000000000000000e+00,6.200000000000000000e+01,9.750000000000000000e+03,3.027029037475585938e-01,1.859834909439086914e+00,5.713608409710533298e-01,0.000000000000000000e+00,1.110000000000000000e+02
1.000000000000000000e+00,1.000000000000000000e+00,1.000000000000000000e+00,5.500000000000000000e+01,9.805000000000000000e+03,3.170728683471679688e-01,1.993810176849365234e+00,6.818225006197551341e-01,0.000000000000000000e+00,1.110000000000000000e+02
1.000000000000000000e+00,1.000000000000000000e+00,1.000000000000000000e+00,5.600000000000000000e+01,9.861000000000000000e+03,3.341400623321533203e-01,1.771178007125854492e+00,4.366605125849482572e-01,0.000000000000000000e+00,1.110000000000000000e+02
1.000000000000000000e+00,1.000000000000000000e+00,1.000000000000000000e+00,6.400000000000000000e+01,9.925000000000000000e+03,3.355329036712646484e-01,1.997440814971923828e+00,6.672846212947085576e-01,0.000000000000000000e+00,1.110000000000000000e+02
0.000000000000000000e+00,1.000000000000000000e+00,0.000000000000000000e+00,6.200000000000000000e+01,9.987000000000000000e+03,3.135590553283691406e-01,1.946171045303344727e+00,6.302149804902121843e-01,0.000000000000000000e+00,1.110000000000000000e+02
1.000000000000000000e+00,1.000000000000000000e+00,1.000000000000000000e+00,5.600000000000000000e+01,1.004300000000000000e+04,3.903582096099853516e-01,1.976057052612304688e+00,6.064174862617290884e-01,0.000000000000000000e+00,1.110000000000000000e+02
1.000000000000000000e+00,1.000000000000000000e+00,1.000000000000000000e+00,6.000000000000000000e+01,1.010300000000000000e+04,2.871630191802978516e-01,1.772424936294555664e+00,4.956990298352996760e-01,0.000000000000000000e+00,1.110000000000000000e+02
1.000000000000000000e+00,1.000000000000000000e+00,1.000000000000000000e+00,5.600000000000000000e+01,1.015900000000000000e+04,3.864440917968750000e-01,1.661184072494506836e+00,2.905180803973871906e-01,0.000000000000000000e+00,1.110000000000000000e+02
1.000000000000000000e+00,1.000000000000000000e+00,1.000000000000000000e+00,6.000000000000000000e+01,1.021900000000000000e+04,3.199009895324707031e-01,1.719668149948120117e+00,4.101316856181412840e-01,0.000000000000000000e+00,1.110000000000000000e+02
1.000000000000000000e+00,1.000000000000000000e+00,1.000000000000000000e+00,6.300000000000000000e+01,1.028200000000000000e+04,2.902948856353759766e-01,2.006536006927490234e+00,7.330354754058755473e-01,0.000000000000000000e+00,1.110000000000000000e+02
1.000000000000000000e+00,1.000000000000000000e+00,1.000000000000000000e+00,5.700000000000000000e+01,1.033900000000000000e+04,2.797620296478271484e-01,2.029932975769042969e+00,7.465659414761047774e-01,0.000000000000000000e+00,1.110000000000000000e+02
1.000000000000000000e+00,1.000000000000000000e+00,1.000000000000000000e+00,5.700000000000000000e+01,1.039600000000000000e+04,2.611048221588134766e-01,1.560935020446777344e+00,3.245507249135053951e-01,0.000000000000000000e+00,1.110000000000000000e+02
1.000000000000000000e+00,1.000000000000000000e+00,1.000000000000000000e+00,6.200000000000000000e+01,1.045800000000000000e+04,3.314990997314453125e-01,1.981451988220214844e+00,6.557323829128236525e-01,0.000000000000000000e+00,1.110000000000000000e+02
0.000000000000000000e+00,1.000000000000000000e+00,0.000000000000000000e+00,5.400000000000000000e+01,1.051200000000000000e+04,3.792450428009033203e-01,1.735511779785156250e+00,3.582987725140662216e-01,0.000000000000000000e+00,1.110000000000000000e+02
1.000000000000000000e+00,1.000000000000000000e+00,1.000000000000000000e+00,5.700000000000000000e+01,1.056900000000000000e+04,3.079779148101806641e-01,1.849592924118041992e+00,5.577520790610537293e-01,0.000000000000000000e+00,1.110000000000000000e+02
1.000000000000000000e+00,1.000000000000000000e+00,1.000000000000000000e+00,6.000000000000000000e+01,1.062900000000000000e+04,2.750160694122314453e-01,1.717814922332763672e+00,4.590916281794816256e-01,0.000000000000000000e+00,1.110000000000000000e+02
0.000000000000000000e+00,1.000000000000000000e+00,0.000000000000000000e+00,5.300000000000000000e+01,1.068200000000000000e+04,3.584339618682861328e-01,1.630758047103881836e+00,2.900786572136493380e-01,0.000000000000000000e+00,1.110000000000000000e+02
0.000000000000000000e+00,1.000000000000000000e+00,0.000000000000000000e+00,5.500000000000000000e+01,1.073700000000000000e+04,4.081001281738281250e-01,1.762683153152465820e+00,3.694177073242121412e-01,0.000000000000000000e+00,1.110000000000000000e+02
1.000000000000000000e+00,1.000000000000000000e+00,1.000000000000000000e+00,5.700000000000000000e+01,1.079400000000000000e+04,3.084611892700195312e-01,2.040565967559814453e+00,7.430094639577422555e-01,0.000000000000000000e+00,1.110000000000000000e+02
1.000000000000000000e+00,1.000000000000000000e+00,1.000000000000000000e+00,6.000000000000000000e+01,1.085400000000000000e+04,2.861289978027343750e-01,1.981454133987426758e+00,7.079370803534597023e-01,0.000000000000000000e+00,1.110000000000000000e+02
1.000000000000000000e+00,1.000000000000000000e+00,1.000000000000000000e+00,6.300000000000000000e+01,1.091700000000000000e+04,3.049798011779785156e-01,1.667150020599365234e+00,3.754899448729239197e-01,0.000000000000000000e+00,1.110000000000000000e+02
0.000000000000000000e+00,1.000000000000000000e+00,0.000000000000000000e+00,5.600000000000000000e+01,1.097300000000000000e+04,3.077998161315917969e-01,1.696100950241088867e+00,3.883369939152543360e-01,0.000000000000000000e+00,1.110000000000000000e+02
0.000000000000000000e+00,1.000000000000000000e+00,0.000000000000000000e+00,6.100000000000000000e+01,1.103400000000000000e+04,2.963201999664306641e-01,1.765855073928833008e+00,4.708617075644572214e-01,0.000000000000000000e+00,1.110000000000000000e+02
0.000000000000000000e+00,1.000000000000000000e+00,0.000000000000000000e+00,6.000000000000000000e+01,1.109400000000000000e+04,2.727959156036376953e-01,1.690507888793945312e+00,4.281435257526616800e-01,0.000000000000000000e+00,1.110000000000000000e+02
1.000000000000000000e+00,1.000000000000000000e+00,1.000000000000000000e+00,6.300000000000000000e+01,1.115700000000000000e+04,3.225967884063720703e-01,1.655924081802368164e+00,3.509018007795101091e-01,0.000000000000000000e+00,1.110000000000000000e+02
1.000000000000000000e+00,1.000000000000000000e+00,1.000000000000000000e+00,5.900000000000000000e+01,1.121600000000000000e+04,2.739031314849853516e-01,1.803351163864135742e+00,5.374715400117048292e-01,0.000000000000000000e+00,1.110000000000000000e+02
1.000000000000000000e+00,1.000000000000000000e+00,1.000000000000000000e+00,6.600000000000000000e+01,1.128200000000000000e+04,2.830970287322998047e-01,1.734978914260864258e+00,4.559533778131704129e-01,0.000000000000000000e+00,1.110000000000000000e+02
0.000000000000000000e+00,1.000000000000000000e+00,0.000000000000000000e+00,5.700000000000000000e+01,1.133900000000000000e+04,3.816919326782226562e-01,1.922356843948364258e+00,5.449424870028529710e-01,0.000000000000000000e+00,1.110000000000000000e+02
1.000000000000000000e+00,1.000000000000000000e+00,1.000000000000000000e+00,6.400000000000000000e+01,1.140300000000000000e+04,2.531471252441406250e-01,1.656410217285156250e+00,4.182349524786134753e-01,0.000000000000000000e+00,1.110000000000000000e+02
1.000000000000000000e+00,0.000000000000000000e+00,0.000000000000000000e+00,4.600000000000000000e+01,1.144900000000000000e+04,2.685561180114746094e-01,1.833877801895141602e+00,5.687086587115621761e-01,1.000000000000000000e+00,1.120000000000000000e+02
0.000000000000000000e+00,0.000000000000000000e+00,1.000000000000000000e+00,4.900000000000000000e+01,1.149800000000000000e+04,3.292300701141357422e-01,2.007945060729980469e+00,6.766195830844103920e-01,0.000000000000000000e+00,1.120000000000000000e+02
0.000000000000000000e+00,1.000000000000000000e+00,0.000000000000000000e+00,5.300000000000000000e+01,1.155100000000000000e+04,2.692539691925048828e-01,1.576570034027099609e+00,3.203232348145231279e-01,0.000000000000000000e+00,1.120000000000000000e+02
0.000000000000000000e+00,1.000000000000000000e+00,0.000000000000000000e+00,5.100000000000000000e+01,1.160200000000000000e+04,2.990181446075439453e-01,1.759283065795898438e+00,4.628267119862971568e-01,0.000000000000000000e+00,1.120000000000000000e+02
1.000000000000000000e+00,1.000000000000000000e+00,1.000000000000000000e+00,5.400000000000000000e+01,1.165600000000000000e+04,2.730989456176757812e-01,1.986315011978149414e+00,7.322708566457680757e-01,0.000000000000000000e+00,1.120000000000000000e+02
1.000000000000000000e+00,1.000000000000000000e+00,1.000000000000000000e+00,5.700000000000000000e+01,1.171300000000000000e+04,2.142171859741210938e-01,1.585049152374267578e+00,3.678144107074944325e-01,0.000000000000000000e+00,1.120000000000000000e+02
1.000000000000000000e+00,1.000000000000000000e+00,1.000000000000000000e+00,5.700000000000000000e+01,1.177000000000000000e+04,3.350028991699218750e-01,2.079330921173095703e+00,7.468092146501577044e-01,0.000000000000000000e+00,1.120000000000000000e+02
1.000000000000000000e+00,1.000000000000000000e+00,1.000000000000000000e+00,5.500000000000000000e+01,1.182500000000000000e+04,3.022789955139160156e-01,1.778228044509887695e+00,4.920713315275609956e-01,0.000000000000000000e+00,1.120000000000000000e+02
1.000000000000000000e+00,1.000000000000000000e+00,1.000000000000000000e+00,5.600000000000000000e+01,1.188100000000000000e+04,2.870550155639648438e-01,1.771379947662353516e+00,4.968520368429318879e-01,0.000000000000000000e+00,1.120000000000000000e+02
0.000000000000000000e+00,1.000000000000000000e+00,0.000000000000000000e+00,6.100000000000000000e+01,1.194200000000000000e+04,3.144218921661376953e-01,1.830659866333007812e+00,5.275607783531095496e-01,0.000000000000000000e+00,1.120000000000000000e+02
1.000000000000000000e+00,1.000000000000000000e+00,1.000000000000000000e+00,5.200000000000000000e+01,1.199400000000000000e+04,2.771170139312744141e-01,1.605102062225341797e+00,3.496063769275034594e-01,0.000000000000000000e+00,1.120000000000000000e+02
1.000000000000000000e+00,1.000000000000000000e+00,1.000000000000000000e+00,5.900000000000000000e+01,1.205300000000000000e+04,3.025550842285156250e-01,1.717305898666381836e+00,4.169222918100136677e-01,0.000000000000000000e+00,1.120000000000000000e+02
0.000000000000000000e+00,1.000000000000000000e+00,0.000000000000000000e+00,5.200000000000000000e+01,1.210500000000000000e+04,2.929079532623291016e-01,1.779330015182495117e+00,4.962332451314932502e-01,0.000000000000000000e+00,1.120000000000000000e+02
1.000000000000000000e+00,1.000000000000000000e+00,1.000000000000000000e+00,5.400000000000000000e+01,1.215900000000000000e+04,2.573070526123046875e-01,1.685000896453857422e+00,4.480261758206823264e-01,0.000000000000000000e+00,1.120000000000000000e+02
1.000000000000000000e+00,1.000000000000000000e+00,1.000000000000000000e+00,5.300000000000000000e+01,1.221200000000000000e+04,3.101060390472412109e-01,1.648412942886352539e+00,3.466344611855982083e-01,0.000000000000000000e+00,1.120000000000000000e+02
0.000000000000000000e+00,1.000000000000000000e+00,0.000000000000000000e+00,5.100000000000000000e+01,1.226300000000000000e+04,3.020880222320556641e-01,1.845038175582885742e+00,5.581678435715089481e-01,0.000000000000000000e+00,1.120000000000000000e+02
1.000000000000000000e+00,1.000000000000000000e+00,1.000000000000000000e+00,5.500000000000000000e+01,1.231800000000000000e+04,2.941260337829589844e-01,1.570436000823974609e+00,2.789960713114165158e-01,0.000000000000000000e+00,1.120000000000000000e+02
1.000000000000000000e+00,1.000000000000000000e+00,1.000000000000000000e+00,5.200000000000000000e+01,1.237000000000000000e+04,3.455269336700439453e-01,2.076445102691650391e+00,7.383642476005162214e-01,0.000000000000000000e+00,1.120000000000000000e+02
0.000000000000000000e+00,1.000000000000000000e+00,0.000000000000000000e+00,5.400000000000000000e+01,1.242400000000000000e+04,2.732441425323486328e-01,1.615632057189941406e+00,3.544930656333312169e-01,0.000000000000000000e+00,1.120000000000000000e+02
0.000000000000000000e+00,1.000000000000000000e+00,0.000000000000000000e+00,5.700000000000000000e+01,1.248100000000000000e+04,3.236420154571533203e-01,1.825802803039550781e+00,5.135276462292297506e-01,0.000000000000000000e+00,1.120000000000000000e+02
0.000000000000000000e+00,1.000000000000000000e+00,0.000000000000000000e+00,5.600000000000000000e+01,1.253700000000000000e+04,3.230299949645996094e-01,1.873169898986816406e+00,5.700569441976304219e-01,0.000000000000000000e+00,1.120000000000000000e+02
0.000000000000000000e+00,1.000000000000000000e+00,0.000000000000000000e+00,5.000000000000000000e+01,1.258700000000000000e+04,3.228199481964111328e-01,1.789416074752807617e+00,4.763539137130842760e-01,0.000000000000000000e+00,1.120000000000000000e+02
0.000000000000000000e+00,1.000000000000000000e+00,0.000000000000000000e+00,5.200000000000000000e+01,1.263900000000000000e+04,2.925298213958740234e-01,2.006882905960083008e+00,7.330682458956598868e-01,0.000000000000000000e+00,1.120000000000000000e+02
0.000000000000000000e+00,1.000000000000000000e+00,0.000000000000000000e+00,5.100000000000000000e+01,1.269000000000000000e+04,2.888801097869873047e-01,1.808298826217651367e+00,5.249914639178728804e-01,0.000000000000000000e+00,1.120000000000000000e+02
1.000000000000000000e+00,1.000000000000000000e+00,1.000000000000000000e+00,5.400000000000000000e+01,1.274400000000000000e+04,3.190279006958007812e-01,1.690979957580566406e+00,3.828736555191756263e-01,0.000000000000000000e+00,1.120000000000000000e+02
1.000000000000000000e+00,1.000000000000000000e+00,1.000000000000000000e+00,5.400000000000000000e+01,1.279800000000000000e+04,4.220650196075439453e-01,1.807240009307861328e+00,3.901938697575477177e-01,0.000000000000000000e+00,1.120000000000000000e+02
0.000000000000000000e+00,1.000000000000000000e+00,0.000000000000000000e+00,5.400000000000000000e+01,1.285200000000000000e+04,2.841200828552246094e-01,1.762205839157104492e+00,4.856857068786824549e-01,0.000000000000000000e+00,1.120000000000000000e+02
0.000000000000000000e+00,1.000000000000000000e+00,0.000000000000000000e+00,5.200000000000000000e+01,1.290400000000000000e+04,3.065271377563476562e-01,1.765920162200927734e+00,4.683793363297739099e-01,0.000000000000000000e+00,1.120000000000000000e+02
0.000000000000000000e+00,1.000000000000000000e+00,0.000000000000000000e+00,5.300000000000000000e+01,1.295700000000000000e+04,2.699098587036132812e-01,1.961885929107666016e+00,6.967931409405943022e-01,0.000000000000000000e+00,1.120000000000000000e+02
1.000000000000000000e+00,1.000000000000000000e+00,1.000000000000000000e+00,5.500000000000000000e+01,1.301200000000000000e+04,2.870290279388427734e-01,1.976965904235839844e+00,7.071388977856469804e-01,0.000000000000000000e+00,1.120000000000000000e+02
1.000000000000000000e+00,1.000000000000000000e+00,1.000000000000000000e+00,5.200000000000000000e+01,1.306400000000000000e+04,3.197181224822998047e-01,1.916188955307006836e+00,6.068883005215831572e-01,0.000000000000000000e+00,1.120000000000000000e+02
1.000000000000000000e+00,1.000000000000000000e+00,1.000000000000000000e+00,5.600000000000000000e+01,1.312000000000000000e+04,2.960770130157470703e-01,2.029279947280883789e+00,7.360791648210782689e-01,0.000000000000000000e+00,1.120000000000000000e+02
1.000000000000000000e+00,1.000000000000000000e+00,1.000000000000000000e+00,5.100000000000000000e+01,1.317100000000000000e+04,3.028829097747802734e-01,1.607680082321166992e+00,3.109701454524956277e-01,0.000000000000000000e+00,1.120000000000000000e+02
1.000000000000000000e+00,1.000000000000000000e+00,1.000000000000000000e+00,5.200000000000000000e+01,1.322300000000000000e+04,2.898981571197509766e-01,1.528755903244018555e+00,2.565268230380605141e-01,0.000000000000000000e+00,1.120000000000000000e+02
1.000000000000000000e+00,1.000000000000000000e+00,1.000000000000000000e+00,5.100000000000000000e+01,1.327400000000000000e+04,2.606279850006103516e-01,1.624727964401245117e+00,3.811944001472608035e-01,0.000000000000000000e+00,1.120000000000000000e+02
1.000000000000000000e+00,1.000000000000000000e+00,1.000000000000000000e+00,5.200000000000000000e+01,1.332600000000000000e+04,2.450840473175048828e-01,1.502328157424926758e+00,2.670551585498863179e-01,0.000000000000000000e+00,1.120000000000000000e+02
0.000000000000000000e+00,1.000000000000000000e+00,0.000000000000000000e+00,5.500000000000000000e+01,1.338100000000000000e+04,4.064629077911376953e-01,2.064017057418823242e+00,6.640212903073654527e-01,0.000000000000000000e+00,1.120000000000000000e+02
0.000000000000000000e+00,1.000000000000000000e+00,0.000000000000000000e+00,5.600000000000000000e+01,1.343700000000000000e+04,3.634359836578369141e-01,1.837905883789062500e+00,4.855184116603045719e-01,0.000000000000000000e+00,1.120000000000000000e+02
1.000000000000000000e+00,1.000000000000000000e+00,1.000000000000000000e+00,5.100000000000000000e+01,1.348800000000000000e+04,2.814910411834716797e-01,1.971789121627807617e+00,6.905079967220892900e-01,0.000000000000000000e+00,1.120000000000000000e+02
0.000000000000000000e+00,1.000000000000000000e+00,0.000000000000000000e+00,5.300000000000000000e+01,1.354100000000000000e+04,3.078930377960205078e-01,1.941758871078491211e+00,6.491154735667976627e-01,0.000000000000000000e+00,1.120000000000000000e+02
0.000000000000000000e+00,1.000000000000000000e+00,0.000000000000000000e+00,5.100000000000000000e+01,1.359200000000000000e+04,3.300440311431884766e-01,1.891000032424926758e+00,5.569223349910888965e-01,0.000000000000000000e+00,1.120000000000000000e+02
1.000000000000000000e+00,1.000000000000000000e+00,1.000000000000000000e+00,5.600000000000000000e+01,1.364800000000000000e+04,3.166689872741699219e-01,1.648410797119140625e+00,3.389909266442650004e-01,0.000000000000000000e+00,1.120000000000000000e+02
1.000000000000000000e+00,1.000000000000000000e+00,1.000000000000000000e+00,5.600000000000000000e+01,1.370400000000000000e+04,3.497700691223144531e-01,2.063502788543701172e+00,7.188290447163884211e-01,0.000000000000000000e+00,1.120000000000000000e+02
1.000000000000000000e+00,1.000000000000000000e+00,1.000000000000000000e+00,5.300000000000000000e+01,1.375700000000000000e+04,2.901608943939208984e-01,2.020162820816040039e+00,7.390874917298505542e-01,0.000000000000000000e+00,1.120000000000000000e+02
1.000000000000000000e+00,1.000000000000000000e+00,1.000000000000000000e+00,5.600000000000000000e+01,1.381300000000000000e+04,3.036408424377441406e-01,2.002488851547241211e+00,7.083442626808384990e-01,0.000000000000000000e+00,1.120000000000000000e+02
1.000000000000000000e+00,1.000000000000000000e+00,1.000000000000000000e+00,5.300000000000000000e+01,1.386600000000000000e+04,2.466158866882324219e-01,1.701482057571411133e+00,4.601576270450189465e-01,0.000000000000000000e+00,1.120000000000000000e+02
1.000000000000000000e+00,1.000000000000000000e+00,1.000000000000000000e+00,5.400000000000000000e+01,1.392000000000000000e+04,5.227270126342773438e-01,2.191103935241699219e+00,6.844802982802136171e-01,0.000000000000000000e+00,1.120000000000000000e+02
0.000000000000000000e+00,1.000000000000000000e+00,0.000000000000000000e+00,5.000000000000000000e+01,1.397000000000000000e+04,3.287310600280761719e-01,1.934549808502197266e+00,6.025310931548989446e-01,0.000000000000000000e+00,1.120000000000000000e+02
1.000000000000000000e+00,1.000000000000000000e+00,1.000000000000000000e+00,5.600000000000000000e+01,1.402600000000000000e+04,4.175410270690917969e-01,1.783152103424072266e+00,3.693122020844021858e-01,0.000000000000000000e+00,1.120000000000000000e+02
0.000000000000000000e+00,1.000000000000000000e+00,0.000000000000000000e+00,5.100000000000000000e+01,1.407700000000000000e+04,3.352270126342773438e-01,1.978361129760742188e+00,6.475035264736132001e-01,0.000000000000000000e+00,1.120000000000000000e+02
0.000000000000000000e+00,1.000000000000000000e+00,0.000000000000000000e+00,5.700000000000000000e+01,1.413400000000000000e+04,3.276591300964355469e-01,1.633847951889038086e+00,3.317644650559139485e-01,0.000000000000000000e+00,1.120000000000000000e+02
0.000000000000000000e+00,1.000000000000000000e+00,0.000000000000000000e+00,5.400000000000000000e+01,1.418800000000000000e+04,2.804219722747802734e-01,2.012762069702148438e+00,7.441748143265116688e-01,0.000000000000000000e+00,1.120000000000000000e+02
0.000000000000000000e+00,1.000000000000000000e+00,0.000000000000000000e+00,5.500000000000000000e+01,1.424300000000000000e+04,4.407808780670166016e-01,2.108193874359130859e+00,6.858309841604646184e-01,0.000000000000000000e+00,1.120000000000000000e+02
0.000000000000000000e+00,1.000000000000000000e+00,0.000000000000000000e+00,5.900000000000000000e+01,1.430200000000000000e+04,3.202409744262695312e-01,1.665869951248168945e+00,3.521471973425026603e-01,0.000000000000000000e+00,1.120000000000000000e+02
0.000000000000000000e+00,1.000000000000000000e+00,0.000000000000000000e+00,5.400000000000000000e+01,1.435600000000000000e+04,3.075520992279052734e-01,1.782181978225708008e+00,4.842793860393259653e-01,0.000000000000000000e+00,1.120000000000000000e+02
1.000000000000000000e+00,1.000000000000000000e+00,1.000000000000000000e+00,5.500000000000000000e+01,1.441100000000000000e+04,3.204019069671630859e-01,1.730637073516845703e+00,4.150381200960825412e-01,0.000000000000000000e+00,1.120000000000000000e+02
1.000000000000000000e+00,1.000000000000000000e+00,1.000000000000000000e+00,5.200000000000000000e+01,1.446300000000000000e+04,2.968311309814453125e-01,1.665979146957397461e+00,3.811475344413108313e-01,0.000000000000000000e+00,1.120000000000000000e+02
1.000000000000000000e+00,1.000000000000000000e+00,1.000000000000000000e+00,6.000000000000000000e+01,1.452300000000000000e+04,3.190670013427734375e-01,1.642133951187133789e+00,3.401026142924464812e-01,0.000000000000000000e+00,1.120000000000000000e+02
1.000000000000000000e+00,1.000000000000000000e+00,1.000000000000000000e+00,5.100000000000000000e+01,1.457400000000000000e+04,3.301968574523925781e-01,1.586031913757324219e+00,2.596048558537892292e-01,0.000000000000000000e+00,1.120000000000000000e+02
1.000000000000000000e+00,1.000000000000000000e+00,1.000000000000000000e+00,5.200000000000000000e+01,1.462600000000000000e+04,3.139109611511230469e-01,1.565219163894653320e+00,2.582118632499092459e-01,0.000000000000000000e+00,1.120000000000000000e+02
0.000000000000000000e+00,1.000000000000000000e+00,0.000000000000000000e+00,5.600000000000000000e+01,1.468200000000000000e+04,3.082048892974853516e-01,1.752884864807128906e+00,4.609382174614156114e-01,0.000000000000000000e+00,1.120000000000000000e+02
0.000000000000000000e+00,1.000000000000000000e+00,0.000000000000000000e+00,5.000000000000000000e+01,1.473200000000000000e+04,2.772760391235351562e-01,1.525748014450073242e+00,2.536577501561090298e-01,0.000000000000000000e+00,1.120000000000000000e+02
0.000000000000000000e+00,1.000000000000000000e+00,0.000000000000000000e+00,6.100000000000000000e+01,1.479300000000000000e+04,3.020360469818115234e-01,1.631333112716674805e+00,3.349840910634513946e-01,0.000000000000000000e+00,1.120000000000000000e+02
0.000000000000000000e+00,1.000000000000000000e+00,0.000000000000000000e+00,5.400000000000000000e+01,1.484700000000000000e+04,2.917361259460449219e-01,1.583847045898437500e+00,3.021995717121297997e-01,0.000000000000000000e+00,1.120000000000000000e+02
1.000000000000000000e+00,1.000000000000000000e+00,1.000000000000000000e+00,5.300000000000000000e+01,1.490000000000000000e+04,2.274270057678222656e-01,1.632986068725585938e+00,4.185071237523673160e-01,0.000000000000000000e+00,1.120000000000000000e+02
1.000000000000000000e+00,1.000000000000000000e+00,1.000000000000000000e+00,5.100000000000000000e+01,1.495100000000000000e+04,3.381121158599853516e-01,1.965786933898925781e+00,6.341685235456633318e-01,0.000000000000000000e+00,1.120000000000000000e+02
0.000000000000000000e+00,1.000000000000000000e+00,0.000000000000000000e+00,5.200000000000000000e+01,1.500300000000000000e+04,2.864978313446044922e-01,2.022481918334960938e+00,7.399711122810532782e-01,0.000000000000000000e+00,1.120000000000000000e+02
0.000000000000000000e+00,1.000000000000000000e+00,0.000000000000000000e+00,5.900000000000000000e+01,1.506200000000000000e+04,3.279039859771728516e-01,1.981029033660888672e+00,6.544977844926516131e-01,0.000000000000000000e+00,1.120000000000000000e+02
1.000000000000000000e+00,1.000000000000000000e+00,1.000000000000000000e+00,5.500000000000000000e+01,1.511700000000000000e+04,2.776010036468505859e-01,1.624453067779541016e+00,3.460219363893429767e-01,0.000000000000000000e+00,1.120000000000000000e+02
0.000000000000000000e+00,1.000000000000000000e+00,0.000000000000000000e+00,5.400000000000000000e+01,1.517100000000000000e+04,4.020800590515136719e-01,2.018949985504150391e+00,6.314437006713995437e-01,0.000000000000000000e+00,1.120000000000000000e+02
0.000000000000000000e+00,1.000000000000000000e+00,0.000000000000000000e+00,5.000000000000000000e+01,1.522100000000000000e+04,3.234510421752929688e-01,1.791000127792358398e+00,4.893294120441995521e-01,0.000000000000000000e+00,1.120000000000000000e+02
0.000000000000000000e+00,1.000000000000000000e+00,0.000000000000000000e+00,5.400000000000000000e+01,1.527500000000000000e+04,3.085610866546630859e-01,1.925204038619995117e+00,6.311303918354771447e-01,0.000000000000000000e+00,1.120000000000000000e+02
1.000000000000000000e+00,1.000000000000000000e+00,1.000000000000000000e+00,5.300000000000000000e+01,1.532800000000000000e+04,3.059530258178710938e-01,1.944217920303344727e+00,6.587576804962170796e-01,0.000000000000000000e+00,1.120000000000000000e+02
0.000000000000000000e+00,1.000000000000000000e+00,0.000000000000000000e+00,5.300000000000000000e+01,1.538100000000000000e+04,4.310069084167480469e-01,1.686446905136108398e+00,2.623736631370984784e-01,0.000000000000000000e+00,1.120000000000000000e+02
0.000000000000000000e+00,1.000000000000000000e+00,0.000000000000000000e+00,5.500000000000000000e+01,1.543600000000000000e+04,3.248040676116943359e-01,1.599119901657104492e+00,2.948453524485161736e-01,0.000000000000000000e+00,1.120000000000000000e+02
1.000000000000000000e+00,1.000000000000000000e+00,1.000000000000000000e+00,5.700000000000000000e+01,1.549300000000000000e+04,2.947568893432617188e-01,1.891855955123901367e+00,6.197683290802722400e-01,0.000000000000000000e+00,1.120000000000000000e+02
1.000000000000000000e+00,1.000000000000000000e+00,1.000000000000000000e+00,5.300000000000000000e+01,1.554600000000000000e+04,2.788679599761962891e-01,1.874126911163330078e+00,5.940185388728318472e-01,0.000000000000000000e+00,1.120000000000000000e+02
1.000000000000000000e+00,1.000000000000000000e+00,1.000000000000000000e+00,5.600000000000000000e+01,1.560200000000000000e+04,3.182120323181152344e-01,2.055110931396484375e+00,7.490373162453164424e-01,0.000000000000000000e+00,1.120000000000000000e+02
0.000000000000000000e+00,1.000000000000000000e+00,0.000000000000000000e+00,5.200000000000000000e+01,1.565400000000000000e+04,3.236310482025146484e-01,2.005744934082031250e+00,6.882626196592529499e-01,0.000000000000000000e+00,1.120000000000000000e+02
0.000000000000000000e+00,1.000000000000000000e+00,0.000000000000000000e+00,5.600000000000000000e+01,1.571000000000000000e+04,3.137059211730957031e-01,2.015908002853393555e+00,7.042418450590459678e-01,0.000000000000000000e+00,1.120000000000000000e+02
1.000000000000000000e+00,1.000000000000000000e+00,1.000000000000000000e+00,5.200000000000000000e+01,1.576200000000000000e+04,2.890939712524414062e-01,1.541417837142944336e+00,2.628783374927988192e-01,0.000000000000000000e+00,1.120000000000000000e+02
0.000000000000000000e+00,1.000000000000000000e+00,0.000000000000000000e+00,5.400000000000000000e+01,1.581600000000000000e+04,3.378000259399414062e-01,1.587181091308593750e+00,2.668016163389325124e-01,0.000000000000000000e+00,1.120000000000000000e+02
0.000000000000000000e+00,1.000000000000000000e+00,0.000000000000000000e+00,5.900000000000000000e+01,1.587500000000000000e+04,2.878849506378173828e-01,1.610563993453979492e+00,3.273724078321736952e-01,0.000000000000000000e+00,1.120000000000000000e+02
1.000000000000000000e+00,1.000000000000000000e+00,1.000000000000000000e+00,5.400000000000000000e+01,1.592900000000000000e+04,4.289739131927490234e-01,2.074649095535278320e+00,6.517691996697074774e-01,0.000000000000000000e+00,1.120000000000000000e+02
1.000000000000000000e+00,1.000000000000000000e+00,1.000000000000000000e+00,5.600000000000000000e+01,1.598500000000000000e+04,3.086848258972167969e-01,1.644236087799072266e+00,3.463994363556133771e-01,0.000000000000000000e+00,1.120000000000000000e+02
0.000000000000000000e+00,1.000000000000000000e+00,0.000000000000000000e+00,5.600000000000000000e+01,1.604100000000000000e+04,3.553740978240966797e-01,1.655331850051879883e+00,3.185187321599402543e-01,0.000000000000000000e+00,1.120000000000000000e+02
1.000000000000000000e+00,1.000000000000000000e+00,1.000000000000000000e+00,5.000000000000000000e+01,1.609100000000000000e+04,3.578138351440429688e-01,1.881982088088989258e+00,5.336657765418115762e-01,0.000000000000000000e+00,1.120000000000000000e+02
1.000000000000000000e+00,1.000000000000000000e+00,1.000000000000000000e+00,5.200000000000000000e+01,1.614300000000000000e+04,3.215298652648925781e-01,1.704395055770874023e+00,3.883393372773806806e-01,0.000000000000000000e+00,1.120000000000000000e+02
1.000000000000000000e+00,1.000000000000000000e+00,1.000000000000000000e+00,6.100000000000000000e+01,1.620400000000000000e+04,2.885451316833496094e-01,1.583580970764160156e+00,3.053695391708682871e-01,0.000000000000000000e+00,1.120000000000000000e+02
0.000000000000000000e+00,1.000000000000000000e+00,0.000000000000000000e+00,5.600000000000000000e+01,1.626000000000000000e+04,3.294420242309570312e-01,2.053559064865112305e+00,7.252962003544193292e-01,0.000000000000000000e+00,1.120000000000000000e+02
0.000000000000000000e+00,1.000000000000000000e+00,0.000000000000000000e+00,5.900000000000000000e+01,1.631900000000000000e+04,3.153879642486572266e-01,1.724394083023071289e+00,4.167430324223717619e-01,0.000000000000000000e+00,1.120000000000000000e+02
1.000000000000000000e+00,1.000000000000000000e+00,1.000000000000000000e+00,5.600000000000000000e+01,1.637500000000000000e+04,2.550590038299560547e-01,1.876245021820068359e+00,6.261653426857483051e-01,0.000000000000000000e+00,1.120000000000000000e+02
0.000000000000000000e+00,1.000000000000000000e+00,0.000000000000000000e+00,5.700000000000000000e+01,1.643200000000000000e+04,3.325660228729248047e-01,1.758067846298217773e+00,4.345365259642935962e-01,0.000000000000000000e+00,1.120000000000000000e+02
0.000000000000000000e+00,1.000000000000000000e+00,0.000000000000000000e+00,5.300000000000000000e+01,1.648500000000000000e+04,3.439099788665771484e-01,1.629297018051147461e+00,2.807396120747940316e-01,0.000000000000000000e+00,1.120000000000000000e+02
0.000000000000000000e+00,0.000000000000000000e+00,1.000000000000000000e+00,4.900000000000000000e+01,1.653400000000000000e+04,2.952830791473388672e-01,1.845044851303100586e+00,5.589344977184192986e-01,1.000000000000000000e+00,1.110000000000000000e+02
0.000000000000000000e+00,1.000000000000000000e+00,0.000000000000000000e+00,5.600000000000000000e+01,1.659000000000000000e+04,4.785120487213134766e-01,2.082036018371582031e+00,6.076528621678014552e-01,0.000000000000000000e+00,1.110000000000000000e+02
1.000000000000000000e+00,1.000000000000000000e+00,1.000000000000000000e+00,5.600000000000000000e+01,1.664600000000000000e+04,2.762470245361328125e-01,1.662702083587646484e+00,4.039334053385765788e-01,0.000000000000000000e+00,1.110000000000000000e+02
1.000000000000000000e+00,1.000000000000000000e+00,1.000000000000000000e+00,5.900000000000000000e+01,1.670500000000000000e+04,3.645229339599609375e-01,1.939996004104614258e+00,5.771447154760341869e-01,0.000000000000000000e+00,1.110000000000000000e+02
0.000000000000000000e+00,1.000000000000000000e+00,0.000000000000000000e+00,5.900000000000000000e+01,1.676400000000000000e+04,3.412320613861083984e-01,1.935029983520507812e+00,6.122730469158570443e-01,0.000000000000000000e+00,1.110000000000000000e+02
1.000000000000000000e+00,1.000000000000000000e+00,1.000000000000000000e+00,6.100000000000000000e+01,1.682500000000000000e+04,3.269889354705810547e-01,1.806149959564208984e+00,5.019305622989681526e-01,0.000000000000000000e+00,1.110000000000000000e+02
1.000000000000000000e+00,1.000000000000000000e+00,1.000000000000000000e+00,5.400000000000000000e+01,1.687900000000000000e+04,2.563591003417968750e-01,1.763298988342285156e+00,5.153045038078173379e-01,0.000000000000000000e+00,1.110000000000000000e+02
0.000000000000000000e+00,1.000000000000000000e+00,0.000000000000000000e+00,5.600000000000000000e+01,1.693500000000000000e+04,3.237769603729248047e-01,2.038967847824096680e+00,7.208206374834089658e-01,0.000000000000000000e+00,1.110000000000000000e+02
1.000000000000000000e+00,1.000000000000000000e+00,1.000000000000000000e+00,5.100000000000000000e+01,1.698600000000000000e+04,2.795021533966064453e-01,1.632597208023071289e+00,3.538732845744076982e-01,0.000000000000000000e+00,1.110000000000000000e+02
0.000000000000000000e+00,1.000000000000000000e+00,0.000000000000000000e+00,5.700000000000000000e+01,1.704300000000000000e+04,2.532920837402343750e-01,1.750964879989624023e+00,5.047617938682489314e-01,0.000000000000000000e+00,1.110000000000000000e+02
1.000000000000000000e+00,1.000000000000000000e+00,1.000000000000000000e+00,5.400000000000000000e+01,1.709700000000000000e+04,2.522599697113037109e-01,1.783380031585693359e+00,5.381657470588137038e-01,0.000000000000000000e+00,1.110000000000000000e+02
1.000000000000000000e+00,1.000000000000000000e+00,1.000000000000000000e+00,5.500000000000000000e+01,1.715200000000000000e+04,2.440388202667236328e-01,1.612385034561157227e+00,3.841397090131226655e-01,0.000000000000000000e+00,1.110000000000000000e+02
0.000000000000000000e+00,1.000000000000000000e+00,0.000000000000000000e+00,5.300000000000000000e+01,1.720500000000000000e+04,3.814702033996582031e-01,1.861350774765014648e+00,4.787894382134883497e-01,0.000000000000000000e+00,1.110000000000000000e+02
1.000000000000000000e+00,1.000000000000000000e+00,1.000000000000000000e+00,5.500000000000000000e+01,1.726000000000000000e+04,2.695050239562988281e-01,1.549960136413574219e+00,2.956880977490283779e-01,0.000000000000000000e+00,1.110000000000000000e+02
0.000000000000000000e+00,1.000000000000000000e+00,0.000000000000000000e+00,5.200000000000000000e+01,1.731200000000000000e+04,2.615101337432861328e-01,1.872910976409912109e+00,6.183578598437162732e-01,0.000000000000000000e+00,1.110000000000000000e+02
1.000000000000000000e+00,1.000000000000000000e+00,1.000000000000000000e+00,6.400000000000000000e+01,1.737600000000000000e+04,2.092669010162353516e-01,1.675760984420776367e+00,4.776832142596599273e-01,0.000000000000000000e+00,1.110000000000000000e+02
1.000000000000000000e+00,1.000000000000000000e+00,1.000000000000000000e+00,5.100000000000000000e+01,1.742700000000000000e+04,3.726518154144287109e-01,1.645781993865966797e+00,2.903934124087015900e-01,0.000000000000000000e+00,1.110000000000000000e+02
0.000000000000000000e+00,1.000000000000000000e+00,0.000000000000000000e+00,5.200000000000000000e+01,1.747900000000000000e+04,3.077919483184814453e-01,1.783608913421630859e+00,4.905261886504799218e-01,0.000000000000000000e+00,1.110000000000000000e+02
0.000000000000000000e+00,1.000000000000000000e+00,0.000000000000000000e+00,6.100000000000000000e+01,1.754000000000000000e+04,3.235309123992919922e-01,1.938555002212524414e+00,6.290314138951287326e-01,0.000000000000000000e+00,1.110000000000000000e+02
1.000000000000000000e+00,1.000000000000000000e+00,1.000000000000000000e+00,5.600000000000000000e+01,1.759600000000000000e+04,2.932860851287841797e-01,1.801388978958129883e+00,5.306007076765201225e-01,0.000000000000000000e+00,1.110000000000000000e+02
0.000000000000000000e+00,1.000000000000000000e+00,0.000000000000000000e+00,5.200000000000000000e+01,1.764800000000000000e+04,3.212740421295166016e-01,1.854928016662597656e+00,5.522783787070451034e-01,0.000000000000000000e+00,1.110000000000000000e+02
0.000000000000000000e+00,1.000000000000000000e+00,0.000000000000000000e+00,5.700000000000000000e+01,1.770500000000000000e+04,2.546820640563964844e-01,1.639596939086914062e+00,3.921117935694580225e-01,0.000000000000000000e+00,1.110000000000000000e+02
0.000000000000000000e+00,1.000000000000000000e+00,0.000000000000000000e+00,5.500000000000000000e+01,1.776000000000000000e+04,2.833929061889648438e-01,1.875057935714721680e+00,6.003998541479698137e-01,0.000000000000000000e+00,1.110000000000000000e+02
1.000000000000000000e+00,1.000000000000000000e+00,1.000000000000000000e+00,5.500000000000000000e+01,1.781500000000000000e+04,2.171421051025390625e-01,1.936083078384399414e+00,7.197273700790932649e-01,0.000000000000000000e+00,1.110000000000000000e+02
1.000000000000000000e+00,1.000000000000000000e+00,1.000000000000000000e+00,5.600000000000000000e+01,1.787100000000000000e+04,3.308830261230468750e-01,1.899724960327148438e+00,5.697104616273254152e-01,0.000000000000000000e+00,1.110000000000000000e+02
0.000000000000000000e+00,1.000000000000000000e+00,0.000000000000000000e+00,5.400000000000000000e+01,1.792500000000000000e+04,3.129048347473144531e-01,1.956041812896728516e+00,6.424199230461113963e-01,0.000000000000000000e+00,1.110000000000000000e+02
1.000000000000000000e+00,1.000000000000000000e+00,1.000000000000000000e+00,5.200000000000000000e+01,1.797700000000000000e+04,3.669590950012207031e-01,1.995129823684692383e+00,6.376665274363085834e-01,0.000000000000000000e+00,1.110000000000000000e+02
0.000000000000000000e+00,1.000000000000000000e+00,0.000000000000000000e+00,5.600000000000000000e+01,1.803300000000000000e+04,3.280379772186279297e-01,1.773580074310302734e+00,4.615251499255291212e-01,0.000000000000000000e+00,1.110000000000000000e+02
1.000000000000000000e+00,1.000000000000000000e+00,1.000000000000000000e+00,6.400000000000000000e+01,1.809700000000000000e+04,3.114509582519531250e-01,1.728379011154174805e+00,4.399837371773385186e-01,0.000000000000000000e+00,1.110000000000000000e+02
1.000000000000000000e+00,1.000000000000000000e+00,1.000000000000000000e+00,5.600000000000000000e+01,1.815300000000000000e+04,2.972710132598876953e-01,1.950670957565307617e+00,6.570811928102284760e-01,0.000000000000000000e+00,1.110000000000000000e+02
0.000000000000000000e+00,1.000000000000000000e+00,0.000000000000000000e+00,5.000000000000000000e+01,1.820300000000000000e+04,5.282700061798095703e-01,1.930859088897705078e+00,4.050741311411025225e-01,0.000000000000000000e+00,1.110000000000000000e+02
1.000000000000000000e+00,1.000000000000000000e+00,1.000000000000000000e+00,5.200000000000000000e+01,1.825500000000000000e+04,2.939810752868652344e-01,1.897951126098632812e+00,6.029031433420030117e-01,0.000000000000000000e+00,1.110000000000000000e+02
1.000000000000000000e+00,1.000000000000000000e+00,1.000000000000000000e+00,5.200000000000000000e+01,1.830700000000000000e+04,2.920680046081542969e-01,1.962831020355224609e+00,6.823666219000574795e-01,0.000000000000000000e+00,1.110000000000000000e+02
0.000000000000000000e+00,1.000000000000000000e+00,0.000000000000000000e+00,5.300000000000000000e+01,1.836000000000000000e+04,2.925958633422851562e-01,1.986677885055541992e+00,7.024408046968719788e-01,0.000000000000000000e+00,1.110000000000000000e+02
0.000000000000000000e+00,1.000000000000000000e+00,0.000000000000000000e+00,5.000000000000000000e+01,1.841000000000000000e+04,4.882149696350097656e-01,2.162520885467529297e+00,6.818118519859697191e-01,0.000000000000000000e+00,1.110000000000000000e+02
0.000000000000000000e+00,1.000000000000000000e+00,0.000000000000000000e+00,5.900000000000000000e+01,1.846900000000000000e+04,2.922751903533935547e-01,1.537127017974853516e+00,2.694130118365614113e-01,0.000000000000000000e+00,1.110000000000000000e+02
0.000000000000000000e+00,1.000000000000000000e+00,0.000000000000000000e+00,5.300000000000000000e+01,1.852200000000000000e+04,3.333721160888671875e-01,1.739753007888793945e+00,4.090841708185607994e-01,0.000000000000000000e+00,1.110000000000000000e+02
0.000000000000000000e+00,1.000000000000000000e+00,0.000000000000000000e+00,5.300000000000000000e+01,1.857500000000000000e+04,3.230788707733154297e-01,1.559745073318481445e+00,2.524178676769337493e-01,0.000000000000000000e+00,1.110000000000000000e+02
1.000000000000000000e+00,1.000000000000000000e+00,1.000000000000000000e+00,5.400000000000000000e+01,1.862900000000000000e+04,3.594198226928710938e-01,1.709522008895874023e+00,3.618856075801690775e-01,0.000000000000000000e+00,1.110000000000000000e+02
1.000000000000000000e+00,1.000000000000000000e+00,1.000000000000000000e+00,5.300000000000000000e+01,1.868200000000000000e+04,2.734639644622802734e-01,1.935696125030517578e+00,6.806687789317931170e-01,0.000000000000000000e+00,1.110000000000000000e+02
1.000000000000000000e+00,1.000000000000000000e+00,1.000000000000000000e+00,5.300000000000000000e+01,1.873500000000000000e+04,2.942340373992919922e-01,1.919364929199218750e+00,6.501841078252732498e-01,0.000000000000000000e+00,1.110000000000000000e+02
1.000000000000000000e+00,1.000000000000000000e+00,1.000000000000000000e+00,5.700000000000000000e+01,1.879200000000000000e+04,3.234610557556152344e-01,1.789304971694946289e+00,4.564288512961640620e-01,0.000000000000000000e+00,1.110000000000000000e+02
0.000000000000000000e+00,1.000000000000000000e+00,0.000000000000000000e+00,5.500000000000000000e+01,1.884700000000000000e+04,4.068341255187988281e-01,1.957465171813964844e+00,5.638452161152756048e-01,0.000000000000000000e+00,1.110000000000000000e+02
1.000000000000000000e+00,1.000000000000000000e+00,1.000000000000000000e+00,5.600000000000000000e+01,1.890300000000000000e+04,3.428120613098144531e-01,1.836252927780151367e+00,5.168981608435747610e-01,0.000000000000000000e+00,1.110000000000000000e+02
0.000000000000000000e+00,1.000000000000000000e+00,0.000000000000000000e+00,5.100000000000000000e+01,1.895400000000000000e+04,3.518691062927246094e-01,2.081761121749877930e+00,7.317964387640474300e-01,0.000000000000000000e+00,1.110000000000000000e+02
0.000000000000000000e+00,1.000000000000000000e+00,0.000000000000000000e+00,5.100000000000000000e+01,1.900500000000000000e+04,2.925848960876464844e-01,1.852691888809204102e+00,5.681358574640029691e-01,0.000000000000000000e+00,1.110000000000000000e+02
0.000000000000000000e+00,1.000000000000000000e+00,0.000000000000000000e+00,5.100000000000000000e+01,1.905600000000000000e+04,3.235931396484375000e-01,1.729805946350097656e+00,4.148112094344422740e-01,0.000000000000000000e+00,1.110000000000000000e+02
1.000000000000000000e+00,1.000000000000000000e+00,1.000000000000000000e+00,5.600000000000000000e+01,1.911200000000000000e+04,3.249709606170654297e-01,1.901320934295654297e+00,5.993666431277152595e-01,0.000000000000000000e+00,1.110000000000000000e+02
1.000000000000000000e+00,1.000000000000000000e+00,1.000000000000000000e+00,5.000000000000000000e+01,1.916200000000000000e+04,3.033730983734130859e-01,1.677672147750854492e+00,3.773487243029318150e-01,0.000000000000000000e+00,1.110000000000000000e+02
1.000000000000000000e+00,1.000000000000000000e+00,1.000000000000000000e+00,5.200000000000000000e+01,1.921400000000000000e+04,3.587720394134521484e-01,1.943422079086303711e+00,6.039497652356506929e-01,0.000000000000000000e+00,1.110000000000000000e+02
0.000000000000000000e+00,1.000000000000000000e+00,0.000000000000000000e+00,5.200000000000000000e+01,1.926600000000000000e+04,2.939271926879882812e-01,1.978865861892700195e+00,6.995180843228023804e-01,0.000000000000000000e+00,1.110000000000000000e+02
0.000000000000000000e+00,1.000000000000000000e+00,0.000000000000000000e+00,5.600000000000000000e+01,1.932200000000000000e+04,2.736399173736572266e-01,1.838791131973266602e+00,5.718207028549910920e-01,0.000000000000000000e+00,1.110000000000000000e+02
0.000000000000000000e+00,1.000000000000000000e+00,0.000000000000000000e+00,5.500000000000000000e+01,1.937700000000000000e+04,3.103029727935791016e-01,1.716454982757568359e+00,4.218621568240347730e-01,0.000000000000000000e+00,1.110000000000000000e+02
1.000000000000000000e+00,1.000000000000000000e+00,1.000000000000000000e+00,5.500000000000000000e+01,1.943200000000000000e+04,2.897400856018066406e-01,1.897861957550048828e+00,6.195782963430077617e-01,0.000000000000000000e+00,1.110000000000000000e+02
1.000000000000000000e+00,1.000000000000000000e+00,1.000000000000000000e+00,5.600000000000000000e+01,1.948800000000000000e+04,3.367648124694824219e-01,1.608319044113159180e+00,2.783711074580733080e-01,0.000000000000000000e+00,1.110000000000000000e+02
1.000000000000000000e+00,1.000000000000000000e+00,1.000000000000000000e+00,5.600000000000000000e+01,1.954400000000000000e+04,3.218579292297363281e-01,1.649197101593017578e+00,3.441876709133803725e-01,0.000000000000000000e+00,1.110000000000000000e+02
0.000000000000000000e+00,1.000000000000000000e+00,0.000000000000000000e+00,5.500000000000000000e+01,1.959900000000000000e+04,2.759158611297607422e-01,1.992578029632568359e+00,7.364511969543061642e-01,0.000000000000000000e+00,1.110000000000000000e+02
1.000000000000000000e+00,1.000000000000000000e+00,1.000000000000000000e+00,5.600000000000000000e+01,1.965500000000000000e+04,3.210079669952392578e-01,1.618846893310546875e+00,3.058238453374814703e-01,0.000000000000000000e+00,1.110000000000000000e+02
0.000000000000000000e+00,1.000000000000000000e+00,0.000000000000000000e+00,5.200000000000000000e+01,1.970700000000000000e+04,3.374171257019042969e-01,1.769466876983642578e+00,4.418734044941304839e-01,0.000000000000000000e+00,1.110000000000000000e+02
0.000000000000000000e+00,1.000000000000000000e+00,0.000000000000000000e+00,5.400000000000000000e+01,1.976100000000000000e+04,3.157730102539062500e-01,1.752227067947387695e+00,4.441917049777313053e-01,0.000000000000000000e+00,1.110000000000000000e+02
0.000000000000000000e+00,1.000000000000000000e+00,0.000000000000000000e+00,5.600000000000000000e+01,1.981700000000000000e+04,3.547871112823486328e-01,1.616451978683471680e+00,2.775593241768231079e-01,0.000000000000000000e+00,1.110000000000000000e+02
1.000000000000000000e+00,1.000000000000000000e+00,1.000000000000000000e+00,5.000000000000000000e+01,1.986700000000000000e+04,3.542089462280273438e-01,1.610144138336181641e+00,2.711369937286371434e-01,0.000000000000000000e+00,1.110000000000000000e+02
0.000000000000000000e+00,1.000000000000000000e+00,0.000000000000000000e+00,5.400000000000000000e+01,1.992100000000000000e+04,3.074979782104492188e-01,2.020785093307495117e+00,7.248834309450226110e-01,0.000000000000000000e+00,1.110000000000000000e+02
1.000000000000000000e+00,1.000000000000000000e+00,1.000000000000000000e+00,5.100000000000000000e+01,1.997200000000000000e+04,2.959628105163574219e-01,2.006410837173461914e+00,7.146899019308695644e-01,0.000000000000000000e+00,1.110000000000000000e+02
1.000000000000000000e+00,1.000000000000000000e+00,1.000000000000000000e+00,5.400000000000000000e+01,2.002600000000000000e+04,3.490178585052490234e-01,1.784612178802490234e+00,4.496611462352147481e-01,0.000000000000000000e+00,1.110000000000000000e+02
1.000000000000000000e+00,1.000000000000000000e+00,1.000000000000000000e+00,5.600000000000000000e+01,2.008200000000000000e+04,3.771522045135498047e-01,1.864155054092407227e+00,4.805354283897609324e-01,0.000000000000000000e+00,1.110000000000000000e+02
0.000000000000000000e+00,1.000000000000000000e+00,0.000000000000000000e+00,5.500000000000000000e+01,2.013700000000000000e+04,2.722311019897460938e-01,1.859284877777099609e+00,6.064284440295952816e-01,0.000000000000000000e+00,1.110000000000000000e+02
0.000000000000000000e+00,1.000000000000000000e+00,0.000000000000000000e+00,5.200000000000000000e+01,2.018900000000000000e+04,3.426039218902587891e-01,1.871673107147216797e+00,5.449423831868807078e-01,0.000000000000000000e+00,1.110000000000000000e+02
1.000000000000000000e+00,1.000000000000000000e+00,1.000000000000000000e+00,5.600000000000000000e+01,2.024500000000000000e+04,2.629930973052978516e-01,1.779388904571533203e+00,5.244303287653580004e-01,0.000000000000000000e+00,1.110000000000000000e+02
1.000000000000000000e+00,1.000000000000000000e+00,1.000000000000000000e+00,5.000000000000000000e+01,2.029500000000000000e+04,3.136899471282958984e-01,1.793838977813720703e+00,4.850348908971723327e-01,0.000000000000000000e+00,1.110000000000000000e+02
0.000000000000000000e+00,1.000000000000000000e+00,0.000000000000000000e+00,5.200000000000000000e+01,2.034700000000000000e+04,3.178019523620605469e-01,2.061203002929687500e+00,7.460655647942252555e-01,0.000000000000000000e+00,1.110000000000000000e+02
1.000000000000000000e+00,1.000000000000000000e+00,1.000000000000000000e+00,5.700000000000000000e+01,2.040400000000000000e+04,2.297949790954589844e-01,1.800591945648193359e+00,5.802197022243799074e-01,0.000000000000000000e+00,1.110000000000000000e+02
0.000000000000000000e+00,1.000000000000000000e+00,0.000000000000000000e+00,5.600000000000000000e+01,2.046000000000000000e+04,3.268601894378662109e-01,1.601516962051391602e+00,2.821377109487086532e-01,0.000000000000000000e+00,1.110000000000000000e+02
0.000000000000000000e+00,1.000000000000000000e+00,0.000000000000000000e+00,5.600000000000000000e+01,2.051600000000000000e+04,2.929999828338623047e-01,1.715826034545898438e+00,4.478342079412265253e-01,0.000000000000000000e+00,1.110000000000000000e+02
1.000000000000000000e+00,1.000000000000000000e+00,1.000000000000000000e+00,5.700000000000000000e+01,2.057300000000000000e+04,3.213760852813720703e-01,1.820647001266479492e+00,5.185312458735304997e-01,0.000000000000000000e+00,1.110000000000000000e+02
1.000000000000000000e+00,1.000000000000000000e+00,1.000000000000000000e+00,5.100000000000000000e+01,2.062400000000000000e+04,2.880010604858398438e-01,1.558748960494995117e+00,2.776152386944455430e-01,0.000000000000000000e+00,1.110000000000000000e+02
0.000000000000000000e+00,1.000000000000000000e+00,0.000000000000000000e+00,5.300000000000000000e+01,2.067700000000000000e+04,3.081009387969970703e-01,2.031322956085205078e+00,7.418511403895597933e-01,0.000000000000000000e+00,1.110000000000000000e+02
0.000000000000000000e+00,1.000000000000000000e+00,0.000000000000000000e+00,5.400000000000000000e+01,2.073100000000000000e+04,2.387788295745849609e-01,1.789500951766967773e+00,5.649271395948749497e-01,0.000000000000000000e+00,1.110000000000000000e+02
0.000000000000000000e+00,1.000000000000000000e+00,0.000000000000000000e+00,5.600000000000000000e+01,2.078700000000000000e+04,3.705289363861083984e-01,1.931818008422851562e+00,5.801787759683955104e-01,0.000000000000000000e+00,1.110000000000000000e+02
0.000000000000000000e+00,1.000000000000000000e+00,0.000000000000000000e+00,6.000000000000000000e+01,2.084700000000000000e+04,3.103280067443847656e-01,1.775480985641479492e+00,4.725029926522460455e-01,0.000000000000000000e+00,1.110000000000000000e+02
1.000000000000000000e+00,1.000000000000000000e+00,1.000000000000000000e+00,5.500000000000000000e+01,2.090200000000000000e+04,3.330731391906738281e-01,1.624991178512573242e+00,2.977636118023799239e-01,0.000000000000000000e+00,1.110000000000000000e+02
0.000000000000000000e+00,1.000000000000000000e+00,0.000000000000000000e+00,5.600000000000000000e+01,2.095800000000000000e+04,3.203749656677246094e-01,2.034313917160034180e+00,7.317131630345008464e-01,0.000000000000000000e+00,1.110000000000000000e+02
0.000000000000000000e+00,1.000000000000000000e+00,0.000000000000000000e+00,5.600000000000000000e+01,2.101400000000000000e+04,3.621301651000976562e-01,1.959933042526245117e+00,6.085494097664256863e-01,0.000000000000000000e+00,1.110000000000000000e+02
0.000000000000000000e+00,1.000000000000000000e+00,0.000000000000000000e+00,5.300000000000000000e+01,2.106700000000000000e+04,2.486550807952880859e-01,1.546064138412475586e+00,3.049842999968178092e-01,0.000000000000000000e+00,1.110000000000000000e+02
0.000000000000000000e+00,1.000000000000000000e+00,0.000000000000000000e+00,5.200000000000000000e+01,2.111900000000000000e+04,2.996690273284912109e-01,2.036161899566650391e+00,7.407932812093414032e-01,0.000000000000000000e+00,1.110000000000000000e+02
0.000000000000000000e+00,1.000000000000000000e+00,0.000000000000000000e+00,6.000000000000000000e+01,2.117900000000000000e+04,2.993519306182861328e-01,1.924607038497924805e+00,6.322551046927521456e-01,0.000000000000000000e+00,1.110000000000000000e+02
1.000000000000000000e+00,1.000000000000000000e+00,1.000000000000000000e+00,5.400000000000000000e+01,2.123300000000000000e+04,3.220570087432861328e-01,1.740110874176025391e+00,4.226723330154599223e-01,0.000000000000000000e+00,1.110000000000000000e+02
0.000000000000000000e+00,1.000000000000000000e+00,0.000000000000000000e+00,5.400000000000000000e+01,2.128700000000000000e+04,2.748649120330810547e-01,1.545585870742797852e+00,2.851321724499636945e-01,0.000000000000000000e+00,1.110000000000000000e+02
1.000000000000000000e+00,1.000000000000000000e+00,1.000000000000000000e+00,6.000000000000000000e+01,2.134700000000000000e+04,3.079168796539306641e-01,1.927096128463745117e+00,6.286105989421528761e-01,0.000000000000000000e+00,1.110000000000000000e+02
1.000000000000000000e+00,1.000000000000000000e+00,1.000000000000000000e+00,5.600000000000000000e+01,2.140300000000000000e+04,3.893280029296875000e-01,1.761337041854858398e+00,3.903281716308805716e-01,0.000000000000000000e+00,1.110000000000000000e+02
1.000000000000000000e+00,1.000000000000000000e+00,1.000000000000000000e+00,5.200000000000000000e+01,2.145500000000000000e+04,3.225920200347900391e-01,1.953633069992065430e+00,6.437232403243740020e-01,0.000000000000000000e+00,1.110000000000000000e+02
1.000000000000000000e+00,1.000000000000000000e+00,1.000000000000000000e+00,5.400000000000000000e+01,2.150900000000000000e+04,2.947940826416015625e-01,1.571146965026855469e+00,2.820044362007270711e-01,0.000000000000000000e+00,1.110000000000000000e+02
1.000000000000000000e+00,1.000000000000000000e+00,1.000000000000000000e+00,5.700000000000000000e+01,2.156600000000000000e+04,3.231818675994873047e-01,1.892228126525878906e+00,5.906783668152975064e-01,0.000000000000000000e+00,1.110000000000000000e+02
1.000000000000000000e+00,1.000000000000000000e+00,1.000000000000000000e+00,5.500000000000000000e+01,2.162100000000000000e+04,2.682108879089355469e-01,1.573702812194824219e+00,3.147531019681563125e-01,0.000000000000000000e+00,1.110000000000000000e+02
0.000000000000000000e+00,1.000000000000000000e+00,0.000000000000000000e+00,5.600000000000000000e+01,2.167700000000000000e+04,3.405928611755371094e-01,1.668843984603881836e+00,3.502759128535727351e-01,0.000000000000000000e+00,1.110000000000000000e+02
1.000000000000000000e+00,1.000000000000000000e+00,1.000000000000000000e+00,5.400000000000000000e+01,2.173100000000000000e+04,2.963590621948242188e-01,1.983341932296752930e+00,6.834355401443907851e-01,0.000000000000000000e+00,1.110000000000000000e+02
0.000000000000000000e+00,1.000000000000000000e+00,0.000000000000000000e+00,5.200000000000000000e+01,2.178300000000000000e+04,4.049911499023437500e-01,2.043915987014770508e+00,6.440357787589843230e-01,0.000000000000000000e+00,1.110000000000000000e+02
0.000000000000000000e+00,1.000000000000000000e+00,0.000000000000000000e+00,5.500000000000000000e+01,2.183800000000000000e+04,4.307560920715332031e-01,2.022609949111938477e+00,6.001349783747287336e-01,0.000000000000000000e+00,1.110000000000000000e+02
0.000000000000000000e+00,1.000000000000000000e+00,0.000000000000000000e+00,5.100000000000000000e+01,2.188900000000000000e+04,3.284499645233154297e-01,2.080562829971313477e+00,7.472992212261538869e-01,0.000000000000000000e+00,1.110000000000000000e+02
0.000000000000000000e+00,1.000000000000000000e+00,0.000000000000000000e+00,5.400000000000000000e+01,2.194300000000000000e+04,3.788809776306152344e-01,1.978888034820556641e+00,6.097538904556575323e-01,0.000000000000000000e+00,1.110000000000000000e+02
0.000000000000000000e+00,1.000000000000000000e+00,0.000000000000000000e+00,5.400000000000000000e+01,2.199700000000000000e+04,2.796270847320556641e-01,1.602025032043457031e+00,3.288325246934015178e-01,0.000000000000000000e+00,1.110000000000000000e+02
