choice, accuracy, solution,  reward, cumulative_reward, rt,  total_trial_time, iti, cp_with_slow_fast, high_val_cue
0.000000000000000000e+00,0.000000000000000000e+00,1.000000000000000000e+00,4.400000000000000000e+01,4.400000000000000000e+01,7.119190692901611328e-01,2.093765020370483398e+00,3.786880817757430906e-01,0.000000000000000000e+00,1.120000000000000000e+02
1.000000000000000000e+00,1.000000000000000000e+00,1.000000000000000000e+00,5.900000000000000000e+01,1.030000000000000000e+02,4.437730312347412109e-01,2.104200124740600586e+00,6.826573936839499535e-01,0.000000000000000000e+00,1.120000000000000000e+02
0.000000000000000000e+00,1.000000000000000000e+00,0.000000000000000000e+00,5.600000000000000000e+01,1.590000000000000000e+02,2.711348533630371094e-01,1.737173080444335938e+00,4.701244060208327191e-01,0.000000000000000000e+00,1.120000000000000000e+02
0.000000000000000000e+00,1.000000000000000000e+00,0.000000000000000000e+00,6.000000000000000000e+01,2.190000000000000000e+02,3.418588638305664062e-01,1.844436883926391602e+00,5.145824244280190474e-01,0.000000000000000000e+00,1.120000000000000000e+02
1.000000000000000000e+00,1.000000000000000000e+00,1.000000000000000000e+00,5.600000000000000000e+01,2.750000000000000000e+02,3.085279464721679688e-01,1.755700111389160156e+00,4.703950637198560103e-01,0.000000000000000000e+00,1.120000000000000000e+02
1.000000000000000000e+00,1.000000000000000000e+00,1.000000000000000000e+00,5.900000000000000000e+01,3.340000000000000000e+02,3.529720306396484375e-01,1.855165958404541016e+00,5.089134428001560462e-01,0.000000000000000000e+00,1.120000000000000000e+02
1.000000000000000000e+00,1.000000000000000000e+00,1.000000000000000000e+00,5.600000000000000000e+01,3.900000000000000000e+02,2.690131664276123047e-01,1.991172075271606445e+00,7.329415040269608994e-01,0.000000000000000000e+00,1.120000000000000000e+02
0.000000000000000000e+00,1.000000000000000000e+00,0.000000000000000000e+00,5.600000000000000000e+01,4.460000000000000000e+02,2.927520275115966797e-01,1.724478960037231445e+00,4.244492715931908466e-01,0.000000000000000000e+00,1.120000000000000000e+02
0.000000000000000000e+00,1.000000000000000000e+00,0.000000000000000000e+00,5.600000000000000000e+01,5.020000000000000000e+02,4.936339855194091797e-01,1.864598989486694336e+00,3.711710564548483804e-01,0.000000000000000000e+00,1.120000000000000000e+02
0.000000000000000000e+00,1.000000000000000000e+00,0.000000000000000000e+00,5.600000000000000000e+01,5.580000000000000000e+02,4.283339977264404297e-01,1.760171890258789062e+00,3.313296886085675408e-01,0.000000000000000000e+00,1.120000000000000000e+02
1.000000000000000000e+00,1.000000000000000000e+00,1.000000000000000000e+00,0.000000000000000000e+00,5.580000000000000000e+02,7.316398620605468750e-02,5.553225040435791016e+00,3.514384951439685212e-01,-2.000000000000000000e+00,1.120000000000000000e+02
1.000000000000000000e+00,1.000000000000000000e+00,1.000000000000000000e+00,6.000000000000000000e+01,6.180000000000000000e+02,3.485629558563232422e-01,1.914071798324584961e+00,5.653156138661870056e-01,0.000000000000000000e+00,1.120000000000000000e+02
1.000000000000000000e+00,1.000000000000000000e+00,1.000000000000000000e+00,5.900000000000000000e+01,6.770000000000000000e+02,3.980340957641601562e-01,1.747313976287841797e+00,3.462906935188286295e-01,0.000000000000000000e+00,1.120000000000000000e+02
0.000000000000000000e+00,1.000000000000000000e+00,0.000000000000000000e+00,5.600000000000000000e+01,7.330000000000000000e+02,3.678011894226074219e-01,1.752957820892333984e+00,3.992747287540170942e-01,0.000000000000000000e+00,1.120000000000000000e+02
0.000000000000000000e+00,1.000000000000000000e+00,0.000000000000000000e+00,5.700000000000000000e+01,7.900000000000000000e+02,3.392360210418701172e-01,1.728949069976806641e+00,3.949605187582808097e-01,0.000000000000000000e+00,1.120000000000000000e+02
0.000000000000000000e+00,1.000000000000000000e+00,0.000000000000000000e+00,5.500000000000000000e+01,8.450000000000000000e+02,3.005690574645996094e-01,1.824326038360595703e+00,5.358654692560530508e-01,0.000000000000000000e+00,1.120000000000000000e+02
1.000000000000000000e+00,1.000000000000000000e+00,1.000000000000000000e+00,5.700000000000000000e+01,9.020000000000000000e+02,2.872750759124755859e-01,1.850790023803710938e+00,5.700275295017983579e-01,0.000000000000000000e+00,1.120000000000000000e+02
0.000000000000000000e+00,1.000000000000000000e+00,0.000000000000000000e+00,5.900000000000000000e+01,9.610000000000000000e+02,2.773520946502685547e-01,1.674762010574340820e+00,3.950563861722713455e-01,0.000000000000000000e+00,1.120000000000000000e+02
1.000000000000000000e+00,1.000000000000000000e+00,1.000000000000000000e+00,5.700000000000000000e+01,1.018000000000000000e+03,3.217639923095703125e-01,1.834946155548095703e+00,5.299285338245043331e-01,0.000000000000000000e+00,1.120000000000000000e+02
1.000000000000000000e+00,1.000000000000000000e+00,1.000000000000000000e+00,6.000000000000000000e+01,1.078000000000000000e+03,3.275480270385742188e-01,1.649727821350097656e+00,3.299648394043806499e-01,0.000000000000000000e+00,1.120000000000000000e+02
1.000000000000000000e+00,1.000000000000000000e+00,1.000000000000000000e+00,5.900000000000000000e+01,1.137000000000000000e+03,3.334429264068603516e-01,1.868561029434204102e+00,5.483435827337672652e-01,0.000000000000000000e+00,1.120000000000000000e+02
1.000000000000000000e+00,1.000000000000000000e+00,1.000000000000000000e+00,5.700000000000000000e+01,1.194000000000000000e+03,2.991888523101806641e-01,1.600439786911010742e+00,2.991221658825861662e-01,0.000000000000000000e+00,1.120000000000000000e+02
0.000000000000000000e+00,1.000000000000000000e+00,0.000000000000000000e+00,5.700000000000000000e+01,1.251000000000000000e+03,3.482990264892578125e-01,1.924625873565673828e+00,5.735404701359578805e-01,0.000000000000000000e+00,1.120000000000000000e+02
1.000000000000000000e+00,1.000000000000000000e+00,1.000000000000000000e+00,5.600000000000000000e+01,1.307000000000000000e+03,3.037211894989013672e-01,1.975517034530639648e+00,6.823644231367571589e-01,0.000000000000000000e+00,1.120000000000000000e+02
0.000000000000000000e+00,1.000000000000000000e+00,0.000000000000000000e+00,5.600000000000000000e+01,1.363000000000000000e+03,3.353559970855712891e-01,1.896476030349731445e+00,5.623910614642588790e-01,0.000000000000000000e+00,1.120000000000000000e+02
1.000000000000000000e+00,1.000000000000000000e+00,1.000000000000000000e+00,5.700000000000000000e+01,1.420000000000000000e+03,2.931630611419677734e-01,1.858568191528320312e+00,5.710084954210585817e-01,0.000000000000000000e+00,1.120000000000000000e+02
1.000000000000000000e+00,1.000000000000000000e+00,1.000000000000000000e+00,5.900000000000000000e+01,1.479000000000000000e+03,4.056050777435302734e-01,1.788424968719482422e+00,3.930109104746800641e-01,0.000000000000000000e+00,1.120000000000000000e+02
1.000000000000000000e+00,1.000000000000000000e+00,1.000000000000000000e+00,6.400000000000000000e+01,1.543000000000000000e+03,3.893640041351318359e-01,2.084821939468383789e+00,7.108949327549295427e-01,0.000000000000000000e+00,1.120000000000000000e+02
0.000000000000000000e+00,1.000000000000000000e+00,0.000000000000000000e+00,5.900000000000000000e+01,1.602000000000000000e+03,3.601198196411132812e-01,2.094580173492431641e+00,7.388844478217730938e-01,0.000000000000000000e+00,1.120000000000000000e+02
0.000000000000000000e+00,1.000000000000000000e+00,0.000000000000000000e+00,6.200000000000000000e+01,1.664000000000000000e+03,3.241171836853027344e-01,2.000015974044799805e+00,6.890479465342076448e-01,0.000000000000000000e+00,1.120000000000000000e+02
0.000000000000000000e+00,1.000000000000000000e+00,0.000000000000000000e+00,5.400000000000000000e+01,1.718000000000000000e+03,3.412520885467529297e-01,1.695647954940795898e+00,3.684178046174539367e-01,0.000000000000000000e+00,1.120000000000000000e+02
0.000000000000000000e+00,1.000000000000000000e+00,0.000000000000000000e+00,6.100000000000000000e+01,1.779000000000000000e+03,3.342578411102294922e-01,1.968311071395874023e+00,6.365590839317500915e-01,0.000000000000000000e+00,1.120000000000000000e+02
0.000000000000000000e+00,1.000000000000000000e+00,0.000000000000000000e+00,5.600000000000000000e+01,1.835000000000000000e+03,3.166050910949707031e-01,1.821170091629028320e+00,5.079208846631766416e-01,0.000000000000000000e+00,1.120000000000000000e+02
1.000000000000000000e+00,1.000000000000000000e+00,1.000000000000000000e+00,5.600000000000000000e+01,1.891000000000000000e+03,3.190479278564453125e-01,1.825046062469482422e+00,5.163874892773612224e-01,0.000000000000000000e+00,1.120000000000000000e+02
0.000000000000000000e+00,1.000000000000000000e+00,0.000000000000000000e+00,5.600000000000000000e+01,1.947000000000000000e+03,2.777819633483886719e-01,1.638892889022827148e+00,3.554993292873328548e-01,0.000000000000000000e+00,1.120000000000000000e+02
0.000000000000000000e+00,1.000000000000000000e+00,0.000000000000000000e+00,6.000000000000000000e+01,2.007000000000000000e+03,3.655130863189697266e-01,2.014754772186279297e+00,6.533386038580496491e-01,0.000000000000000000e+00,1.120000000000000000e+02
0.000000000000000000e+00,1.000000000000000000e+00,0.000000000000000000e+00,5.300000000000000000e+01,2.060000000000000000e+03,3.078730106353759766e-01,1.870162010192871094e+00,5.736443870524945421e-01,0.000000000000000000e+00,1.120000000000000000e+02
1.000000000000000000e+00,1.000000000000000000e+00,1.000000000000000000e+00,6.000000000000000000e+01,2.120000000000000000e+03,3.332841396331787109e-01,1.863564968109130859e+00,5.373533582712337608e-01,0.000000000000000000e+00,1.120000000000000000e+02
0.000000000000000000e+00,1.000000000000000000e+00,0.000000000000000000e+00,6.000000000000000000e+01,2.180000000000000000e+03,2.836518287658691406e-01,1.545069932937622070e+00,2.660840066412361593e-01,0.000000000000000000e+00,1.120000000000000000e+02
0.000000000000000000e+00,1.000000000000000000e+00,0.000000000000000000e+00,5.600000000000000000e+01,2.236000000000000000e+03,3.276739120483398438e-01,1.609136819839477539e+00,2.752970681567655231e-01,0.000000000000000000e+00,1.120000000000000000e+02
0.000000000000000000e+00,1.000000000000000000e+00,0.000000000000000000e+00,5.700000000000000000e+01,2.293000000000000000e+03,3.297579288482666016e-01,1.741168022155761719e+00,4.164027742785569308e-01,0.000000000000000000e+00,1.120000000000000000e+02
1.000000000000000000e+00,1.000000000000000000e+00,1.000000000000000000e+00,5.400000000000000000e+01,2.347000000000000000e+03,3.128139972686767578e-01,1.716254234313964844e+00,3.993993733589854545e-01,0.000000000000000000e+00,1.120000000000000000e+02
0.000000000000000000e+00,1.000000000000000000e+00,0.000000000000000000e+00,5.500000000000000000e+01,2.402000000000000000e+03,3.711919784545898438e-01,1.839866876602172852e+00,4.725676045701474592e-01,0.000000000000000000e+00,1.120000000000000000e+02
0.000000000000000000e+00,1.000000000000000000e+00,0.000000000000000000e+00,5.700000000000000000e+01,2.459000000000000000e+03,3.399789333343505859e-01,2.053479909896850586e+00,7.258776972280394091e-01,0.000000000000000000e+00,1.120000000000000000e+02
1.000000000000000000e+00,1.000000000000000000e+00,1.000000000000000000e+00,6.100000000000000000e+01,2.520000000000000000e+03,3.000380992889404297e-01,1.700217962265014648e+00,4.098348726550867793e-01,0.000000000000000000e+00,1.120000000000000000e+02
1.000000000000000000e+00,1.000000000000000000e+00,1.000000000000000000e+00,6.100000000000000000e+01,2.581000000000000000e+03,4.081180095672607422e-01,1.797654867172241211e+00,4.075641018127940662e-01,0.000000000000000000e+00,1.120000000000000000e+02
0.000000000000000000e+00,1.000000000000000000e+00,0.000000000000000000e+00,5.600000000000000000e+01,2.637000000000000000e+03,3.302710056304931641e-01,1.989849805831909180e+00,6.638850688681756651e-01,0.000000000000000000e+00,1.120000000000000000e+02
0.000000000000000000e+00,1.000000000000000000e+00,0.000000000000000000e+00,5.900000000000000000e+01,2.696000000000000000e+03,3.081700801849365234e-01,1.625787973403930664e+00,3.234127315820964355e-01,0.000000000000000000e+00,1.120000000000000000e+02
0.000000000000000000e+00,1.000000000000000000e+00,0.000000000000000000e+00,6.100000000000000000e+01,2.757000000000000000e+03,3.005888462066650391e-01,1.691418886184692383e+00,3.981843136421307494e-01,0.000000000000000000e+00,1.120000000000000000e+02
0.000000000000000000e+00,1.000000000000000000e+00,0.000000000000000000e+00,5.700000000000000000e+01,2.814000000000000000e+03,2.986750602722167969e-01,1.942523956298828125e+00,6.405506958696345343e-01,0.000000000000000000e+00,1.120000000000000000e+02
0.000000000000000000e+00,1.000000000000000000e+00,0.000000000000000000e+00,5.900000000000000000e+01,2.873000000000000000e+03,2.833588123321533203e-01,1.928997039794921875e+00,6.529632462595049702e-01,0.000000000000000000e+00,1.120000000000000000e+02
0.000000000000000000e+00,1.000000000000000000e+00,0.000000000000000000e+00,5.900000000000000000e+01,2.932000000000000000e+03,3.121449947357177734e-01,1.949373006820678711e+00,6.357316015900564832e-01,0.000000000000000000e+00,1.120000000000000000e+02
1.000000000000000000e+00,1.000000000000000000e+00,1.000000000000000000e+00,5.700000000000000000e+01,2.989000000000000000e+03,3.171770572662353516e-01,2.038758039474487305e+00,7.244579386926804920e-01,0.000000000000000000e+00,1.120000000000000000e+02
1.000000000000000000e+00,1.000000000000000000e+00,1.000000000000000000e+00,6.200000000000000000e+01,3.051000000000000000e+03,2.899589538574218750e-01,1.639513969421386719e+00,3.644421738258858401e-01,0.000000000000000000e+00,1.120000000000000000e+02
0.000000000000000000e+00,1.000000000000000000e+00,0.000000000000000000e+00,6.700000000000000000e+01,3.118000000000000000e+03,3.889718055725097656e-01,1.928421020507812500e+00,5.427358753818329884e-01,0.000000000000000000e+00,1.120000000000000000e+02
1.000000000000000000e+00,1.000000000000000000e+00,1.000000000000000000e+00,5.600000000000000000e+01,3.174000000000000000e+03,3.293399810791015625e-01,1.589343070983886719e+00,2.657701585860472449e-01,0.000000000000000000e+00,1.120000000000000000e+02
1.000000000000000000e+00,1.000000000000000000e+00,1.000000000000000000e+00,6.200000000000000000e+01,3.236000000000000000e+03,3.901019096374511719e-01,1.798835992813110352e+00,4.145220539778713409e-01,0.000000000000000000e+00,1.120000000000000000e+02
1.000000000000000000e+00,1.000000000000000000e+00,1.000000000000000000e+00,5.900000000000000000e+01,3.295000000000000000e+03,2.724738121032714844e-01,1.751928091049194336e+00,4.831156957616533631e-01,0.000000000000000000e+00,1.120000000000000000e+02
0.000000000000000000e+00,1.000000000000000000e+00,0.000000000000000000e+00,6.100000000000000000e+01,3.356000000000000000e+03,3.795509338378906250e-01,1.749147176742553711e+00,3.657850120340230826e-01,0.000000000000000000e+00,1.120000000000000000e+02
1.000000000000000000e+00,1.000000000000000000e+00,1.000000000000000000e+00,6.000000000000000000e+01,3.416000000000000000e+03,3.005950450897216797e-01,1.633437871932983398e+00,3.326757962109211930e-01,0.000000000000000000e+00,1.120000000000000000e+02
0.000000000000000000e+00,1.000000000000000000e+00,0.000000000000000000e+00,6.100000000000000000e+01,3.477000000000000000e+03,2.872500419616699219e-01,2.006742954254150391e+00,7.224829583944794020e-01,0.000000000000000000e+00,1.120000000000000000e+02
1.000000000000000000e+00,1.000000000000000000e+00,1.000000000000000000e+00,6.000000000000000000e+01,3.537000000000000000e+03,2.993268966674804688e-01,1.612935066223144531e+00,3.191812549435877333e-01,0.000000000000000000e+00,1.120000000000000000e+02
0.000000000000000000e+00,1.000000000000000000e+00,0.000000000000000000e+00,5.900000000000000000e+01,3.596000000000000000e+03,3.267621994018554688e-01,1.939610958099365234e+00,6.085424384068380821e-01,0.000000000000000000e+00,1.120000000000000000e+02
0.000000000000000000e+00,1.000000000000000000e+00,0.000000000000000000e+00,5.700000000000000000e+01,3.653000000000000000e+03,3.125398159027099609e-01,1.645863771438598633e+00,3.381079725076127085e-01,0.000000000000000000e+00,1.120000000000000000e+02
0.000000000000000000e+00,1.000000000000000000e+00,0.000000000000000000e+00,5.400000000000000000e+01,3.707000000000000000e+03,3.355920314788818359e-01,1.934037923812866211e+00,6.052802198043538695e-01,0.000000000000000000e+00,1.120000000000000000e+02
0.000000000000000000e+00,1.000000000000000000e+00,0.000000000000000000e+00,5.600000000000000000e+01,3.763000000000000000e+03,3.282759189605712891e-01,1.780959129333496094e+00,4.531528723649799750e-01,0.000000000000000000e+00,1.120000000000000000e+02
0.000000000000000000e+00,1.000000000000000000e+00,0.000000000000000000e+00,6.000000000000000000e+01,3.823000000000000000e+03,3.030371665954589844e-01,1.850684881210327148e+00,5.538028431060662005e-01,0.000000000000000000e+00,1.120000000000000000e+02
1.000000000000000000e+00,1.000000000000000000e+00,1.000000000000000000e+00,5.400000000000000000e+01,3.877000000000000000e+03,3.479740619659423828e-01,1.744993925094604492e+00,3.990176003581695219e-01,0.000000000000000000e+00,1.120000000000000000e+02
1.000000000000000000e+00,1.000000000000000000e+00,1.000000000000000000e+00,6.100000000000000000e+01,3.938000000000000000e+03,2.872459888458251953e-01,1.694839954376220703e+00,4.106550253108908755e-01,0.000000000000000000e+00,1.120000000000000000e+02
0.000000000000000000e+00,1.000000000000000000e+00,0.000000000000000000e+00,5.700000000000000000e+01,3.995000000000000000e+03,3.089821338653564453e-01,1.819937944412231445e+00,5.139001668539927570e-01,0.000000000000000000e+00,1.120000000000000000e+02
0.000000000000000000e+00,1.000000000000000000e+00,0.000000000000000000e+00,5.700000000000000000e+01,4.052000000000000000e+03,2.875719070434570312e-01,2.015747070312500000e+00,7.294921451641467325e-01,0.000000000000000000e+00,1.120000000000000000e+02
1.000000000000000000e+00,1.000000000000000000e+00,1.000000000000000000e+00,6.000000000000000000e+01,4.112000000000000000e+03,2.597858905792236328e-01,1.962884902954101562e+00,7.091394628890828056e-01,0.000000000000000000e+00,1.120000000000000000e+02
1.000000000000000000e+00,1.000000000000000000e+00,1.000000000000000000e+00,6.100000000000000000e+01,4.173000000000000000e+03,3.081769943237304688e-01,1.681622982025146484e+00,3.745313147981044199e-01,0.000000000000000000e+00,1.120000000000000000e+02
0.000000000000000000e+00,1.000000000000000000e+00,0.000000000000000000e+00,5.600000000000000000e+01,4.229000000000000000e+03,3.628110885620117188e-01,1.632982015609741211e+00,2.742950866804624299e-01,0.000000000000000000e+00,1.120000000000000000e+02
0.000000000000000000e+00,0.000000000000000000e+00,1.000000000000000000e+00,4.500000000000000000e+01,4.274000000000000000e+03,4.264960289001464844e-01,1.811480045318603516e+00,3.857767467917890825e-01,0.000000000000000000e+00,1.120000000000000000e+02
1.000000000000000000e+00,1.000000000000000000e+00,1.000000000000000000e+00,5.900000000000000000e+01,4.333000000000000000e+03,3.789188861846923828e-01,2.058981895446777344e+00,6.778680112968152871e-01,0.000000000000000000e+00,1.120000000000000000e+02
1.000000000000000000e+00,1.000000000000000000e+00,1.000000000000000000e+00,5.500000000000000000e+01,4.388000000000000000e+03,3.410689830780029297e-01,1.778528213500976562e+00,4.567126239162943580e-01,0.000000000000000000e+00,1.120000000000000000e+02
0.000000000000000000e+00,1.000000000000000000e+00,0.000000000000000000e+00,5.900000000000000000e+01,4.447000000000000000e+03,3.458201885223388672e-01,1.877613782882690430e+00,5.342895948202481815e-01,0.000000000000000000e+00,1.120000000000000000e+02
1.000000000000000000e+00,1.000000000000000000e+00,1.000000000000000000e+00,6.000000000000000000e+01,4.507000000000000000e+03,3.585438728332519531e-01,2.047483205795288086e+00,6.816925992779663268e-01,0.000000000000000000e+00,1.120000000000000000e+02
0.000000000000000000e+00,1.000000000000000000e+00,0.000000000000000000e+00,5.600000000000000000e+01,4.563000000000000000e+03,3.446099758148193359e-01,1.659770965576171875e+00,3.086183153678163094e-01,0.000000000000000000e+00,1.120000000000000000e+02
1.000000000000000000e+00,1.000000000000000000e+00,1.000000000000000000e+00,6.000000000000000000e+01,4.623000000000000000e+03,3.077511787414550781e-01,1.712980985641479492e+00,4.215489384819965379e-01,0.000000000000000000e+00,1.120000000000000000e+02
1.000000000000000000e+00,1.000000000000000000e+00,1.000000000000000000e+00,6.000000000000000000e+01,4.683000000000000000e+03,3.410718441009521484e-01,2.041605949401855469e+00,7.129287524068134152e-01,0.000000000000000000e+00,1.120000000000000000e+02
1.000000000000000000e+00,1.000000000000000000e+00,1.000000000000000000e+00,6.000000000000000000e+01,4.743000000000000000e+03,2.708208560943603516e-01,1.584690809249877930e+00,3.314359649045977019e-01,0.000000000000000000e+00,1.120000000000000000e+02
1.000000000000000000e+00,1.000000000000000000e+00,1.000000000000000000e+00,5.700000000000000000e+01,4.800000000000000000e+03,3.998310565948486328e-01,2.116657018661499023e+00,7.144461030276467728e-01,0.000000000000000000e+00,1.120000000000000000e+02
0.000000000000000000e+00,1.000000000000000000e+00,0.000000000000000000e+00,5.900000000000000000e+01,4.859000000000000000e+03,3.411760330200195312e-01,1.672127962112426758e+00,3.370167562370798842e-01,0.000000000000000000e+00,1.120000000000000000e+02
1.000000000000000000e+00,1.000000000000000000e+00,1.000000000000000000e+00,5.600000000000000000e+01,4.915000000000000000e+03,3.045570850372314453e-01,1.904917955398559570e+00,6.083989721026343833e-01,0.000000000000000000e+00,1.120000000000000000e+02
1.000000000000000000e+00,1.000000000000000000e+00,1.000000000000000000e+00,5.700000000000000000e+01,4.972000000000000000e+03,3.396179676055908203e-01,1.628668069839477539e+00,3.041677728449421192e-01,0.000000000000000000e+00,1.120000000000000000e+02
1.000000000000000000e+00,1.000000000000000000e+00,1.000000000000000000e+00,5.700000000000000000e+01,5.029000000000000000e+03,2.683861255645751953e-01,1.972214937210083008e+00,7.092987789073517124e-01,0.000000000000000000e+00,1.120000000000000000e+02
0.000000000000000000e+00,1.000000000000000000e+00,0.000000000000000000e+00,5.600000000000000000e+01,5.085000000000000000e+03,3.188910484313964844e-01,1.775679111480712891e+00,4.686510834307539008e-01,0.000000000000000000e+00,1.120000000000000000e+02
0.000000000000000000e+00,1.000000000000000000e+00,0.000000000000000000e+00,5.600000000000000000e+01,5.141000000000000000e+03,3.155510425567626953e-01,1.912867069244384766e+00,5.981397030226276446e-01,0.000000000000000000e+00,1.120000000000000000e+02
0.000000000000000000e+00,1.000000000000000000e+00,0.000000000000000000e+00,5.400000000000000000e+01,5.195000000000000000e+03,3.419919013977050781e-01,1.792577981948852539e+00,4.409507522996196083e-01,0.000000000000000000e+00,1.120000000000000000e+02
1.000000000000000000e+00,1.000000000000000000e+00,1.000000000000000000e+00,5.600000000000000000e+01,5.251000000000000000e+03,2.976620197296142578e-01,1.647317171096801758e+00,3.551037501144150843e-01,0.000000000000000000e+00,1.120000000000000000e+02
1.000000000000000000e+00,1.000000000000000000e+00,1.000000000000000000e+00,6.000000000000000000e+01,5.311000000000000000e+03,3.486199378967285156e-01,1.878166913986206055e+00,5.331575543795699090e-01,0.000000000000000000e+00,1.120000000000000000e+02
1.000000000000000000e+00,1.000000000000000000e+00,1.000000000000000000e+00,5.600000000000000000e+01,5.367000000000000000e+03,2.915010452270507812e-01,1.762116193771362305e+00,4.787297784400958434e-01,0.000000000000000000e+00,1.120000000000000000e+02
0.000000000000000000e+00,1.000000000000000000e+00,0.000000000000000000e+00,5.600000000000000000e+01,5.423000000000000000e+03,3.084199428558349609e-01,1.570617914199829102e+00,2.829600611347132255e-01,0.000000000000000000e+00,1.120000000000000000e+02
0.000000000000000000e+00,1.000000000000000000e+00,0.000000000000000000e+00,5.300000000000000000e+01,5.476000000000000000e+03,3.322539329528808594e-01,1.907614946365356445e+00,5.736684054840599511e-01,0.000000000000000000e+00,1.120000000000000000e+02
1.000000000000000000e+00,1.000000000000000000e+00,1.000000000000000000e+00,5.600000000000000000e+01,5.532000000000000000e+03,3.283228874206542969e-01,1.925887107849121094e+00,5.996315563405962834e-01,0.000000000000000000e+00,1.120000000000000000e+02
0.000000000000000000e+00,1.000000000000000000e+00,0.000000000000000000e+00,5.700000000000000000e+01,5.589000000000000000e+03,2.669520378112792969e-01,2.014612913131713867e+00,7.475094824121908399e-01,0.000000000000000000e+00,1.120000000000000000e+02
0.000000000000000000e+00,1.000000000000000000e+00,0.000000000000000000e+00,5.400000000000000000e+01,5.643000000000000000e+03,2.984058856964111328e-01,1.908858060836791992e+00,6.065476442940640478e-01,0.000000000000000000e+00,1.120000000000000000e+02
0.000000000000000000e+00,0.000000000000000000e+00,1.000000000000000000e+00,3.700000000000000000e+01,5.680000000000000000e+03,3.234860897064208984e-01,1.938395977020263672e+00,6.283322466837568676e-01,1.000000000000000000e+00,1.110000000000000000e+02
1.000000000000000000e+00,1.000000000000000000e+00,1.000000000000000000e+00,6.000000000000000000e+01,5.740000000000000000e+03,3.211860656738281250e-01,1.764963150024414062e+00,4.602394287576831444e-01,0.000000000000000000e+00,1.110000000000000000e+02
0.000000000000000000e+00,1.000000000000000000e+00,0.000000000000000000e+00,5.700000000000000000e+01,5.797000000000000000e+03,3.616361618041992188e-01,1.969846010208129883e+00,6.133329026351046487e-01,0.000000000000000000e+00,1.110000000000000000e+02
0.000000000000000000e+00,1.000000000000000000e+00,0.000000000000000000e+00,6.200000000000000000e+01,5.859000000000000000e+03,3.236899375915527344e-01,1.875309944152832031e+00,5.387914303717611375e-01,0.000000000000000000e+00,1.110000000000000000e+02
1.000000000000000000e+00,1.000000000000000000e+00,1.000000000000000000e+00,6.400000000000000000e+01,5.923000000000000000e+03,2.927560806274414062e-01,2.002304077148437500e+00,7.076681939694041690e-01,0.000000000000000000e+00,1.110000000000000000e+02
0.000000000000000000e+00,1.000000000000000000e+00,0.000000000000000000e+00,6.400000000000000000e+01,5.987000000000000000e+03,2.778620719909667969e-01,1.556464910507202148e+00,2.813411623706355558e-01,0.000000000000000000e+00,1.110000000000000000e+02
1.000000000000000000e+00,1.000000000000000000e+00,1.000000000000000000e+00,5.700000000000000000e+01,6.044000000000000000e+03,3.822488784790039062e-01,2.073503017425537109e+00,6.878080472934025025e-01,0.000000000000000000e+00,1.110000000000000000e+02
1.000000000000000000e+00,1.000000000000000000e+00,1.000000000000000000e+00,6.800000000000000000e+01,6.112000000000000000e+03,3.126130104064941406e-01,1.865073919296264648e+00,5.531218115668623536e-01,0.000000000000000000e+00,1.110000000000000000e+02
1.000000000000000000e+00,1.000000000000000000e+00,1.000000000000000000e+00,5.700000000000000000e+01,6.169000000000000000e+03,2.880671024322509766e-01,1.699286937713623047e+00,4.192779027559742633e-01,0.000000000000000000e+00,1.110000000000000000e+02
0.000000000000000000e+00,1.000000000000000000e+00,0.000000000000000000e+00,5.600000000000000000e+01,6.225000000000000000e+03,4.250910282135009766e-01,1.972082853317260742e+00,5.579773149525195652e-01,0.000000000000000000e+00,1.110000000000000000e+02
0.000000000000000000e+00,1.000000000000000000e+00,0.000000000000000000e+00,6.100000000000000000e+01,6.286000000000000000e+03,3.363838195800781250e-01,1.966031074523925781e+00,6.406319723420534906e-01,0.000000000000000000e+00,1.110000000000000000e+02
0.000000000000000000e+00,1.000000000000000000e+00,0.000000000000000000e+00,6.000000000000000000e+01,6.346000000000000000e+03,3.628990650177001953e-01,1.935401916503906250e+00,5.762428426253034530e-01,0.000000000000000000e+00,1.110000000000000000e+02
1.000000000000000000e+00,1.000000000000000000e+00,1.000000000000000000e+00,5.900000000000000000e+01,6.405000000000000000e+03,3.065450191497802734e-01,1.770138025283813477e+00,4.798443793089767762e-01,0.000000000000000000e+00,1.110000000000000000e+02
0.000000000000000000e+00,1.000000000000000000e+00,0.000000000000000000e+00,6.200000000000000000e+01,6.467000000000000000e+03,3.390641212463378906e-01,1.776436090469360352e+00,4.563886756325913341e-01,0.000000000000000000e+00,1.110000000000000000e+02
0.000000000000000000e+00,1.000000000000000000e+00,0.000000000000000000e+00,6.600000000000000000e+01,6.533000000000000000e+03,3.268201351165771484e-01,1.601172924041748047e+00,2.744895003863045968e-01,0.000000000000000000e+00,1.110000000000000000e+02
0.000000000000000000e+00,1.000000000000000000e+00,0.000000000000000000e+00,6.100000000000000000e+01,6.594000000000000000e+03,3.428299427032470703e-01,1.861871957778930664e+00,5.195032409896167547e-01,0.000000000000000000e+00,1.110000000000000000e+02
1.000000000000000000e+00,1.000000000000000000e+00,1.000000000000000000e+00,6.600000000000000000e+01,6.660000000000000000e+03,3.021349906921386719e-01,1.877274036407470703e+00,5.800934867999313349e-01,0.000000000000000000e+00,1.110000000000000000e+02
0.000000000000000000e+00,0.000000000000000000e+00,1.000000000000000000e+00,3.800000000000000000e+01,6.698000000000000000e+03,2.957780361175537109e-01,1.949762105941772461e+00,6.465461639177680908e-01,0.000000000000000000e+00,1.110000000000000000e+02
1.000000000000000000e+00,1.000000000000000000e+00,1.000000000000000000e+00,6.200000000000000000e+01,6.760000000000000000e+03,2.561290264129638672e-01,1.983500003814697266e+00,7.300888376301453153e-01,0.000000000000000000e+00,1.110000000000000000e+02
0.000000000000000000e+00,1.000000000000000000e+00,0.000000000000000000e+00,6.100000000000000000e+01,6.821000000000000000e+03,3.827769756317138672e-01,2.054035902023315430e+00,6.675542337478821420e-01,0.000000000000000000e+00,1.110000000000000000e+02
1.000000000000000000e+00,1.000000000000000000e+00,1.000000000000000000e+00,6.000000000000000000e+01,6.881000000000000000e+03,2.487790584564208984e-01,1.738136053085327148e+00,4.892922390544552358e-01,0.000000000000000000e+00,1.110000000000000000e+02
0.000000000000000000e+00,1.000000000000000000e+00,0.000000000000000000e+00,6.200000000000000000e+01,6.943000000000000000e+03,3.335571289062500000e-01,1.588074922561645508e+00,2.610236116041768084e-01,0.000000000000000000e+00,1.110000000000000000e+02
1.000000000000000000e+00,1.000000000000000000e+00,1.000000000000000000e+00,6.300000000000000000e+01,7.006000000000000000e+03,3.123059272766113281e-01,2.015693902969360352e+00,7.096572442660555868e-01,0.000000000000000000e+00,1.110000000000000000e+02
1.000000000000000000e+00,1.000000000000000000e+00,1.000000000000000000e+00,6.300000000000000000e+01,7.069000000000000000e+03,2.685348987579345703e-01,1.765879154205322266e+00,5.091257343524455692e-01,0.000000000000000000e+00,1.110000000000000000e+02
1.000000000000000000e+00,1.000000000000000000e+00,1.000000000000000000e+00,6.300000000000000000e+01,7.132000000000000000e+03,3.159899711608886719e-01,1.843364000320434570e+00,5.358857231369802410e-01,0.000000000000000000e+00,1.110000000000000000e+02
1.000000000000000000e+00,1.000000000000000000e+00,1.000000000000000000e+00,6.100000000000000000e+01,7.193000000000000000e+03,3.090319633483886719e-01,1.669934034347534180e+00,3.561061200352232947e-01,0.000000000000000000e+00,1.110000000000000000e+02
0.000000000000000000e+00,1.000000000000000000e+00,0.000000000000000000e+00,6.000000000000000000e+01,7.253000000000000000e+03,3.793840408325195312e-01,1.646748065948486328e+00,2.696758801456291543e-01,0.000000000000000000e+00,1.110000000000000000e+02
1.000000000000000000e+00,1.000000000000000000e+00,1.000000000000000000e+00,5.900000000000000000e+01,7.312000000000000000e+03,2.834589481353759766e-01,1.821671009063720703e+00,5.411129493992052897e-01,0.000000000000000000e+00,1.110000000000000000e+02
1.000000000000000000e+00,1.000000000000000000e+00,1.000000000000000000e+00,6.100000000000000000e+01,7.373000000000000000e+03,2.968800067901611328e-01,1.726455926895141602e+00,4.344347616280460067e-01,0.000000000000000000e+00,1.110000000000000000e+02
1.000000000000000000e+00,1.000000000000000000e+00,1.000000000000000000e+00,6.000000000000000000e+01,7.433000000000000000e+03,2.565889358520507812e-01,1.513973951339721680e+00,2.653202063395286858e-01,0.000000000000000000e+00,1.110000000000000000e+02
1.000000000000000000e+00,1.000000000000000000e+00,1.000000000000000000e+00,6.000000000000000000e+01,7.493000000000000000e+03,3.029639720916748047e-01,2.049753904342651367e+00,7.479747051827506654e-01,0.000000000000000000e+00,1.110000000000000000e+02
0.000000000000000000e+00,1.000000000000000000e+00,0.000000000000000000e+00,6.400000000000000000e+01,7.557000000000000000e+03,3.100669384002685547e-01,1.621381044387817383e+00,3.032381045672590258e-01,0.000000000000000000e+00,1.110000000000000000e+02
1.000000000000000000e+00,1.000000000000000000e+00,1.000000000000000000e+00,6.400000000000000000e+01,7.621000000000000000e+03,3.573899269104003906e-01,1.980010032653808594e+00,6.329515578832151101e-01,0.000000000000000000e+00,1.110000000000000000e+02
0.000000000000000000e+00,1.000000000000000000e+00,0.000000000000000000e+00,6.600000000000000000e+01,7.687000000000000000e+03,3.381831645965576172e-01,2.053999185562133789e+00,7.202949007548854476e-01,0.000000000000000000e+00,1.110000000000000000e+02
1.000000000000000000e+00,0.000000000000000000e+00,0.000000000000000000e+00,4.200000000000000000e+01,7.729000000000000000e+03,2.842400074005126953e-01,1.988381862640380859e+00,7.087522329170624635e-01,0.000000000000000000e+00,1.110000000000000000e+02
1.000000000000000000e+00,1.000000000000000000e+00,1.000000000000000000e+00,6.200000000000000000e+01,7.791000000000000000e+03,3.579690456390380859e-01,1.728089094161987305e+00,3.872787115361981392e-01,0.000000000000000000e+00,1.110000000000000000e+02
0.000000000000000000e+00,1.000000000000000000e+00,0.000000000000000000e+00,6.200000000000000000e+01,7.853000000000000000e+03,3.416798114776611328e-01,1.701435089111328125e+00,3.721258741168896322e-01,0.000000000000000000e+00,1.110000000000000000e+02
0.000000000000000000e+00,1.000000000000000000e+00,0.000000000000000000e+00,5.700000000000000000e+01,7.910000000000000000e+03,3.427319526672363281e-01,1.995180845260620117e+00,6.337565794712286538e-01,0.000000000000000000e+00,1.110000000000000000e+02
0.000000000000000000e+00,1.000000000000000000e+00,0.000000000000000000e+00,5.900000000000000000e+01,7.969000000000000000e+03,3.448271751403808594e-01,1.746481180191040039e+00,3.972364850727047036e-01,0.000000000000000000e+00,1.110000000000000000e+02
1.000000000000000000e+00,1.000000000000000000e+00,1.000000000000000000e+00,6.500000000000000000e+01,8.034000000000000000e+03,2.768740653991699219e-01,2.030560016632080078e+00,7.441499114911853674e-01,0.000000000000000000e+00,1.110000000000000000e+02
0.000000000000000000e+00,1.000000000000000000e+00,0.000000000000000000e+00,6.000000000000000000e+01,8.094000000000000000e+03,3.703122138977050781e-01,1.782529830932617188e+00,4.271276984627718210e-01,0.000000000000000000e+00,1.110000000000000000e+02
1.000000000000000000e+00,1.000000000000000000e+00,1.000000000000000000e+00,6.000000000000000000e+01,8.154000000000000000e+03,3.411059379577636719e-01,1.909759044647216797e+00,5.867955499402494057e-01,0.000000000000000000e+00,1.110000000000000000e+02
1.000000000000000000e+00,1.000000000000000000e+00,1.000000000000000000e+00,6.500000000000000000e+01,8.219000000000000000e+03,4.004428386688232422e-01,2.092955112457275391e+00,6.963810852106331328e-01,0.000000000000000000e+00,1.110000000000000000e+02
0.000000000000000000e+00,1.000000000000000000e+00,0.000000000000000000e+00,5.900000000000000000e+01,8.278000000000000000e+03,2.942390441894531250e-01,1.537831068038940430e+00,2.514390947079428451e-01,0.000000000000000000e+00,1.110000000000000000e+02
0.000000000000000000e+00,1.000000000000000000e+00,0.000000000000000000e+00,5.700000000000000000e+01,8.335000000000000000e+03,4.292981624603271484e-01,2.027230024337768555e+00,5.950522206025765648e-01,0.000000000000000000e+00,1.110000000000000000e+02
1.000000000000000000e+00,1.000000000000000000e+00,1.000000000000000000e+00,5.900000000000000000e+01,8.394000000000000000e+03,2.816910743713378906e-01,1.670001983642578125e+00,3.986621280424996194e-01,0.000000000000000000e+00,1.110000000000000000e+02
1.000000000000000000e+00,1.000000000000000000e+00,1.000000000000000000e+00,5.900000000000000000e+01,8.453000000000000000e+03,3.043768405914306641e-01,1.737332105636596680e+00,4.360488161739206059e-01,0.000000000000000000e+00,1.110000000000000000e+02
1.000000000000000000e+00,1.000000000000000000e+00,1.000000000000000000e+00,6.200000000000000000e+01,8.515000000000000000e+03,3.041560649871826172e-01,1.779287099838256836e+00,4.820133919472396333e-01,0.000000000000000000e+00,1.110000000000000000e+02
1.000000000000000000e+00,0.000000000000000000e+00,0.000000000000000000e+00,4.000000000000000000e+01,8.555000000000000000e+03,2.718889713287353516e-01,1.535174846649169922e+00,2.674935823489536513e-01,0.000000000000000000e+00,1.110000000000000000e+02
0.000000000000000000e+00,1.000000000000000000e+00,0.000000000000000000e+00,6.300000000000000000e+01,8.618000000000000000e+03,3.785760402679443359e-01,1.858093023300170898e+00,4.754315502657435188e-01,0.000000000000000000e+00,1.110000000000000000e+02
0.000000000000000000e+00,1.000000000000000000e+00,0.000000000000000000e+00,6.100000000000000000e+01,8.679000000000000000e+03,3.256361484527587891e-01,1.704316139221191406e+00,3.964757876792233682e-01,0.000000000000000000e+00,1.110000000000000000e+02
1.000000000000000000e+00,1.000000000000000000e+00,1.000000000000000000e+00,6.400000000000000000e+01,8.743000000000000000e+03,3.177201747894287109e-01,1.853537082672119141e+00,5.499529159475928797e-01,0.000000000000000000e+00,1.110000000000000000e+02
1.000000000000000000e+00,1.000000000000000000e+00,1.000000000000000000e+00,5.900000000000000000e+01,8.802000000000000000e+03,2.780280113220214844e-01,1.778545856475830078e+00,4.953155352528554878e-01,0.000000000000000000e+00,1.110000000000000000e+02
1.000000000000000000e+00,1.000000000000000000e+00,1.000000000000000000e+00,6.200000000000000000e+01,8.864000000000000000e+03,3.093948364257812500e-01,1.952614068984985352e+00,6.644673179253303141e-01,0.000000000000000000e+00,1.110000000000000000e+02
1.000000000000000000e+00,1.000000000000000000e+00,1.000000000000000000e+00,6.000000000000000000e+01,8.924000000000000000e+03,2.898039817810058594e-01,1.939486026763916016e+00,6.540163809697312480e-01,0.000000000000000000e+00,1.110000000000000000e+02
0.000000000000000000e+00,1.000000000000000000e+00,0.000000000000000000e+00,6.200000000000000000e+01,8.986000000000000000e+03,4.115688800811767578e-01,2.145550966262817383e+00,7.329488475761052335e-01,0.000000000000000000e+00,1.110000000000000000e+02
1.000000000000000000e+00,1.000000000000000000e+00,1.000000000000000000e+00,6.200000000000000000e+01,9.048000000000000000e+03,2.856228351593017578e-01,1.727040767669677734e+00,4.437036968451990582e-01,0.000000000000000000e+00,1.110000000000000000e+02
1.000000000000000000e+00,1.000000000000000000e+00,1.000000000000000000e+00,6.300000000000000000e+01,9.111000000000000000e+03,3.239641189575195312e-01,1.722221136093139648e+00,4.159809072252529383e-01,0.000000000000000000e+00,1.110000000000000000e+02
1.000000000000000000e+00,1.000000000000000000e+00,1.000000000000000000e+00,6.100000000000000000e+01,9.172000000000000000e+03,2.867560386657714844e-01,1.996894121170043945e+00,7.126357061921180236e-01,0.000000000000000000e+00,1.110000000000000000e+02
0.000000000000000000e+00,1.000000000000000000e+00,0.000000000000000000e+00,6.000000000000000000e+01,9.232000000000000000e+03,4.174480438232421875e-01,1.658204793930053711e+00,2.547793361871035223e-01,0.000000000000000000e+00,1.110000000000000000e+02
1.000000000000000000e+00,1.000000000000000000e+00,1.000000000000000000e+00,6.900000000000000000e+01,9.301000000000000000e+03,3.258368968963623047e-01,1.835640192031860352e+00,5.235097135829981374e-01,0.000000000000000000e+00,1.110000000000000000e+02
1.000000000000000000e+00,1.000000000000000000e+00,1.000000000000000000e+00,6.300000000000000000e+01,9.364000000000000000e+03,3.435649871826171875e-01,1.854543924331665039e+00,5.114825352698806338e-01,0.000000000000000000e+00,1.110000000000000000e+02
0.000000000000000000e+00,1.000000000000000000e+00,0.000000000000000000e+00,6.100000000000000000e+01,9.425000000000000000e+03,3.796739578247070312e-01,1.862066030502319336e+00,4.903084022336012260e-01,0.000000000000000000e+00,1.110000000000000000e+02
0.000000000000000000e+00,1.000000000000000000e+00,0.000000000000000000e+00,6.400000000000000000e+01,9.489000000000000000e+03,4.121429920196533203e-01,1.664808034896850586e+00,2.554600107782857843e-01,0.000000000000000000e+00,1.110000000000000000e+02
1.000000000000000000e+00,1.000000000000000000e+00,1.000000000000000000e+00,6.000000000000000000e+01,9.549000000000000000e+03,3.294229507446289062e-01,2.040482044219970703e+00,7.122039447543386803e-01,0.000000000000000000e+00,1.110000000000000000e+02
1.000000000000000000e+00,1.000000000000000000e+00,1.000000000000000000e+00,5.900000000000000000e+01,9.608000000000000000e+03,3.001539707183837891e-01,1.880234003067016602e+00,5.926394770970389025e-01,0.000000000000000000e+00,1.110000000000000000e+02
1.000000000000000000e+00,1.000000000000000000e+00,1.000000000000000000e+00,6.100000000000000000e+01,9.669000000000000000e+03,3.268921375274658203e-01,1.616327047348022461e+00,2.926778875245789613e-01,0.000000000000000000e+00,1.110000000000000000e+02
0.000000000000000000e+00,1.000000000000000000e+00,0.000000000000000000e+00,6.700000000000000000e+01,9.736000000000000000e+03,3.863148689270019531e-01,1.755475997924804688e+00,3.814821260465451891e-01,0.000000000000000000e+00,1.110000000000000000e+02
1.000000000000000000e+00,1.000000000000000000e+00,1.000000000000000000e+00,6.100000000000000000e+01,9.797000000000000000e+03,3.046898841857910156e-01,1.623286008834838867e+00,3.215373972449376838e-01,0.000000000000000000e+00,1.110000000000000000e+02
1.000000000000000000e+00,1.000000000000000000e+00,1.000000000000000000e+00,6.400000000000000000e+01,9.861000000000000000e+03,2.451269626617431641e-01,1.841063022613525391e+00,5.957123186161734640e-01,0.000000000000000000e+00,1.110000000000000000e+02
1.000000000000000000e+00,1.000000000000000000e+00,1.000000000000000000e+00,6.100000000000000000e+01,9.922000000000000000e+03,2.838549613952636719e-01,1.967964887619018555e+00,6.970418881491446950e-01,0.000000000000000000e+00,1.110000000000000000e+02
0.000000000000000000e+00,1.000000000000000000e+00,0.000000000000000000e+00,6.100000000000000000e+01,9.983000000000000000e+03,2.765769958496093750e-01,1.723089933395385742e+00,4.371196771005900206e-01,0.000000000000000000e+00,1.110000000000000000e+02
1.000000000000000000e+00,1.000000000000000000e+00,1.000000000000000000e+00,6.300000000000000000e+01,1.004600000000000000e+04,3.169360160827636719e-01,2.028593063354492188e+00,7.155002265052723409e-01,0.000000000000000000e+00,1.110000000000000000e+02
1.000000000000000000e+00,1.000000000000000000e+00,1.000000000000000000e+00,6.200000000000000000e+01,1.010800000000000000e+04,2.806391716003417969e-01,1.691220998764038086e+00,4.071528712996164701e-01,0.000000000000000000e+00,1.110000000000000000e+02
1.000000000000000000e+00,1.000000000000000000e+00,1.000000000000000000e+00,6.200000000000000000e+01,1.017000000000000000e+04,3.242940902709960938e-01,1.896440982818603516e+00,5.867638207180257970e-01,0.000000000000000000e+00,1.110000000000000000e+02
0.000000000000000000e+00,1.000000000000000000e+00,0.000000000000000000e+00,6.100000000000000000e+01,1.023100000000000000e+04,3.234868049621582031e-01,1.802521944046020508e+00,4.894495485849640892e-01,0.000000000000000000e+00,1.110000000000000000e+02
0.000000000000000000e+00,1.000000000000000000e+00,0.000000000000000000e+00,6.100000000000000000e+01,1.029200000000000000e+04,3.015079498291015625e-01,1.683581113815307617e+00,3.899595692192560636e-01,0.000000000000000000e+00,1.110000000000000000e+02
0.000000000000000000e+00,1.000000000000000000e+00,0.000000000000000000e+00,6.400000000000000000e+01,1.035600000000000000e+04,3.113489151000976562e-01,1.772763013839721680e+00,4.627315818394348579e-01,0.000000000000000000e+00,1.110000000000000000e+02
1.000000000000000000e+00,1.000000000000000000e+00,1.000000000000000000e+00,6.000000000000000000e+01,1.041600000000000000e+04,2.927160263061523438e-01,1.792114973068237305e+00,5.048659339221568398e-01,0.000000000000000000e+00,1.110000000000000000e+02
1.000000000000000000e+00,1.000000000000000000e+00,1.000000000000000000e+00,6.100000000000000000e+01,1.047700000000000000e+04,3.257720470428466797e-01,1.772312164306640625e+00,4.606394681952981629e-01,0.000000000000000000e+00,1.110000000000000000e+02
1.000000000000000000e+00,1.000000000000000000e+00,1.000000000000000000e+00,6.200000000000000000e+01,1.053900000000000000e+04,3.772559165954589844e-01,1.816381931304931641e+00,4.437276031949805577e-01,0.000000000000000000e+00,1.110000000000000000e+02
0.000000000000000000e+00,1.000000000000000000e+00,0.000000000000000000e+00,6.200000000000000000e+01,1.060100000000000000e+04,3.216750621795654297e-01,2.015571117401123047e+00,7.091485675880937478e-01,0.000000000000000000e+00,1.110000000000000000e+02
1.000000000000000000e+00,1.000000000000000000e+00,1.000000000000000000e+00,6.400000000000000000e+01,1.066500000000000000e+04,3.669559955596923828e-01,1.891683101654052734e+00,5.343938716093472596e-01,0.000000000000000000e+00,1.110000000000000000e+02
0.000000000000000000e+00,1.000000000000000000e+00,0.000000000000000000e+00,6.400000000000000000e+01,1.072900000000000000e+04,3.182020187377929688e-01,1.997637033462524414e+00,6.819543113042643157e-01,0.000000000000000000e+00,1.110000000000000000e+02
0.000000000000000000e+00,1.000000000000000000e+00,0.000000000000000000e+00,6.200000000000000000e+01,1.079100000000000000e+04,4.271609783172607422e-01,1.713441848754882812e+00,2.792525575933887949e-01,0.000000000000000000e+00,1.110000000000000000e+02
0.000000000000000000e+00,1.000000000000000000e+00,0.000000000000000000e+00,6.200000000000000000e+01,1.085300000000000000e+04,3.431110382080078125e-01,1.780126810073852539e+00,4.592618045202161992e-01,0.000000000000000000e+00,1.110000000000000000e+02
1.000000000000000000e+00,1.000000000000000000e+00,1.000000000000000000e+00,6.000000000000000000e+01,1.091300000000000000e+04,3.549289703369140625e-01,1.613505840301513672e+00,2.730413025739914512e-01,0.000000000000000000e+00,1.110000000000000000e+02
1.000000000000000000e+00,1.000000000000000000e+00,1.000000000000000000e+00,6.500000000000000000e+01,1.097800000000000000e+04,3.681919574737548828e-01,1.894064188003540039e+00,5.335695503328231615e-01,0.000000000000000000e+00,1.110000000000000000e+02
0.000000000000000000e+00,1.000000000000000000e+00,0.000000000000000000e+00,6.000000000000000000e+01,1.103800000000000000e+04,3.643350601196289062e-01,1.874893903732299805e+00,5.085707148615490336e-01,0.000000000000000000e+00,1.110000000000000000e+02
0.000000000000000000e+00,1.000000000000000000e+00,0.000000000000000000e+00,6.400000000000000000e+01,1.110200000000000000e+04,3.697719573974609375e-01,2.083067178726196289e+00,7.247997631093168192e-01,0.000000000000000000e+00,1.110000000000000000e+02
0.000000000000000000e+00,1.000000000000000000e+00,0.000000000000000000e+00,6.200000000000000000e+01,1.116400000000000000e+04,3.384358882904052734e-01,1.937490940093994141e+00,6.125183643376854725e-01,0.000000000000000000e+00,1.110000000000000000e+02
1.000000000000000000e+00,1.000000000000000000e+00,1.000000000000000000e+00,6.300000000000000000e+01,1.122700000000000000e+04,3.041489124298095703e-01,1.890297889709472656e+00,6.028753250518743556e-01,0.000000000000000000e+00,1.110000000000000000e+02
1.000000000000000000e+00,1.000000000000000000e+00,1.000000000000000000e+00,6.000000000000000000e+01,1.128700000000000000e+04,3.542888164520263672e-01,1.952307939529418945e+00,6.053024860217584013e-01,0.000000000000000000e+00,1.110000000000000000e+02
0.000000000000000000e+00,1.000000000000000000e+00,0.000000000000000000e+00,6.300000000000000000e+01,1.135000000000000000e+04,3.792719841003417969e-01,1.641186952590942383e+00,2.635687682858236514e-01,0.000000000000000000e+00,1.110000000000000000e+02
1.000000000000000000e+00,1.000000000000000000e+00,1.000000000000000000e+00,5.700000000000000000e+01,1.140700000000000000e+04,3.270049095153808594e-01,1.798730134963989258e+00,4.788083397272059338e-01,0.000000000000000000e+00,1.110000000000000000e+02
1.000000000000000000e+00,1.000000000000000000e+00,1.000000000000000000e+00,6.000000000000000000e+01,1.146700000000000000e+04,4.381470680236816406e-01,2.157787084579467773e+00,7.364120748272879879e-01,0.000000000000000000e+00,1.110000000000000000e+02
0.000000000000000000e+00,1.000000000000000000e+00,0.000000000000000000e+00,6.600000000000000000e+01,1.153300000000000000e+04,2.975389957427978516e-01,1.992786884307861328e+00,6.960172583361119436e-01,0.000000000000000000e+00,1.110000000000000000e+02
0.000000000000000000e+00,1.000000000000000000e+00,0.000000000000000000e+00,6.300000000000000000e+01,1.159600000000000000e+04,4.732239246368408203e-01,2.174436092376708984e+00,7.204898824967829185e-01,0.000000000000000000e+00,1.110000000000000000e+02
1.000000000000000000e+00,1.000000000000000000e+00,1.000000000000000000e+00,6.000000000000000000e+01,1.165600000000000000e+04,3.550240993499755859e-01,1.810883998870849609e+00,4.650675785181367372e-01,0.000000000000000000e+00,1.110000000000000000e+02
1.000000000000000000e+00,1.000000000000000000e+00,1.000000000000000000e+00,6.600000000000000000e+01,1.172200000000000000e+04,3.173780441284179688e-01,1.969722986221313477e+00,6.513108268588035932e-01,0.000000000000000000e+00,1.110000000000000000e+02
0.000000000000000000e+00,1.000000000000000000e+00,0.000000000000000000e+00,6.200000000000000000e+01,1.178400000000000000e+04,2.907419204711914062e-01,1.622030973434448242e+00,3.404272794411034031e-01,0.000000000000000000e+00,1.110000000000000000e+02
1.000000000000000000e+00,0.000000000000000000e+00,0.000000000000000000e+00,3.400000000000000000e+01,1.181800000000000000e+04,2.981040477752685547e-01,1.567119121551513672e+00,2.742765656015169196e-01,1.000000000000000000e+00,1.120000000000000000e+02
1.000000000000000000e+00,1.000000000000000000e+00,1.000000000000000000e+00,6.500000000000000000e+01,1.188300000000000000e+04,2.794711589813232422e-01,1.635372877120971680e+00,3.596573137327689351e-01,0.000000000000000000e+00,1.120000000000000000e+02
0.000000000000000000e+00,1.000000000000000000e+00,0.000000000000000000e+00,7.000000000000000000e+01,1.195300000000000000e+04,2.973160743713378906e-01,1.552875995635986328e+00,2.627082440248728057e-01,0.000000000000000000e+00,1.120000000000000000e+02
0.000000000000000000e+00,1.000000000000000000e+00,0.000000000000000000e+00,6.400000000000000000e+01,1.201700000000000000e+04,3.323411941528320312e-01,1.880198001861572266e+00,5.593172091484284181e-01,0.000000000000000000e+00,1.120000000000000000e+02
1.000000000000000000e+00,1.000000000000000000e+00,1.000000000000000000e+00,6.000000000000000000e+01,1.207700000000000000e+04,2.840771675109863281e-01,1.837326049804687500e+00,5.633408083859612336e-01,0.000000000000000000e+00,1.120000000000000000e+02
1.000000000000000000e+00,1.000000000000000000e+00,1.000000000000000000e+00,6.300000000000000000e+01,1.214000000000000000e+04,3.040528297424316406e-01,1.701658010482788086e+00,3.985820366801884340e-01,0.000000000000000000e+00,1.120000000000000000e+02
1.000000000000000000e+00,1.000000000000000000e+00,1.000000000000000000e+00,6.400000000000000000e+01,1.220400000000000000e+04,3.041119575500488281e-01,1.740991830825805664e+00,4.396284805935082862e-01,0.000000000000000000e+00,1.120000000000000000e+02
1.000000000000000000e+00,1.000000000000000000e+00,1.000000000000000000e+00,6.900000000000000000e+01,1.227300000000000000e+04,2.938709259033203125e-01,1.876972198486328125e+00,5.832759591436632585e-01,0.000000000000000000e+00,1.120000000000000000e+02
0.000000000000000000e+00,1.000000000000000000e+00,0.000000000000000000e+00,6.400000000000000000e+01,1.233700000000000000e+04,3.825769424438476562e-01,2.051012992858886719e+00,6.675880512304719350e-01,0.000000000000000000e+00,1.120000000000000000e+02
0.000000000000000000e+00,1.000000000000000000e+00,0.000000000000000000e+00,6.200000000000000000e+01,1.239900000000000000e+04,3.787310123443603516e-01,1.827467918395996094e+00,4.454055539017308663e-01,0.000000000000000000e+00,1.120000000000000000e+02
1.000000000000000000e+00,1.000000000000000000e+00,1.000000000000000000e+00,6.600000000000000000e+01,1.246500000000000000e+04,2.951421737670898438e-01,2.004830121994018555e+00,7.166509862926345731e-01,0.000000000000000000e+00,1.120000000000000000e+02
1.000000000000000000e+00,1.000000000000000000e+00,1.000000000000000000e+00,6.800000000000000000e+01,1.253300000000000000e+04,2.675781250000000000e-01,1.681230068206787109e+00,4.149423042430228636e-01,0.000000000000000000e+00,1.120000000000000000e+02
0.000000000000000000e+00,1.000000000000000000e+00,0.000000000000000000e+00,6.200000000000000000e+01,1.259500000000000000e+04,3.763179779052734375e-01,1.955265998840332031e+00,5.701370945003583213e-01,0.000000000000000000e+00,1.120000000000000000e+02
0.000000000000000000e+00,1.000000000000000000e+00,0.000000000000000000e+00,6.300000000000000000e+01,1.265800000000000000e+04,3.233110904693603516e-01,1.988833904266357422e+00,6.756031439855386678e-01,0.000000000000000000e+00,1.120000000000000000e+02
0.000000000000000000e+00,1.000000000000000000e+00,0.000000000000000000e+00,6.200000000000000000e+01,1.272000000000000000e+04,3.900740146636962891e-01,1.765424013137817383e+00,3.914181344286423170e-01,0.000000000000000000e+00,1.120000000000000000e+02
0.000000000000000000e+00,1.000000000000000000e+00,0.000000000000000000e+00,6.400000000000000000e+01,1.278400000000000000e+04,3.304951190948486328e-01,2.011708974838256836e+00,6.862048026113136689e-01,0.000000000000000000e+00,1.120000000000000000e+02
0.000000000000000000e+00,1.000000000000000000e+00,0.000000000000000000e+00,6.700000000000000000e+01,1.285100000000000000e+04,3.578121662139892578e-01,1.796080112457275391e+00,4.326467033482669367e-01,0.000000000000000000e+00,1.120000000000000000e+02
1.000000000000000000e+00,1.000000000000000000e+00,1.000000000000000000e+00,6.700000000000000000e+01,1.291800000000000000e+04,2.968540191650390625e-01,1.863075017929077148e+00,5.623560079499518860e-01,0.000000000000000000e+00,1.120000000000000000e+02
1.000000000000000000e+00,1.000000000000000000e+00,1.000000000000000000e+00,6.600000000000000000e+01,1.298400000000000000e+04,3.320269584655761719e-01,1.607641935348510742e+00,2.870092068928659090e-01,0.000000000000000000e+00,1.120000000000000000e+02
0.000000000000000000e+00,1.000000000000000000e+00,0.000000000000000000e+00,6.800000000000000000e+01,1.305200000000000000e+04,3.574011325836181641e-01,1.999610185623168945e+00,6.529773413912322022e-01,0.000000000000000000e+00,1.120000000000000000e+02
0.000000000000000000e+00,1.000000000000000000e+00,0.000000000000000000e+00,6.600000000000000000e+01,1.311800000000000000e+04,3.264880180358886719e-01,1.720262050628662109e+00,3.902446062901701596e-01,0.000000000000000000e+00,1.120000000000000000e+02
0.000000000000000000e+00,1.000000000000000000e+00,0.000000000000000000e+00,6.600000000000000000e+01,1.318400000000000000e+04,3.198781013488769531e-01,2.053858041763305664e+00,7.438017196896158367e-01,0.000000000000000000e+00,1.120000000000000000e+02
1.000000000000000000e+00,1.000000000000000000e+00,1.000000000000000000e+00,6.700000000000000000e+01,1.325100000000000000e+04,3.089690208435058594e-01,1.799387931823730469e+00,5.101797136051817727e-01,0.000000000000000000e+00,1.120000000000000000e+02
1.000000000000000000e+00,1.000000000000000000e+00,1.000000000000000000e+00,6.300000000000000000e+01,1.331400000000000000e+04,2.890720367431640625e-01,1.723271131515502930e+00,4.502475229523859035e-01,0.000000000000000000e+00,1.120000000000000000e+02
0.000000000000000000e+00,1.000000000000000000e+00,0.000000000000000000e+00,6.400000000000000000e+01,1.337800000000000000e+04,3.177001476287841797e-01,1.819715976715087891e+00,5.033120015751549881e-01,0.000000000000000000e+00,1.120000000000000000e+02
0.000000000000000000e+00,1.000000000000000000e+00,0.000000000000000000e+00,6.800000000000000000e+01,1.344600000000000000e+04,3.131020069122314453e-01,1.587988853454589844e+00,2.749460670605254342e-01,0.000000000000000000e+00,1.120000000000000000e+02
1.000000000000000000e+00,1.000000000000000000e+00,1.000000000000000000e+00,6.200000000000000000e+01,1.350800000000000000e+04,3.158519268035888672e-01,1.816553831100463867e+00,5.080007555640442263e-01,0.000000000000000000e+00,1.120000000000000000e+02
1.000000000000000000e+00,1.000000000000000000e+00,1.000000000000000000e+00,6.600000000000000000e+01,1.357400000000000000e+04,3.302438259124755859e-01,1.649905920028686523e+00,3.248126369042979578e-01,0.000000000000000000e+00,1.120000000000000000e+02
1.000000000000000000e+00,1.000000000000000000e+00,1.000000000000000000e+00,6.400000000000000000e+01,1.363800000000000000e+04,2.783091068267822266e-01,2.018342018127441406e+00,7.428157032635096524e-01,0.000000000000000000e+00,1.120000000000000000e+02
1.000000000000000000e+00,1.000000000000000000e+00,1.000000000000000000e+00,7.000000000000000000e+01,1.370800000000000000e+04,3.116660118103027344e-01,1.700444936752319336e+00,3.937170426468116768e-01,0.000000000000000000e+00,1.120000000000000000e+02
0.000000000000000000e+00,1.000000000000000000e+00,0.000000000000000000e+00,6.800000000000000000e+01,1.377600000000000000e+04,3.917260169982910156e-01,1.751691102981567383e+00,3.621795868854243428e-01,0.000000000000000000e+00,1.120000000000000000e+02
0.000000000000000000e+00,1.000000000000000000e+00,0.000000000000000000e+00,7.000000000000000000e+01,1.384600000000000000e+04,3.367960453033447266e-01,1.924891948699951172e+00,6.035524254970865421e-01,0.000000000000000000e+00,1.120000000000000000e+02
1.000000000000000000e+00,1.000000000000000000e+00,1.000000000000000000e+00,6.700000000000000000e+01,1.391300000000000000e+04,2.755200862884521484e-01,1.665441989898681641e+00,4.026083882614495679e-01,0.000000000000000000e+00,1.120000000000000000e+02
0.000000000000000000e+00,1.000000000000000000e+00,0.000000000000000000e+00,5.700000000000000000e+01,1.397000000000000000e+04,3.779518604278564453e-01,1.896141052246093750e+00,5.153658499033832996e-01,0.000000000000000000e+00,1.120000000000000000e+02
0.000000000000000000e+00,1.000000000000000000e+00,0.000000000000000000e+00,6.500000000000000000e+01,1.403500000000000000e+04,3.709897994995117188e-01,1.979027986526489258e+00,6.110461032354399524e-01,0.000000000000000000e+00,1.120000000000000000e+02
0.000000000000000000e+00,1.000000000000000000e+00,0.000000000000000000e+00,6.400000000000000000e+01,1.409900000000000000e+04,3.174259662628173828e-01,1.635189056396484375e+00,3.299463438599475884e-01,0.000000000000000000e+00,1.120000000000000000e+02
0.000000000000000000e+00,1.000000000000000000e+00,0.000000000000000000e+00,6.700000000000000000e+01,1.416600000000000000e+04,3.590738773345947266e-01,1.880100965499877930e+00,5.432012472616438714e-01,0.000000000000000000e+00,1.120000000000000000e+02
0.000000000000000000e+00,1.000000000000000000e+00,0.000000000000000000e+00,6.800000000000000000e+01,1.423400000000000000e+04,2.978358268737792969e-01,1.820501089096069336e+00,5.305353511894415064e-01,0.000000000000000000e+00,1.120000000000000000e+02
0.000000000000000000e+00,1.000000000000000000e+00,0.000000000000000000e+00,6.500000000000000000e+01,1.429900000000000000e+04,2.736380100250244141e-01,1.945831060409545898e+00,6.762319908810721092e-01,0.000000000000000000e+00,1.120000000000000000e+02
0.000000000000000000e+00,1.000000000000000000e+00,0.000000000000000000e+00,6.800000000000000000e+01,1.436700000000000000e+04,3.002958297729492188e-01,1.739347934722900391e+00,4.492395997455432277e-01,0.000000000000000000e+00,1.120000000000000000e+02
1.000000000000000000e+00,1.000000000000000000e+00,1.000000000000000000e+00,6.300000000000000000e+01,1.443000000000000000e+04,3.193390369415283203e-01,1.959616899490356445e+00,6.420451041889160271e-01,0.000000000000000000e+00,1.120000000000000000e+02
1.000000000000000000e+00,1.000000000000000000e+00,1.000000000000000000e+00,6.600000000000000000e+01,1.449600000000000000e+04,2.733838558197021484e-01,1.695544958114624023e+00,4.378862769784937492e-01,0.000000000000000000e+00,1.120000000000000000e+02
0.000000000000000000e+00,1.000000000000000000e+00,0.000000000000000000e+00,6.400000000000000000e+01,1.456000000000000000e+04,3.455109596252441406e-01,2.043771982192993164e+00,6.981690341871276129e-01,0.000000000000000000e+00,1.120000000000000000e+02
1.000000000000000000e+00,0.000000000000000000e+00,0.000000000000000000e+00,3.500000000000000000e+01,1.459500000000000000e+04,3.565578460693359375e-01,1.911025047302246094e+00,5.593956624414605505e-01,0.000000000000000000e+00,1.120000000000000000e+02
1.000000000000000000e+00,1.000000000000000000e+00,1.000000000000000000e+00,6.700000000000000000e+01,1.466200000000000000e+04,2.956118583679199219e-01,1.766247034072875977e+00,4.757966836360090768e-01,0.000000000000000000e+00,1.120000000000000000e+02
0.000000000000000000e+00,1.000000000000000000e+00,0.000000000000000000e+00,6.400000000000000000e+01,1.472600000000000000e+04,2.809970378875732422e-01,1.866492033004760742e+00,5.922496770558240975e-01,0.000000000000000000e+00,1.120000000000000000e+02
0.000000000000000000e+00,1.000000000000000000e+00,0.000000000000000000e+00,6.300000000000000000e+01,1.478900000000000000e+04,3.353979587554931641e-01,1.894564867019653320e+00,5.702415994140010991e-01,0.000000000000000000e+00,1.120000000000000000e+02
0.000000000000000000e+00,1.000000000000000000e+00,0.000000000000000000e+00,7.100000000000000000e+01,1.486000000000000000e+04,3.274538516998291016e-01,1.709402799606323242e+00,3.799451936650052875e-01,0.000000000000000000e+00,1.120000000000000000e+02
1.000000000000000000e+00,1.000000000000000000e+00,1.000000000000000000e+00,6.500000000000000000e+01,1.492500000000000000e+04,3.246598243713378906e-01,1.985566139221191406e+00,6.819354730658278019e-01,0.000000000000000000e+00,1.120000000000000000e+02
1.000000000000000000e+00,1.000000000000000000e+00,1.000000000000000000e+00,7.100000000000000000e+01,1.499600000000000000e+04,3.296959400177001953e-01,1.880273103713989258e+00,5.457601461289175448e-01,0.000000000000000000e+00,1.120000000000000000e+02
1.000000000000000000e+00,1.000000000000000000e+00,1.000000000000000000e+00,7.000000000000000000e+01,1.506600000000000000e+04,2.870380878448486328e-01,1.801146984100341797e+00,5.303354450936262898e-01,0.000000000000000000e+00,1.120000000000000000e+02
1.000000000000000000e+00,1.000000000000000000e+00,1.000000000000000000e+00,6.800000000000000000e+01,1.513400000000000000e+04,3.024439811706542969e-01,2.029286861419677734e+00,7.261243628570783759e-01,0.000000000000000000e+00,1.120000000000000000e+02
0.000000000000000000e+00,1.000000000000000000e+00,0.000000000000000000e+00,6.400000000000000000e+01,1.519800000000000000e+04,3.698370456695556641e-01,1.879570007324218750e+00,5.226902374460167255e-01,0.000000000000000000e+00,1.120000000000000000e+02
1.000000000000000000e+00,1.000000000000000000e+00,1.000000000000000000e+00,6.200000000000000000e+01,1.526000000000000000e+04,3.792119026184082031e-01,2.082935810089111328e+00,7.055240703729097618e-01,0.000000000000000000e+00,1.120000000000000000e+02
1.000000000000000000e+00,1.000000000000000000e+00,1.000000000000000000e+00,6.600000000000000000e+01,1.532600000000000000e+04,2.863721847534179688e-01,1.707834959030151367e+00,4.303674287098245843e-01,0.000000000000000000e+00,1.120000000000000000e+02
0.000000000000000000e+00,1.000000000000000000e+00,0.000000000000000000e+00,6.000000000000000000e+01,1.538600000000000000e+04,3.617110252380371094e-01,1.665428876876831055e+00,2.960433610568293794e-01,0.000000000000000000e+00,1.120000000000000000e+02
1.000000000000000000e+00,1.000000000000000000e+00,1.000000000000000000e+00,6.900000000000000000e+01,1.545500000000000000e+04,3.197369575500488281e-01,2.011309146881103516e+00,7.070046072879995203e-01,0.000000000000000000e+00,1.120000000000000000e+02
0.000000000000000000e+00,1.000000000000000000e+00,0.000000000000000000e+00,6.000000000000000000e+01,1.551500000000000000e+04,3.031558990478515625e-01,1.703314065933227539e+00,4.105808180833017684e-01,0.000000000000000000e+00,1.120000000000000000e+02
1.000000000000000000e+00,1.000000000000000000e+00,1.000000000000000000e+00,6.300000000000000000e+01,1.557800000000000000e+04,3.162190914154052734e-01,1.713416814804077148e+00,4.075011857350280264e-01,0.000000000000000000e+00,1.120000000000000000e+02
1.000000000000000000e+00,1.000000000000000000e+00,1.000000000000000000e+00,6.400000000000000000e+01,1.564200000000000000e+04,3.476250171661376953e-01,2.081303119659423828e+00,7.385177226316314014e-01,0.000000000000000000e+00,1.120000000000000000e+02
0.000000000000000000e+00,1.000000000000000000e+00,0.000000000000000000e+00,6.600000000000000000e+01,1.570800000000000000e+04,2.923460006713867188e-01,2.001204967498779297e+00,7.231392739093698285e-01,0.000000000000000000e+00,1.120000000000000000e+02
0.000000000000000000e+00,1.000000000000000000e+00,0.000000000000000000e+00,6.200000000000000000e+01,1.577000000000000000e+04,2.983191013336181641e-01,1.834414958953857422e+00,5.412057991398844248e-01,0.000000000000000000e+00,1.120000000000000000e+02
0.000000000000000000e+00,1.000000000000000000e+00,0.000000000000000000e+00,6.600000000000000000e+01,1.583600000000000000e+04,3.244328498840332031e-01,1.653625965118408203e+00,3.284497956888307035e-01,0.000000000000000000e+00,1.120000000000000000e+02
0.000000000000000000e+00,1.000000000000000000e+00,0.000000000000000000e+00,6.200000000000000000e+01,1.589800000000000000e+04,3.121910095214843750e-01,2.018801927566528320e+00,7.135962803082727124e-01,0.000000000000000000e+00,1.120000000000000000e+02
1.000000000000000000e+00,1.000000000000000000e+00,1.000000000000000000e+00,6.000000000000000000e+01,1.595800000000000000e+04,3.449809551239013672e-01,1.928760051727294922e+00,5.759326411043343974e-01,0.000000000000000000e+00,1.120000000000000000e+02
1.000000000000000000e+00,1.000000000000000000e+00,1.000000000000000000e+00,6.400000000000000000e+01,1.602200000000000000e+04,3.553841114044189453e-01,1.796066045761108398e+00,4.554946475604096934e-01,0.000000000000000000e+00,1.120000000000000000e+02
0.000000000000000000e+00,1.000000000000000000e+00,0.000000000000000000e+00,6.600000000000000000e+01,1.608800000000000000e+04,3.024010658264160156e-01,1.973019123077392578e+00,6.783961579765959149e-01,0.000000000000000000e+00,1.120000000000000000e+02
0.000000000000000000e+00,1.000000000000000000e+00,0.000000000000000000e+00,7.400000000000000000e+01,1.616200000000000000e+04,3.948328495025634766e-01,1.873029947280883789e+00,4.850507540962217257e-01,0.000000000000000000e+00,1.120000000000000000e+02
0.000000000000000000e+00,1.000000000000000000e+00,0.000000000000000000e+00,6.700000000000000000e+01,1.622900000000000000e+04,3.275389671325683594e-01,2.062510967254638672e+00,7.307029053487374970e-01,0.000000000000000000e+00,1.120000000000000000e+02
1.000000000000000000e+00,1.000000000000000000e+00,1.000000000000000000e+00,6.200000000000000000e+01,1.629100000000000000e+04,3.159449100494384766e-01,1.695634126663208008e+00,3.767776483351649719e-01,0.000000000000000000e+00,1.120000000000000000e+02
0.000000000000000000e+00,1.000000000000000000e+00,0.000000000000000000e+00,6.700000000000000000e+01,1.635800000000000000e+04,3.317368030548095703e-01,1.716902971267700195e+00,3.937428343844737721e-01,0.000000000000000000e+00,1.120000000000000000e+02
0.000000000000000000e+00,1.000000000000000000e+00,0.000000000000000000e+00,6.200000000000000000e+01,1.642000000000000000e+04,3.661699295043945312e-01,1.787209033966064453e+00,4.309983491055017213e-01,0.000000000000000000e+00,1.120000000000000000e+02
1.000000000000000000e+00,1.000000000000000000e+00,1.000000000000000000e+00,6.800000000000000000e+01,1.648800000000000000e+04,3.801369667053222656e-01,1.692919015884399414e+00,3.074331768309442325e-01,0.000000000000000000e+00,1.120000000000000000e+02
0.000000000000000000e+00,1.000000000000000000e+00,0.000000000000000000e+00,6.400000000000000000e+01,1.655200000000000000e+04,3.628189563751220703e-01,2.009011030197143555e+00,6.494873867747514851e-01,0.000000000000000000e+00,1.120000000000000000e+02
1.000000000000000000e+00,1.000000000000000000e+00,1.000000000000000000e+00,6.800000000000000000e+01,1.662000000000000000e+04,3.212268352508544922e-01,1.630367040634155273e+00,3.136127946958461310e-01,0.000000000000000000e+00,1.120000000000000000e+02
1.000000000000000000e+00,1.000000000000000000e+00,1.000000000000000000e+00,6.300000000000000000e+01,1.668300000000000000e+04,3.286509513854980469e-01,2.017783164978027344e+00,6.977699484628008264e-01,0.000000000000000000e+00,1.120000000000000000e+02
0.000000000000000000e+00,1.000000000000000000e+00,0.000000000000000000e+00,6.700000000000000000e+01,1.675000000000000000e+04,3.313620090484619141e-01,2.043203830718994141e+00,7.076203360596524661e-01,0.000000000000000000e+00,1.120000000000000000e+02
0.000000000000000000e+00,1.000000000000000000e+00,0.000000000000000000e+00,6.800000000000000000e+01,1.681800000000000000e+04,3.840701580047607422e-01,2.013972997665405273e+00,6.384361663772365469e-01,0.000000000000000000e+00,1.120000000000000000e+02
0.000000000000000000e+00,1.000000000000000000e+00,0.000000000000000000e+00,6.900000000000000000e+01,1.688700000000000000e+04,3.264598846435546875e-01,1.662281990051269531e+00,3.345309018719059835e-01,0.000000000000000000e+00,1.120000000000000000e+02
0.000000000000000000e+00,1.000000000000000000e+00,0.000000000000000000e+00,6.600000000000000000e+01,1.695300000000000000e+04,3.719489574432373047e-01,1.851186037063598633e+00,4.856345898776971981e-01,0.000000000000000000e+00,1.120000000000000000e+02
0.000000000000000000e+00,1.000000000000000000e+00,0.000000000000000000e+00,6.600000000000000000e+01,1.701900000000000000e+04,2.880170345306396484e-01,1.698725938796997070e+00,4.177511455402283524e-01,0.000000000000000000e+00,1.120000000000000000e+02
0.000000000000000000e+00,1.000000000000000000e+00,0.000000000000000000e+00,6.800000000000000000e+01,1.708700000000000000e+04,3.150360584259033203e-01,1.770797014236450195e+00,4.552223674105737583e-01,0.000000000000000000e+00,1.120000000000000000e+02
0.000000000000000000e+00,1.000000000000000000e+00,0.000000000000000000e+00,6.800000000000000000e+01,1.715500000000000000e+04,3.473360538482666016e-01,1.718682050704956055e+00,3.740980425930108821e-01,0.000000000000000000e+00,1.120000000000000000e+02
0.000000000000000000e+00,1.000000000000000000e+00,0.000000000000000000e+00,6.700000000000000000e+01,1.722200000000000000e+04,3.167569637298583984e-01,1.565160989761352539e+00,2.561210599823631751e-01,0.000000000000000000e+00,1.120000000000000000e+02
0.000000000000000000e+00,1.000000000000000000e+00,0.000000000000000000e+00,6.900000000000000000e+01,1.729100000000000000e+04,3.051540851593017578e-01,1.839373111724853516e+00,5.452466193339595701e-01,0.000000000000000000e+00,1.120000000000000000e+02
1.000000000000000000e+00,1.000000000000000000e+00,1.000000000000000000e+00,6.900000000000000000e+01,1.736000000000000000e+04,3.579781055450439453e-01,2.024702072143554688e+00,6.865180938039828762e-01,0.000000000000000000e+00,1.120000000000000000e+02
1.000000000000000000e+00,1.000000000000000000e+00,1.000000000000000000e+00,7.200000000000000000e+01,1.743200000000000000e+04,3.036918640136718750e-01,2.038615942001342773e+00,7.418952778097090972e-01,0.000000000000000000e+00,1.120000000000000000e+02
1.000000000000000000e+00,1.000000000000000000e+00,1.000000000000000000e+00,7.000000000000000000e+01,1.750200000000000000e+04,3.184349536895751953e-01,1.628375053405761719e+00,3.207558728977171203e-01,0.000000000000000000e+00,1.120000000000000000e+02
1.000000000000000000e+00,1.000000000000000000e+00,1.000000000000000000e+00,6.200000000000000000e+01,1.756400000000000000e+04,3.550710678100585938e-01,1.621584892272949219e+00,2.757994871337310916e-01,0.000000000000000000e+00,1.120000000000000000e+02
1.000000000000000000e+00,1.000000000000000000e+00,1.000000000000000000e+00,6.000000000000000000e+01,1.762400000000000000e+04,3.044700622558593750e-01,1.666424989700317383e+00,3.755034344800107782e-01,0.000000000000000000e+00,1.120000000000000000e+02
1.000000000000000000e+00,1.000000000000000000e+00,1.000000000000000000e+00,6.600000000000000000e+01,1.769000000000000000e+04,3.067760467529296875e-01,1.926612854003906250e+00,6.352819130917248813e-01,0.000000000000000000e+00,1.120000000000000000e+02
1.000000000000000000e+00,1.000000000000000000e+00,1.000000000000000000e+00,6.200000000000000000e+01,1.775200000000000000e+04,2.975819110870361328e-01,1.689270019531250000e+00,3.915075190372748759e-01,0.000000000000000000e+00,1.120000000000000000e+02
1.000000000000000000e+00,1.000000000000000000e+00,1.000000000000000000e+00,6.400000000000000000e+01,1.781600000000000000e+04,3.053069114685058594e-01,1.882905006408691406e+00,5.909257962631573324e-01,0.000000000000000000e+00,1.120000000000000000e+02
0.000000000000000000e+00,1.000000000000000000e+00,0.000000000000000000e+00,6.600000000000000000e+01,1.788200000000000000e+04,3.350560665130615234e-01,2.020934104919433594e+00,6.952127639139831228e-01,0.000000000000000000e+00,1.120000000000000000e+02
1.000000000000000000e+00,1.000000000000000000e+00,1.000000000000000000e+00,6.800000000000000000e+01,1.795000000000000000e+04,3.033649921417236328e-01,1.631294012069702148e+00,3.435831299987650023e-01,0.000000000000000000e+00,1.120000000000000000e+02
0.000000000000000000e+00,1.000000000000000000e+00,0.000000000000000000e+00,6.800000000000000000e+01,1.801800000000000000e+04,3.400809764862060547e-01,1.760632991790771484e+00,4.375376392884713916e-01,0.000000000000000000e+00,1.120000000000000000e+02
0.000000000000000000e+00,1.000000000000000000e+00,0.000000000000000000e+00,6.700000000000000000e+01,1.808500000000000000e+04,3.994829654693603516e-01,1.690752983093261719e+00,2.951901128090630433e-01,0.000000000000000000e+00,1.120000000000000000e+02
1.000000000000000000e+00,1.000000000000000000e+00,1.000000000000000000e+00,6.800000000000000000e+01,1.815300000000000000e+04,2.873249053955078125e-01,1.528748035430908203e+00,2.573820181955305819e-01,0.000000000000000000e+00,1.120000000000000000e+02
0.000000000000000000e+00,1.000000000000000000e+00,0.000000000000000000e+00,6.400000000000000000e+01,1.821700000000000000e+04,3.218991756439208984e-01,1.669430017471313477e+00,3.600842070233315484e-01,0.000000000000000000e+00,1.120000000000000000e+02
1.000000000000000000e+00,1.000000000000000000e+00,1.000000000000000000e+00,6.100000000000000000e+01,1.827800000000000000e+04,2.982959747314453125e-01,1.611601114273071289e+00,3.218030637755150969e-01,0.000000000000000000e+00,1.120000000000000000e+02
1.000000000000000000e+00,1.000000000000000000e+00,1.000000000000000000e+00,6.400000000000000000e+01,1.834200000000000000e+04,3.106920719146728516e-01,1.683419942855834961e+00,3.719053883371970515e-01,0.000000000000000000e+00,1.120000000000000000e+02
1.000000000000000000e+00,1.000000000000000000e+00,1.000000000000000000e+00,6.600000000000000000e+01,1.840800000000000000e+04,3.314878940582275391e-01,2.068145036697387695e+00,7.397393397285275674e-01,0.000000000000000000e+00,1.120000000000000000e+02
1.000000000000000000e+00,1.000000000000000000e+00,1.000000000000000000e+00,6.800000000000000000e+01,1.847600000000000000e+04,3.519279956817626953e-01,1.722722053527832031e+00,3.795777033644163745e-01,0.000000000000000000e+00,1.120000000000000000e+02
1.000000000000000000e+00,1.000000000000000000e+00,1.000000000000000000e+00,6.400000000000000000e+01,1.854000000000000000e+04,2.952990531921386719e-01,1.990831851959228516e+00,7.034580061180522037e-01,0.000000000000000000e+00,1.120000000000000000e+02
0.000000000000000000e+00,1.000000000000000000e+00,0.000000000000000000e+00,6.300000000000000000e+01,1.860300000000000000e+04,2.783031463623046875e-01,1.615153789520263672e+00,3.357646011735623826e-01,0.000000000000000000e+00,1.120000000000000000e+02
1.000000000000000000e+00,0.000000000000000000e+00,0.000000000000000000e+00,4.300000000000000000e+01,1.864600000000000000e+04,3.227012157440185547e-01,1.880322217941284180e+00,5.659141724248049066e-01,1.000000000000000000e+00,1.110000000000000000e+02
0.000000000000000000e+00,1.000000000000000000e+00,0.000000000000000000e+00,5.600000000000000000e+01,1.870200000000000000e+04,4.034361839294433594e-01,1.958040952682495117e+00,5.574076659230142727e-01,0.000000000000000000e+00,1.110000000000000000e+02
0.000000000000000000e+00,1.000000000000000000e+00,0.000000000000000000e+00,5.700000000000000000e+01,1.875900000000000000e+04,3.834829330444335938e-01,2.020267009735107422e+00,6.443266310534405683e-01,0.000000000000000000e+00,1.110000000000000000e+02
0.000000000000000000e+00,1.000000000000000000e+00,0.000000000000000000e+00,5.700000000000000000e+01,1.881600000000000000e+04,3.240180015563964844e-01,1.891236066818237305e+00,5.856973775135618787e-01,0.000000000000000000e+00,1.110000000000000000e+02
0.000000000000000000e+00,1.000000000000000000e+00,0.000000000000000000e+00,5.600000000000000000e+01,1.887200000000000000e+04,3.420701026916503906e-01,1.722589015960693359e+00,3.918945623395814759e-01,0.000000000000000000e+00,1.110000000000000000e+02
0.000000000000000000e+00,1.000000000000000000e+00,0.000000000000000000e+00,5.600000000000000000e+01,1.892800000000000000e+04,4.573638439178466797e-01,2.110872983932495117e+00,6.692338234498302896e-01,0.000000000000000000e+00,1.110000000000000000e+02
1.000000000000000000e+00,1.000000000000000000e+00,1.000000000000000000e+00,5.600000000000000000e+01,1.898400000000000000e+04,3.918769359588623047e-01,1.685827016830444336e+00,3.055083473048693099e-01,0.000000000000000000e+00,1.110000000000000000e+02
1.000000000000000000e+00,1.000000000000000000e+00,1.000000000000000000e+00,6.400000000000000000e+01,1.904800000000000000e+04,3.025870323181152344e-01,1.970649003982543945e+00,6.758688122879379367e-01,0.000000000000000000e+00,1.110000000000000000e+02
0.000000000000000000e+00,1.000000000000000000e+00,0.000000000000000000e+00,5.600000000000000000e+01,1.910400000000000000e+04,4.040520191192626953e-01,1.906998872756958008e+00,5.164363372297369192e-01,0.000000000000000000e+00,1.110000000000000000e+02
1.000000000000000000e+00,1.000000000000000000e+00,1.000000000000000000e+00,5.900000000000000000e+01,1.916300000000000000e+04,3.234281539916992188e-01,1.888449907302856445e+00,5.715913807479857667e-01,0.000000000000000000e+00,1.110000000000000000e+02
1.000000000000000000e+00,1.000000000000000000e+00,1.000000000000000000e+00,5.600000000000000000e+01,1.921900000000000000e+04,3.581891059875488281e-01,1.953636169433593750e+00,5.752632402374006082e-01,0.000000000000000000e+00,1.110000000000000000e+02
1.000000000000000000e+00,1.000000000000000000e+00,1.000000000000000000e+00,5.900000000000000000e+01,1.927800000000000000e+04,3.001959323883056641e-01,1.802989006042480469e+00,5.117451597648698947e-01,0.000000000000000000e+00,1.110000000000000000e+02
0.000000000000000000e+00,1.000000000000000000e+00,0.000000000000000000e+00,6.500000000000000000e+01,1.934300000000000000e+04,4.162571430206298828e-01,1.981503963470458984e+00,5.765995745659291405e-01,0.000000000000000000e+00,1.110000000000000000e+02
0.000000000000000000e+00,1.000000000000000000e+00,0.000000000000000000e+00,6.000000000000000000e+01,1.940300000000000000e+04,3.800578117370605469e-01,2.102753162384033203e+00,7.292445277875942988e-01,0.000000000000000000e+00,1.110000000000000000e+02
0.000000000000000000e+00,1.000000000000000000e+00,0.000000000000000000e+00,5.500000000000000000e+01,1.945800000000000000e+04,3.661189079284667969e-01,2.020504951477050781e+00,6.665903907087808999e-01,0.000000000000000000e+00,1.110000000000000000e+02
1.000000000000000000e+00,1.000000000000000000e+00,1.000000000000000000e+00,6.300000000000000000e+01,1.952100000000000000e+04,3.238351345062255859e-01,1.944529056549072266e+00,6.279138234548014008e-01,0.000000000000000000e+00,1.110000000000000000e+02
1.000000000000000000e+00,1.000000000000000000e+00,1.000000000000000000e+00,5.600000000000000000e+01,1.957700000000000000e+04,3.405499458312988281e-01,1.899405956268310547e+00,5.774558022260035672e-01,0.000000000000000000e+00,1.110000000000000000e+02
0.000000000000000000e+00,1.000000000000000000e+00,0.000000000000000000e+00,6.100000000000000000e+01,1.963800000000000000e+04,3.815829753875732422e-01,1.733185052871704102e+00,3.609353803607013300e-01,0.000000000000000000e+00,1.110000000000000000e+02
0.000000000000000000e+00,1.000000000000000000e+00,0.000000000000000000e+00,6.000000000000000000e+01,1.969800000000000000e+04,3.372509479522705078e-01,1.761610984802246094e+00,4.392123926174785198e-01,0.000000000000000000e+00,1.110000000000000000e+02
0.000000000000000000e+00,1.000000000000000000e+00,0.000000000000000000e+00,5.400000000000000000e+01,1.975200000000000000e+04,4.006910324096679688e-01,2.122470140457153320e+00,7.281570225136542174e-01,0.000000000000000000e+00,1.110000000000000000e+02
1.000000000000000000e+00,1.000000000000000000e+00,1.000000000000000000e+00,6.100000000000000000e+01,1.981300000000000000e+04,3.380839824676513672e-01,1.726883888244628906e+00,4.054355872996547316e-01,0.000000000000000000e+00,1.110000000000000000e+02
1.000000000000000000e+00,1.000000000000000000e+00,1.000000000000000000e+00,5.600000000000000000e+01,1.986900000000000000e+04,2.818400859832763672e-01,1.863155841827392578e+00,5.851330629817151907e-01,0.000000000000000000e+00,1.110000000000000000e+02
0.000000000000000000e+00,1.000000000000000000e+00,0.000000000000000000e+00,5.600000000000000000e+01,1.992500000000000000e+04,3.151900768280029297e-01,1.687468051910400391e+00,3.728904078223427843e-01,0.000000000000000000e+00,1.110000000000000000e+02
0.000000000000000000e+00,1.000000000000000000e+00,0.000000000000000000e+00,6.100000000000000000e+01,1.998600000000000000e+04,4.879651069641113281e-01,2.087044954299926758e+00,6.097684680550241598e-01,0.000000000000000000e+00,1.110000000000000000e+02
0.000000000000000000e+00,1.000000000000000000e+00,0.000000000000000000e+00,6.000000000000000000e+01,2.004600000000000000e+04,3.077008724212646484e-01,1.719972848892211914e+00,4.300098746509327108e-01,0.000000000000000000e+00,1.110000000000000000e+02
0.000000000000000000e+00,1.000000000000000000e+00,0.000000000000000000e+00,6.000000000000000000e+01,2.010600000000000000e+04,3.010759353637695312e-01,1.669078111648559570e+00,3.825440386602504961e-01,0.000000000000000000e+00,1.110000000000000000e+02
1.000000000000000000e+00,1.000000000000000000e+00,1.000000000000000000e+00,5.600000000000000000e+01,2.016200000000000000e+04,3.298389911651611328e-01,1.942307949066162109e+00,6.080200167130404010e-01,0.000000000000000000e+00,1.110000000000000000e+02
1.000000000000000000e+00,1.000000000000000000e+00,1.000000000000000000e+00,5.600000000000000000e+01,2.021800000000000000e+04,3.044860363006591797e-01,1.944930076599121094e+00,6.530122923721652928e-01,0.000000000000000000e+00,1.110000000000000000e+02
0.000000000000000000e+00,1.000000000000000000e+00,0.000000000000000000e+00,5.700000000000000000e+01,2.027500000000000000e+04,4.116518497467041016e-01,1.804574966430664062e+00,3.912629388499280214e-01,0.000000000000000000e+00,1.110000000000000000e+02
0.000000000000000000e+00,1.000000000000000000e+00,0.000000000000000000e+00,6.100000000000000000e+01,2.033600000000000000e+04,3.626739978790283203e-01,1.829563140869140625e+00,4.708027593432360658e-01,0.000000000000000000e+00,1.110000000000000000e+02
0.000000000000000000e+00,1.000000000000000000e+00,0.000000000000000000e+00,6.200000000000000000e+01,2.039800000000000000e+04,3.734319210052490234e-01,1.819885969161987305e+00,4.574399797039735427e-01,0.000000000000000000e+00,1.110000000000000000e+02
1.000000000000000000e+00,1.000000000000000000e+00,1.000000000000000000e+00,5.600000000000000000e+01,2.045400000000000000e+04,4.068148136138916016e-01,1.703876018524169922e+00,3.115305554540136468e-01,0.000000000000000000e+00,1.110000000000000000e+02
0.000000000000000000e+00,1.000000000000000000e+00,0.000000000000000000e+00,5.600000000000000000e+01,2.051000000000000000e+04,4.068980216979980469e-01,1.734462022781372070e+00,3.460704670208191169e-01,0.000000000000000000e+00,1.110000000000000000e+02
0.000000000000000000e+00,1.000000000000000000e+00,0.000000000000000000e+00,5.500000000000000000e+01,2.056500000000000000e+04,3.286430835723876953e-01,2.042441129684448242e+00,7.215128860406001543e-01,0.000000000000000000e+00,1.110000000000000000e+02
0.000000000000000000e+00,1.000000000000000000e+00,0.000000000000000000e+00,5.900000000000000000e+01,2.062400000000000000e+04,2.916488647460937500e-01,1.820666074752807617e+00,5.424708731793876915e-01,0.000000000000000000e+00,1.110000000000000000e+02
0.000000000000000000e+00,1.000000000000000000e+00,0.000000000000000000e+00,6.200000000000000000e+01,2.068600000000000000e+04,3.111000061035156250e-01,1.618638038635253906e+00,3.113850099050727849e-01,0.000000000000000000e+00,1.110000000000000000e+02
0.000000000000000000e+00,1.000000000000000000e+00,0.000000000000000000e+00,6.000000000000000000e+01,2.074600000000000000e+04,4.244320392608642578e-01,2.022457838058471680e+00,6.169731986562622117e-01,0.000000000000000000e+00,1.110000000000000000e+02
1.000000000000000000e+00,1.000000000000000000e+00,1.000000000000000000e+00,5.500000000000000000e+01,2.080100000000000000e+04,3.141760826110839844e-01,1.818687915802001953e+00,5.024867135215145275e-01,0.000000000000000000e+00,1.110000000000000000e+02
1.000000000000000000e+00,1.000000000000000000e+00,1.000000000000000000e+00,5.200000000000000000e+01,2.085300000000000000e+04,2.715790271759033203e-01,1.953263044357299805e+00,6.889395433430618443e-01,0.000000000000000000e+00,1.110000000000000000e+02
0.000000000000000000e+00,1.000000000000000000e+00,0.000000000000000000e+00,5.900000000000000000e+01,2.091200000000000000e+04,3.676409721374511719e-01,1.731083869934082031e+00,3.705051612737444988e-01,0.000000000000000000e+00,1.110000000000000000e+02
1.000000000000000000e+00,1.000000000000000000e+00,1.000000000000000000e+00,5.900000000000000000e+01,2.097100000000000000e+04,2.913801670074462891e-01,1.947566986083984375e+00,6.677886382985867009e-01,0.000000000000000000e+00,1.110000000000000000e+02
0.000000000000000000e+00,1.000000000000000000e+00,0.000000000000000000e+00,5.400000000000000000e+01,2.102500000000000000e+04,3.104360103607177734e-01,1.724529981613159180e+00,4.093287978546866213e-01,0.000000000000000000e+00,1.110000000000000000e+02
1.000000000000000000e+00,1.000000000000000000e+00,1.000000000000000000e+00,5.600000000000000000e+01,2.108100000000000000e+04,2.879519462585449219e-01,1.919932842254638672e+00,6.458456542508470566e-01,0.000000000000000000e+00,1.110000000000000000e+02
1.000000000000000000e+00,1.000000000000000000e+00,1.000000000000000000e+00,5.900000000000000000e+01,2.114000000000000000e+04,2.923710346221923828e-01,1.877496004104614258e+00,6.068082711653554062e-01,0.000000000000000000e+00,1.110000000000000000e+02
0.000000000000000000e+00,1.000000000000000000e+00,0.000000000000000000e+00,5.600000000000000000e+01,2.119600000000000000e+04,3.660609722137451172e-01,1.761761188507080078e+00,4.021909261422286219e-01,0.000000000000000000e+00,1.110000000000000000e+02
1.000000000000000000e+00,1.000000000000000000e+00,1.000000000000000000e+00,5.900000000000000000e+01,2.125500000000000000e+04,3.014669418334960938e-01,2.003895044326782227e+00,7.057717364674427341e-01,0.000000000000000000e+00,1.110000000000000000e+02
0.000000000000000000e+00,1.000000000000000000e+00,0.000000000000000000e+00,5.900000000000000000e+01,2.131400000000000000e+04,3.705470561981201172e-01,1.760954856872558594e+00,4.005125500293631458e-01,0.000000000000000000e+00,1.110000000000000000e+02
0.000000000000000000e+00,1.000000000000000000e+00,0.000000000000000000e+00,5.900000000000000000e+01,2.137300000000000000e+04,3.198750019073486328e-01,1.899926900863647461e+00,5.836856324808241681e-01,0.000000000000000000e+00,1.110000000000000000e+02
0.000000000000000000e+00,1.000000000000000000e+00,0.000000000000000000e+00,6.400000000000000000e+01,2.143700000000000000e+04,3.080887794494628906e-01,1.988353013992309570e+00,6.886034068224561322e-01,0.000000000000000000e+00,1.110000000000000000e+02
0.000000000000000000e+00,1.000000000000000000e+00,0.000000000000000000e+00,5.900000000000000000e+01,2.149600000000000000e+04,3.136949539184570312e-01,1.902425050735473633e+00,5.911822467951883819e-01,0.000000000000000000e+00,1.110000000000000000e+02
1.000000000000000000e+00,1.000000000000000000e+00,1.000000000000000000e+00,5.900000000000000000e+01,2.155500000000000000e+04,3.487100601196289062e-01,1.830492973327636719e+00,4.885336040161811777e-01,0.000000000000000000e+00,1.110000000000000000e+02
1.000000000000000000e+00,1.000000000000000000e+00,1.000000000000000000e+00,6.200000000000000000e+01,2.161700000000000000e+04,3.083949089050292969e-01,1.932710886001586914e+00,6.378263357037381454e-01,0.000000000000000000e+00,1.110000000000000000e+02
0.000000000000000000e+00,1.000000000000000000e+00,0.000000000000000000e+00,5.700000000000000000e+01,2.167400000000000000e+04,3.520858287811279297e-01,1.635790824890136719e+00,2.907262859354335927e-01,0.000000000000000000e+00,1.110000000000000000e+02
1.000000000000000000e+00,1.000000000000000000e+00,1.000000000000000000e+00,6.000000000000000000e+01,2.173400000000000000e+04,2.898068428039550781e-01,1.572268009185791016e+00,2.963750843600677087e-01,0.000000000000000000e+00,1.110000000000000000e+02
0.000000000000000000e+00,1.000000000000000000e+00,0.000000000000000000e+00,5.600000000000000000e+01,2.179000000000000000e+04,3.421928882598876953e-01,1.738766193389892578e+00,4.017804802582646828e-01,0.000000000000000000e+00,1.110000000000000000e+02
0.000000000000000000e+00,1.000000000000000000e+00,0.000000000000000000e+00,6.000000000000000000e+01,2.185000000000000000e+04,3.433871269226074219e-01,2.060954809188842773e+00,7.124923093718191769e-01,0.000000000000000000e+00,1.110000000000000000e+02
1.000000000000000000e+00,1.000000000000000000e+00,1.000000000000000000e+00,5.400000000000000000e+01,2.190400000000000000e+04,3.083460330963134766e-01,1.860612869262695312e+00,5.733329932348025793e-01,0.000000000000000000e+00,1.110000000000000000e+02
1.000000000000000000e+00,1.000000000000000000e+00,1.000000000000000000e+00,5.900000000000000000e+01,2.196300000000000000e+04,3.538589477539062500e-01,1.979490995407104492e+00,6.361914180280914266e-01,0.000000000000000000e+00,1.110000000000000000e+02
0.000000000000000000e+00,1.000000000000000000e+00,0.000000000000000000e+00,6.000000000000000000e+01,2.202300000000000000e+04,3.265779018402099609e-01,2.010826826095581055e+00,6.803951566939766549e-01,0.000000000000000000e+00,1.110000000000000000e+02
1.000000000000000000e+00,1.000000000000000000e+00,1.000000000000000000e+00,5.600000000000000000e+01,2.207900000000000000e+04,2.999310493469238281e-01,1.802625894546508789e+00,4.999208979663585239e-01,0.000000000000000000e+00,1.110000000000000000e+02
1.000000000000000000e+00,1.000000000000000000e+00,1.000000000000000000e+00,5.600000000000000000e+01,2.213500000000000000e+04,3.309628963470458984e-01,1.717303037643432617e+00,3.840881378489910958e-01,0.000000000000000000e+00,1.110000000000000000e+02
1.000000000000000000e+00,1.000000000000000000e+00,1.000000000000000000e+00,5.500000000000000000e+01,2.219000000000000000e+04,3.463139533996582031e-01,1.670027017593383789e+00,3.209175700300648804e-01,0.000000000000000000e+00,1.110000000000000000e+02
0.000000000000000000e+00,1.000000000000000000e+00,0.000000000000000000e+00,6.300000000000000000e+01,2.225300000000000000e+04,3.487250804901123047e-01,1.773496150970458984e+00,4.277077852508132660e-01,0.000000000000000000e+00,1.110000000000000000e+02
0.000000000000000000e+00,1.000000000000000000e+00,0.000000000000000000e+00,6.000000000000000000e+01,2.231300000000000000e+04,3.211150169372558594e-01,1.931372880935668945e+00,6.256212135053302870e-01,0.000000000000000000e+00,1.110000000000000000e+02
0.000000000000000000e+00,1.000000000000000000e+00,0.000000000000000000e+00,6.000000000000000000e+01,2.237300000000000000e+04,2.970731258392333984e-01,1.807500123977661133e+00,5.166648132165868601e-01,0.000000000000000000e+00,1.110000000000000000e+02
1.000000000000000000e+00,1.000000000000000000e+00,1.000000000000000000e+00,5.700000000000000000e+01,2.243000000000000000e+04,3.443021774291992188e-01,1.722028970718383789e+00,3.722799278651222621e-01,0.000000000000000000e+00,1.110000000000000000e+02
0.000000000000000000e+00,1.000000000000000000e+00,0.000000000000000000e+00,5.700000000000000000e+01,2.248700000000000000e+04,3.936789035797119141e-01,1.660402059555053711e+00,2.661535711969337248e-01,0.000000000000000000e+00,1.110000000000000000e+02
1.000000000000000000e+00,1.000000000000000000e+00,1.000000000000000000e+00,5.900000000000000000e+01,2.254600000000000000e+04,3.131058216094970703e-01,1.904937028884887695e+00,5.875004962162653221e-01,0.000000000000000000e+00,1.110000000000000000e+02
0.000000000000000000e+00,1.000000000000000000e+00,0.000000000000000000e+00,6.200000000000000000e+01,2.260800000000000000e+04,3.172001838684082031e-01,1.952872991561889648e+00,6.403751045590443391e-01,0.000000000000000000e+00,1.110000000000000000e+02
0.000000000000000000e+00,1.000000000000000000e+00,0.000000000000000000e+00,5.600000000000000000e+01,2.266400000000000000e+04,4.032399654388427734e-01,1.733615159988403320e+00,3.410802965360927863e-01,0.000000000000000000e+00,1.110000000000000000e+02
1.000000000000000000e+00,1.000000000000000000e+00,1.000000000000000000e+00,6.300000000000000000e+01,2.272700000000000000e+04,3.370139598846435547e-01,1.909352064132690430e+00,5.836103533651975095e-01,0.000000000000000000e+00,1.110000000000000000e+02
1.000000000000000000e+00,1.000000000000000000e+00,1.000000000000000000e+00,6.000000000000000000e+01,2.278700000000000000e+04,5.093588829040527344e-01,2.117268085479736328e+00,6.009256996318853572e-01,0.000000000000000000e+00,1.110000000000000000e+02
0.000000000000000000e+00,1.000000000000000000e+00,0.000000000000000000e+00,5.500000000000000000e+01,2.284200000000000000e+04,3.917989730834960938e-01,1.660298824310302734e+00,2.782922834331863493e-01,0.000000000000000000e+00,1.110000000000000000e+02
1.000000000000000000e+00,1.000000000000000000e+00,1.000000000000000000e+00,5.900000000000000000e+01,2.290100000000000000e+04,4.488699436187744141e-01,1.819265127182006836e+00,3.808600768276623194e-01,0.000000000000000000e+00,1.110000000000000000e+02
1.000000000000000000e+00,1.000000000000000000e+00,1.000000000000000000e+00,6.000000000000000000e+01,2.296100000000000000e+04,4.095900058746337891e-01,2.034580945968627930e+00,6.319397097992758283e-01,0.000000000000000000e+00,1.110000000000000000e+02
1.000000000000000000e+00,1.000000000000000000e+00,1.000000000000000000e+00,6.200000000000000000e+01,2.302300000000000000e+04,3.823280334472656250e-01,2.033108949661254883e+00,6.484670087137892613e-01,0.000000000000000000e+00,1.110000000000000000e+02
1.000000000000000000e+00,1.000000000000000000e+00,1.000000000000000000e+00,6.300000000000000000e+01,2.308600000000000000e+04,3.230569362640380859e-01,1.748880147933959961e+00,4.309410184893560647e-01,0.000000000000000000e+00,1.110000000000000000e+02
0.000000000000000000e+00,1.000000000000000000e+00,0.000000000000000000e+00,5.700000000000000000e+01,2.314300000000000000e+04,3.441019058227539062e-01,2.038197994232177734e+00,6.856469044236834787e-01,0.000000000000000000e+00,1.110000000000000000e+02
0.000000000000000000e+00,1.000000000000000000e+00,0.000000000000000000e+00,5.900000000000000000e+01,2.320200000000000000e+04,3.198688030242919922e-01,1.867230892181396484e+00,5.530783117221671485e-01,0.000000000000000000e+00,1.110000000000000000e+02
0.000000000000000000e+00,1.000000000000000000e+00,0.000000000000000000e+00,5.900000000000000000e+01,2.326100000000000000e+04,3.093299865722656250e-01,1.607909202575683594e+00,3.113053284466768544e-01,0.000000000000000000e+00,1.110000000000000000e+02
0.000000000000000000e+00,1.000000000000000000e+00,0.000000000000000000e+00,6.100000000000000000e+01,2.332200000000000000e+04,3.643419742584228516e-01,1.969956874847412109e+00,6.143707907525781664e-01,0.000000000000000000e+00,1.110000000000000000e+02
0.000000000000000000e+00,1.000000000000000000e+00,0.000000000000000000e+00,6.000000000000000000e+01,2.338200000000000000e+04,3.319609165191650391e-01,2.037082195281982422e+00,7.014321356735667701e-01,0.000000000000000000e+00,1.110000000000000000e+02
1.000000000000000000e+00,1.000000000000000000e+00,1.000000000000000000e+00,6.100000000000000000e+01,2.344300000000000000e+04,3.007280826568603516e-01,1.589434862136840820e+00,2.914038228854529677e-01,0.000000000000000000e+00,1.110000000000000000e+02
1.000000000000000000e+00,1.000000000000000000e+00,1.000000000000000000e+00,6.000000000000000000e+01,2.350300000000000000e+04,3.195061683654785156e-01,1.981698036193847656e+00,6.728101845612064480e-01,0.000000000000000000e+00,1.110000000000000000e+02
1.000000000000000000e+00,1.000000000000000000e+00,1.000000000000000000e+00,5.500000000000000000e+01,2.355800000000000000e+04,3.042187690734863281e-01,1.756788015365600586e+00,4.631834391302346865e-01,0.000000000000000000e+00,1.110000000000000000e+02
1.000000000000000000e+00,1.000000000000000000e+00,1.000000000000000000e+00,5.600000000000000000e+01,2.361400000000000000e+04,2.662868499755859375e-01,1.683314800262451172e+00,4.299920488865571766e-01,0.000000000000000000e+00,1.110000000000000000e+02
1.000000000000000000e+00,1.000000000000000000e+00,1.000000000000000000e+00,6.200000000000000000e+01,2.367600000000000000e+04,2.610068321228027344e-01,1.508839845657348633e+00,2.556733688762237722e-01,0.000000000000000000e+00,1.110000000000000000e+02
0.000000000000000000e+00,1.000000000000000000e+00,0.000000000000000000e+00,6.000000000000000000e+01,2.373600000000000000e+04,3.194079399108886719e-01,1.651602983474731445e+00,3.406620196962690805e-01,0.000000000000000000e+00,1.110000000000000000e+02
1.000000000000000000e+00,1.000000000000000000e+00,1.000000000000000000e+00,5.700000000000000000e+01,2.379300000000000000e+04,3.205790519714355469e-01,1.858565807342529297e+00,5.491426648388200160e-01,0.000000000000000000e+00,1.110000000000000000e+02
0.000000000000000000e+00,1.000000000000000000e+00,0.000000000000000000e+00,6.200000000000000000e+01,2.385500000000000000e+04,4.159100055694580078e-01,1.930382013320922852e+00,5.129219299964791201e-01,0.000000000000000000e+00,1.110000000000000000e+02
0.000000000000000000e+00,1.000000000000000000e+00,0.000000000000000000e+00,5.400000000000000000e+01,2.390900000000000000e+04,3.153569698333740234e-01,1.718958854675292969e+00,4.154184830386748462e-01,0.000000000000000000e+00,1.110000000000000000e+02
0.000000000000000000e+00,1.000000000000000000e+00,0.000000000000000000e+00,5.700000000000000000e+01,2.396600000000000000e+04,3.149960041046142578e-01,1.987421035766601562e+00,6.692726782778959382e-01,0.000000000000000000e+00,1.110000000000000000e+02
1.000000000000000000e+00,0.000000000000000000e+00,0.000000000000000000e+00,4.100000000000000000e+01,2.400700000000000000e+04,3.438158035278320312e-01,1.763672113418579102e+00,4.166248552796392723e-01,1.000000000000000000e+00,1.120000000000000000e+02
1.000000000000000000e+00,1.000000000000000000e+00,1.000000000000000000e+00,5.200000000000000000e+01,2.405900000000000000e+04,3.380880355834960938e-01,2.059148073196411133e+00,7.255383635998906566e-01,0.000000000000000000e+00,1.120000000000000000e+02
