choice, accuracy, solution,  reward, cumulative_reward, rt,  total_trial_time, iti, cp_with_slow_fast, high_val_cue
1.000000000000000000e+00,1.000000000000000000e+00,1.000000000000000000e+00,0.000000000000000000e+00,0.000000000000000000e+00,1.265454053878784180e+00,2.564753055572509766e+00,2.665031172496493128e-01,-1.000000000000000000e+00,1.120000000000000000e+02
1.000000000000000000e+00,1.000000000000000000e+00,1.000000000000000000e+00,6.200000000000000000e+01,6.200000000000000000e+01,2.779109477996826172e-01,1.571028947830200195e+00,2.876267316912897720e-01,0.000000000000000000e+00,1.120000000000000000e+02
1.000000000000000000e+00,1.000000000000000000e+00,1.000000000000000000e+00,5.500000000000000000e+01,1.170000000000000000e+02,4.092290401458740234e-01,2.015825033187866211e+00,6.198437512018151185e-01,0.000000000000000000e+00,1.120000000000000000e+02
1.000000000000000000e+00,1.000000000000000000e+00,1.000000000000000000e+00,6.000000000000000000e+01,1.770000000000000000e+02,3.257350921630859375e-01,1.798977136611938477e+00,4.857086957753702361e-01,0.000000000000000000e+00,1.120000000000000000e+02
0.000000000000000000e+00,1.000000000000000000e+00,0.000000000000000000e+00,6.200000000000000000e+01,2.390000000000000000e+02,3.317959308624267578e-01,1.911994934082031250e+00,5.810355176355775919e-01,0.000000000000000000e+00,1.120000000000000000e+02
1.000000000000000000e+00,1.000000000000000000e+00,1.000000000000000000e+00,5.900000000000000000e+01,2.980000000000000000e+02,2.648198604583740234e-01,1.699535131454467773e+00,4.474355816640889771e-01,0.000000000000000000e+00,1.120000000000000000e+02
0.000000000000000000e+00,1.000000000000000000e+00,0.000000000000000000e+00,5.600000000000000000e+01,3.540000000000000000e+02,3.168849945068359375e-01,1.761250972747802734e+00,4.587591865238922484e-01,0.000000000000000000e+00,1.120000000000000000e+02
0.000000000000000000e+00,1.000000000000000000e+00,0.000000000000000000e+00,6.000000000000000000e+01,4.140000000000000000e+02,3.833329677581787109e-01,1.827348947525024414e+00,4.528831619308633094e-01,0.000000000000000000e+00,1.120000000000000000e+02
0.000000000000000000e+00,1.000000000000000000e+00,0.000000000000000000e+00,6.100000000000000000e+01,4.750000000000000000e+02,3.279559612274169922e-01,1.728046178817749023e+00,3.977064166093684516e-01,0.000000000000000000e+00,1.120000000000000000e+02
1.000000000000000000e+00,1.000000000000000000e+00,1.000000000000000000e+00,5.600000000000000000e+01,5.310000000000000000e+02,4.963941574096679688e-01,2.217977046966552734e+00,7.320984746170202673e-01,0.000000000000000000e+00,1.120000000000000000e+02
0.000000000000000000e+00,1.000000000000000000e+00,0.000000000000000000e+00,5.600000000000000000e+01,5.870000000000000000e+02,2.731299400329589844e-01,1.899224996566772461e+00,6.315118996101909410e-01,0.000000000000000000e+00,1.120000000000000000e+02
1.000000000000000000e+00,1.000000000000000000e+00,1.000000000000000000e+00,5.600000000000000000e+01,6.430000000000000000e+02,3.168699741363525391e-01,1.778205871582031250e+00,4.766365568411610742e-01,0.000000000000000000e+00,1.120000000000000000e+02
0.000000000000000000e+00,1.000000000000000000e+00,0.000000000000000000e+00,5.000000000000000000e+01,6.930000000000000000e+02,3.355751037597656250e-01,1.759116172790527344e+00,4.358767656905284116e-01,0.000000000000000000e+00,1.120000000000000000e+02
1.000000000000000000e+00,1.000000000000000000e+00,1.000000000000000000e+00,5.700000000000000000e+01,7.500000000000000000e+02,3.029530048370361328e-01,1.593899011611938477e+00,2.966508183173704460e-01,0.000000000000000000e+00,1.120000000000000000e+02
1.000000000000000000e+00,1.000000000000000000e+00,1.000000000000000000e+00,6.100000000000000000e+01,8.110000000000000000e+02,4.107069969177246094e-01,1.687841892242431641e+00,3.012068483931100715e-01,0.000000000000000000e+00,1.120000000000000000e+02
0.000000000000000000e+00,1.000000000000000000e+00,0.000000000000000000e+00,5.900000000000000000e+01,8.700000000000000000e+02,3.847279548645019531e-01,1.950845003128051758e+00,5.685298820253299468e-01,0.000000000000000000e+00,1.120000000000000000e+02
0.000000000000000000e+00,1.000000000000000000e+00,0.000000000000000000e+00,5.600000000000000000e+01,9.260000000000000000e+02,2.308399677276611328e-01,1.676918983459472656e+00,4.456279661300618367e-01,0.000000000000000000e+00,1.120000000000000000e+02
0.000000000000000000e+00,1.000000000000000000e+00,0.000000000000000000e+00,6.200000000000000000e+01,9.880000000000000000e+02,4.541618824005126953e-01,1.936586856842041016e+00,4.989279425642600407e-01,0.000000000000000000e+00,1.120000000000000000e+02
1.000000000000000000e+00,1.000000000000000000e+00,1.000000000000000000e+00,5.400000000000000000e+01,1.042000000000000000e+03,9.392230510711669922e-01,2.633548974990844727e+00,6.990471595103311397e-01,0.000000000000000000e+00,1.120000000000000000e+02
1.000000000000000000e+00,1.000000000000000000e+00,1.000000000000000000e+00,5.900000000000000000e+01,1.101000000000000000e+03,3.528699874877929688e-01,1.851658105850219727e+00,5.009807753600219460e-01,0.000000000000000000e+00,1.120000000000000000e+02
1.000000000000000000e+00,1.000000000000000000e+00,1.000000000000000000e+00,5.500000000000000000e+01,1.156000000000000000e+03,2.881090641021728516e-01,1.965913057327270508e+00,6.834846513237515797e-01,0.000000000000000000e+00,1.120000000000000000e+02
1.000000000000000000e+00,1.000000000000000000e+00,1.000000000000000000e+00,6.000000000000000000e+01,1.216000000000000000e+03,2.684848308563232422e-01,1.694825887680053711e+00,4.286333058793705963e-01,0.000000000000000000e+00,1.120000000000000000e+02
1.000000000000000000e+00,1.000000000000000000e+00,1.000000000000000000e+00,5.600000000000000000e+01,1.272000000000000000e+03,2.151560783386230469e-01,1.624874830245971680e+00,4.202795818637656278e-01,0.000000000000000000e+00,1.120000000000000000e+02
0.000000000000000000e+00,1.000000000000000000e+00,0.000000000000000000e+00,5.600000000000000000e+01,1.328000000000000000e+03,3.528809547424316406e-01,2.052874088287353516e+00,7.062523308642552067e-01,0.000000000000000000e+00,1.120000000000000000e+02
1.000000000000000000e+00,0.000000000000000000e+00,0.000000000000000000e+00,4.000000000000000000e+01,1.368000000000000000e+03,1.600000858306884766e-01,1.892590045928955078e+00,7.488650372032317204e-01,0.000000000000000000e+00,1.120000000000000000e+02
1.000000000000000000e+00,1.000000000000000000e+00,1.000000000000000000e+00,5.600000000000000000e+01,1.424000000000000000e+03,2.730438709259033203e-01,1.845413923263549805e+00,5.778661657186160427e-01,0.000000000000000000e+00,1.120000000000000000e+02
1.000000000000000000e+00,1.000000000000000000e+00,1.000000000000000000e+00,6.100000000000000000e+01,1.485000000000000000e+03,2.977821826934814453e-01,1.972220897674560547e+00,6.833980508177834867e-01,0.000000000000000000e+00,1.120000000000000000e+02
0.000000000000000000e+00,1.000000000000000000e+00,0.000000000000000000e+00,5.700000000000000000e+01,1.542000000000000000e+03,3.085210323333740234e-01,1.588166952133178711e+00,2.887406040344487335e-01,0.000000000000000000e+00,1.120000000000000000e+02
0.000000000000000000e+00,1.000000000000000000e+00,0.000000000000000000e+00,5.600000000000000000e+01,1.598000000000000000e+03,3.632302284240722656e-01,2.101736783981323242e+00,7.401402057719328464e-01,0.000000000000000000e+00,1.120000000000000000e+02
0.000000000000000000e+00,1.000000000000000000e+00,0.000000000000000000e+00,5.600000000000000000e+01,1.654000000000000000e+03,2.083549499511718750e-01,1.742434024810791016e+00,5.494787029879828477e-01,0.000000000000000000e+00,1.120000000000000000e+02
1.000000000000000000e+00,1.000000000000000000e+00,1.000000000000000000e+00,6.200000000000000000e+01,1.716000000000000000e+03,2.944090366363525391e-01,2.001522064208984375e+00,7.009330569121881016e-01,0.000000000000000000e+00,1.120000000000000000e+02
0.000000000000000000e+00,1.000000000000000000e+00,0.000000000000000000e+00,6.300000000000000000e+01,1.779000000000000000e+03,2.874469757080078125e-01,1.858350038528442383e+00,5.761564007039733371e-01,0.000000000000000000e+00,1.120000000000000000e+02
0.000000000000000000e+00,1.000000000000000000e+00,0.000000000000000000e+00,5.300000000000000000e+01,1.832000000000000000e+03,3.245050907135009766e-01,2.039362907409667969e+00,7.321041636303642353e-01,0.000000000000000000e+00,1.120000000000000000e+02
1.000000000000000000e+00,1.000000000000000000e+00,1.000000000000000000e+00,5.600000000000000000e+01,1.888000000000000000e+03,3.205571174621582031e-01,1.756727218627929688e+00,4.392205169235256501e-01,0.000000000000000000e+00,1.120000000000000000e+02
0.000000000000000000e+00,1.000000000000000000e+00,0.000000000000000000e+00,5.600000000000000000e+01,1.944000000000000000e+03,4.376931190490722656e-01,2.153650999069213867e+00,7.260029103553478080e-01,0.000000000000000000e+00,1.120000000000000000e+02
0.000000000000000000e+00,1.000000000000000000e+00,0.000000000000000000e+00,6.200000000000000000e+01,2.006000000000000000e+03,3.627541065216064453e-01,1.783466815948486328e+00,4.265369231270514372e-01,0.000000000000000000e+00,1.120000000000000000e+02
1.000000000000000000e+00,1.000000000000000000e+00,1.000000000000000000e+00,5.900000000000000000e+01,2.065000000000000000e+03,3.304641246795654297e-01,1.849689006805419922e+00,5.261943467537001373e-01,0.000000000000000000e+00,1.120000000000000000e+02
1.000000000000000000e+00,1.000000000000000000e+00,1.000000000000000000e+00,5.400000000000000000e+01,2.119000000000000000e+03,3.334791660308837891e-01,2.006566762924194336e+00,6.827057268729640471e-01,0.000000000000000000e+00,1.120000000000000000e+02
1.000000000000000000e+00,1.000000000000000000e+00,1.000000000000000000e+00,6.100000000000000000e+01,2.180000000000000000e+03,3.359301090240478516e-01,1.720126867294311523e+00,3.865407215001742669e-01,0.000000000000000000e+00,1.120000000000000000e+02
0.000000000000000000e+00,1.000000000000000000e+00,0.000000000000000000e+00,5.600000000000000000e+01,2.236000000000000000e+03,3.803131580352783203e-01,1.868502140045166016e+00,4.883502198584458998e-01,0.000000000000000000e+00,1.120000000000000000e+02
0.000000000000000000e+00,1.000000000000000000e+00,0.000000000000000000e+00,5.600000000000000000e+01,2.292000000000000000e+03,3.216750621795654297e-01,1.928622007369995117e+00,6.169340857449477911e-01,0.000000000000000000e+00,1.120000000000000000e+02
0.000000000000000000e+00,1.000000000000000000e+00,0.000000000000000000e+00,5.700000000000000000e+01,2.349000000000000000e+03,2.224218845367431641e-01,1.916185140609741211e+00,6.997896503438116866e-01,0.000000000000000000e+00,1.120000000000000000e+02
1.000000000000000000e+00,1.000000000000000000e+00,1.000000000000000000e+00,5.900000000000000000e+01,2.408000000000000000e+03,3.108699321746826172e-01,1.860373973846435547e+00,5.437327035498749073e-01,0.000000000000000000e+00,1.120000000000000000e+02
0.000000000000000000e+00,1.000000000000000000e+00,0.000000000000000000e+00,5.600000000000000000e+01,2.464000000000000000e+03,2.799029350280761719e-01,1.800621032714843750e+00,5.277754145870708902e-01,0.000000000000000000e+00,1.120000000000000000e+02
0.000000000000000000e+00,1.000000000000000000e+00,0.000000000000000000e+00,6.200000000000000000e+01,2.526000000000000000e+03,2.029690742492675781e-01,1.645238161087036133e+00,4.565144697121098494e-01,0.000000000000000000e+00,1.120000000000000000e+02
1.000000000000000000e+00,1.000000000000000000e+00,1.000000000000000000e+00,6.000000000000000000e+01,2.586000000000000000e+03,2.700121402740478516e-01,1.703925848007202148e+00,4.438649781536493921e-01,0.000000000000000000e+00,1.120000000000000000e+02
0.000000000000000000e+00,1.000000000000000000e+00,0.000000000000000000e+00,5.500000000000000000e+01,2.641000000000000000e+03,3.380651473999023438e-01,1.853262186050415039e+00,5.304548913168254387e-01,0.000000000000000000e+00,1.120000000000000000e+02
0.000000000000000000e+00,1.000000000000000000e+00,0.000000000000000000e+00,6.100000000000000000e+01,2.702000000000000000e+03,2.211270332336425781e-01,1.883209943771362305e+00,6.802410547751127634e-01,0.000000000000000000e+00,1.120000000000000000e+02
1.000000000000000000e+00,1.000000000000000000e+00,1.000000000000000000e+00,5.600000000000000000e+01,2.758000000000000000e+03,2.238540649414062500e-01,1.847743034362792969e+00,6.447674857316518793e-01,0.000000000000000000e+00,1.120000000000000000e+02
1.000000000000000000e+00,1.000000000000000000e+00,1.000000000000000000e+00,6.100000000000000000e+01,2.819000000000000000e+03,3.449459075927734375e-01,1.638345956802368164e+00,3.002012942401452444e-01,0.000000000000000000e+00,1.120000000000000000e+02
1.000000000000000000e+00,0.000000000000000000e+00,0.000000000000000000e+00,4.700000000000000000e+01,2.866000000000000000e+03,2.709989547729492188e-01,1.759200096130371094e+00,4.926380697329523772e-01,0.000000000000000000e+00,1.120000000000000000e+02
1.000000000000000000e+00,1.000000000000000000e+00,1.000000000000000000e+00,5.200000000000000000e+01,2.918000000000000000e+03,2.749900817871093750e-01,1.901931047439575195e+00,6.444844405747438554e-01,0.000000000000000000e+00,1.120000000000000000e+02
1.000000000000000000e+00,1.000000000000000000e+00,1.000000000000000000e+00,5.900000000000000000e+01,2.977000000000000000e+03,2.741320133209228516e-01,1.901779890060424805e+00,6.463533958429907855e-01,0.000000000000000000e+00,1.120000000000000000e+02
1.000000000000000000e+00,1.000000000000000000e+00,1.000000000000000000e+00,5.400000000000000000e+01,3.031000000000000000e+03,2.371699810028076172e-01,1.881170034408569336e+00,6.609012746861147036e-01,0.000000000000000000e+00,1.120000000000000000e+02
0.000000000000000000e+00,1.000000000000000000e+00,0.000000000000000000e+00,5.900000000000000000e+01,3.090000000000000000e+03,2.918879985809326172e-01,1.792944192886352539e+00,5.207618272194971532e-01,0.000000000000000000e+00,1.120000000000000000e+02
1.000000000000000000e+00,1.000000000000000000e+00,1.000000000000000000e+00,6.500000000000000000e+01,3.155000000000000000e+03,2.579739093780517578e-01,1.794468879699707031e+00,5.486295758750761031e-01,0.000000000000000000e+00,1.120000000000000000e+02
1.000000000000000000e+00,1.000000000000000000e+00,1.000000000000000000e+00,6.100000000000000000e+01,3.216000000000000000e+03,1.990721225738525391e-01,1.712978124618530273e+00,5.116951371098735768e-01,0.000000000000000000e+00,1.120000000000000000e+02
1.000000000000000000e+00,0.000000000000000000e+00,0.000000000000000000e+00,3.700000000000000000e+01,3.253000000000000000e+03,2.410271167755126953e-01,1.580495834350585938e+00,3.591069749849692405e-01,0.000000000000000000e+00,1.120000000000000000e+02
0.000000000000000000e+00,1.000000000000000000e+00,0.000000000000000000e+00,5.900000000000000000e+01,3.312000000000000000e+03,2.997398376464843750e-01,1.697503089904785156e+00,4.066040436530082847e-01,0.000000000000000000e+00,1.120000000000000000e+02
1.000000000000000000e+00,1.000000000000000000e+00,1.000000000000000000e+00,5.200000000000000000e+01,3.364000000000000000e+03,2.668840885162353516e-01,1.629223108291625977e+00,3.692817912576656370e-01,0.000000000000000000e+00,1.120000000000000000e+02
1.000000000000000000e+00,1.000000000000000000e+00,1.000000000000000000e+00,5.100000000000000000e+01,3.415000000000000000e+03,2.595498561859130859e-01,1.688848972320556641e+00,4.414685997880453683e-01,0.000000000000000000e+00,1.120000000000000000e+02
1.000000000000000000e+00,1.000000000000000000e+00,1.000000000000000000e+00,5.600000000000000000e+01,3.471000000000000000e+03,2.683541774749755859e-01,1.843405008316040039e+00,5.847972636133993429e-01,0.000000000000000000e+00,1.120000000000000000e+02
1.000000000000000000e+00,0.000000000000000000e+00,0.000000000000000000e+00,4.200000000000000000e+01,3.513000000000000000e+03,2.253890037536621094e-01,1.680035114288330078e+00,4.650482952752299504e-01,0.000000000000000000e+00,1.120000000000000000e+02
0.000000000000000000e+00,1.000000000000000000e+00,0.000000000000000000e+00,5.600000000000000000e+01,3.569000000000000000e+03,2.608079910278320312e-01,1.974323987960815430e+00,7.391604310813911782e-01,0.000000000000000000e+00,1.120000000000000000e+02
0.000000000000000000e+00,1.000000000000000000e+00,0.000000000000000000e+00,5.600000000000000000e+01,3.625000000000000000e+03,3.325099945068359375e-01,1.673975944519042969e+00,3.469501742647823628e-01,0.000000000000000000e+00,1.120000000000000000e+02
1.000000000000000000e+00,1.000000000000000000e+00,1.000000000000000000e+00,5.300000000000000000e+01,3.678000000000000000e+03,3.369681835174560547e-01,1.805790901184082031e+00,4.860260661141658778e-01,0.000000000000000000e+00,1.120000000000000000e+02
1.000000000000000000e+00,1.000000000000000000e+00,1.000000000000000000e+00,5.300000000000000000e+01,3.731000000000000000e+03,3.302688598632812500e-01,1.807788133621215820e+00,4.772354691196725729e-01,0.000000000000000000e+00,1.120000000000000000e+02
0.000000000000000000e+00,1.000000000000000000e+00,0.000000000000000000e+00,5.600000000000000000e+01,3.787000000000000000e+03,2.723610401153564453e-01,1.519680976867675781e+00,2.638932711755407889e-01,0.000000000000000000e+00,1.120000000000000000e+02
1.000000000000000000e+00,1.000000000000000000e+00,1.000000000000000000e+00,5.300000000000000000e+01,3.840000000000000000e+03,3.078320026397705078e-01,1.648694992065429688e+00,3.625392510940492752e-01,0.000000000000000000e+00,1.120000000000000000e+02
0.000000000000000000e+00,1.000000000000000000e+00,0.000000000000000000e+00,5.900000000000000000e+01,3.899000000000000000e+03,2.887840270996093750e-01,1.656031131744384766e+00,3.852952477294650513e-01,0.000000000000000000e+00,1.120000000000000000e+02
0.000000000000000000e+00,1.000000000000000000e+00,0.000000000000000000e+00,6.100000000000000000e+01,3.960000000000000000e+03,2.936270236968994141e-01,1.599953889846801758e+00,3.020708682862110472e-01,0.000000000000000000e+00,1.120000000000000000e+02
0.000000000000000000e+00,0.000000000000000000e+00,1.000000000000000000e+00,4.200000000000000000e+01,4.002000000000000000e+03,2.602250576019287109e-01,1.833897113800048828e+00,5.857422069068519699e-01,0.000000000000000000e+00,1.120000000000000000e+02
0.000000000000000000e+00,1.000000000000000000e+00,0.000000000000000000e+00,5.600000000000000000e+01,4.058000000000000000e+03,3.259589672088623047e-01,1.848328113555908203e+00,5.342120720422353086e-01,0.000000000000000000e+00,1.120000000000000000e+02
0.000000000000000000e+00,1.000000000000000000e+00,0.000000000000000000e+00,5.500000000000000000e+01,4.113000000000000000e+03,3.092789649963378906e-01,1.766824960708618164e+00,4.678378238196849170e-01,0.000000000000000000e+00,1.120000000000000000e+02
0.000000000000000000e+00,1.000000000000000000e+00,0.000000000000000000e+00,5.700000000000000000e+01,4.170000000000000000e+03,2.614061832427978516e-01,1.877082109451293945e+00,6.115295762272179303e-01,0.000000000000000000e+00,1.120000000000000000e+02
1.000000000000000000e+00,1.000000000000000000e+00,1.000000000000000000e+00,5.500000000000000000e+01,4.225000000000000000e+03,2.558441162109375000e-01,1.792809009552001953e+00,5.544899975320232155e-01,0.000000000000000000e+00,1.120000000000000000e+02
0.000000000000000000e+00,1.000000000000000000e+00,0.000000000000000000e+00,5.400000000000000000e+01,4.279000000000000000e+03,2.728400230407714844e-01,1.944144964218139648e+00,6.819182596008630526e-01,0.000000000000000000e+00,1.120000000000000000e+02
1.000000000000000000e+00,1.000000000000000000e+00,1.000000000000000000e+00,5.600000000000000000e+01,4.335000000000000000e+03,3.159530162811279297e-01,1.974928140640258789e+00,6.569773692956666356e-01,0.000000000000000000e+00,1.120000000000000000e+02
1.000000000000000000e+00,1.000000000000000000e+00,1.000000000000000000e+00,5.500000000000000000e+01,4.390000000000000000e+03,3.343279361724853516e-01,1.990906000137329102e+00,6.645633953019869367e-01,0.000000000000000000e+00,1.120000000000000000e+02
1.000000000000000000e+00,1.000000000000000000e+00,1.000000000000000000e+00,6.100000000000000000e+01,4.451000000000000000e+03,3.050601482391357422e-01,1.538397073745727539e+00,2.535068133189632977e-01,0.000000000000000000e+00,1.120000000000000000e+02
1.000000000000000000e+00,1.000000000000000000e+00,1.000000000000000000e+00,6.200000000000000000e+01,4.513000000000000000e+03,3.572142124176025391e-01,1.923012018203735352e+00,5.762601773152422613e-01,0.000000000000000000e+00,1.120000000000000000e+02
1.000000000000000000e+00,1.000000000000000000e+00,1.000000000000000000e+00,6.000000000000000000e+01,4.573000000000000000e+03,3.015868663787841797e-01,1.615269184112548828e+00,3.251980643568377349e-01,0.000000000000000000e+00,1.120000000000000000e+02
0.000000000000000000e+00,1.000000000000000000e+00,0.000000000000000000e+00,5.600000000000000000e+01,4.629000000000000000e+03,4.169278144836425781e-01,1.952523946762084961e+00,5.442538430425745144e-01,0.000000000000000000e+00,1.120000000000000000e+02
0.000000000000000000e+00,1.000000000000000000e+00,0.000000000000000000e+00,5.600000000000000000e+01,4.685000000000000000e+03,3.489198684692382812e-01,1.894443988800048828e+00,5.554060487252152623e-01,0.000000000000000000e+00,1.120000000000000000e+02
0.000000000000000000e+00,1.000000000000000000e+00,0.000000000000000000e+00,6.000000000000000000e+01,4.745000000000000000e+03,3.379418849945068359e-01,1.621418952941894531e+00,2.938861057075828898e-01,0.000000000000000000e+00,1.120000000000000000e+02
1.000000000000000000e+00,1.000000000000000000e+00,1.000000000000000000e+00,5.600000000000000000e+01,4.801000000000000000e+03,5.274448394775390625e-01,1.872012853622436523e+00,3.658659736995505396e-01,0.000000000000000000e+00,1.120000000000000000e+02
0.000000000000000000e+00,1.000000000000000000e+00,0.000000000000000000e+00,5.900000000000000000e+01,4.860000000000000000e+03,3.512148857116699219e-01,1.956211090087890625e+00,6.052635468726397239e-01,0.000000000000000000e+00,1.120000000000000000e+02
0.000000000000000000e+00,1.000000000000000000e+00,0.000000000000000000e+00,5.600000000000000000e+01,4.916000000000000000e+03,2.902672290802001953e-01,1.688104152679443359e+00,4.103134960670119513e-01,0.000000000000000000e+00,1.120000000000000000e+02
0.000000000000000000e+00,1.000000000000000000e+00,0.000000000000000000e+00,5.600000000000000000e+01,4.972000000000000000e+03,3.689918518066406250e-01,1.797459840774536133e+00,4.411865553257650063e-01,0.000000000000000000e+00,1.120000000000000000e+02
1.000000000000000000e+00,1.000000000000000000e+00,1.000000000000000000e+00,5.700000000000000000e+01,5.029000000000000000e+03,3.140220642089843750e-01,1.922448873519897461e+00,6.135089436481646619e-01,0.000000000000000000e+00,1.120000000000000000e+02
0.000000000000000000e+00,1.000000000000000000e+00,0.000000000000000000e+00,6.100000000000000000e+01,5.090000000000000000e+03,3.264231681823730469e-01,1.985556125640869141e+00,6.824004138993335911e-01,0.000000000000000000e+00,1.120000000000000000e+02
1.000000000000000000e+00,1.000000000000000000e+00,1.000000000000000000e+00,6.600000000000000000e+01,5.156000000000000000e+03,2.795228958129882812e-01,1.558535814285278320e+00,2.747766461051577846e-01,0.000000000000000000e+00,1.120000000000000000e+02
0.000000000000000000e+00,1.000000000000000000e+00,0.000000000000000000e+00,5.700000000000000000e+01,5.213000000000000000e+03,3.495781421661376953e-01,2.014541149139404297e+00,6.723511712889824743e-01,0.000000000000000000e+00,1.120000000000000000e+02
1.000000000000000000e+00,1.000000000000000000e+00,1.000000000000000000e+00,5.600000000000000000e+01,5.269000000000000000e+03,3.169898986816406250e-01,1.827908039093017578e+00,5.171842028250765999e-01,0.000000000000000000e+00,1.120000000000000000e+02
1.000000000000000000e+00,1.000000000000000000e+00,1.000000000000000000e+00,5.500000000000000000e+01,5.324000000000000000e+03,3.496701717376708984e-01,1.811744928359985352e+00,4.623432711312079890e-01,0.000000000000000000e+00,1.120000000000000000e+02
1.000000000000000000e+00,1.000000000000000000e+00,1.000000000000000000e+00,5.900000000000000000e+01,5.383000000000000000e+03,3.467228412628173828e-01,2.062331914901733398e+00,7.245101417245225495e-01,0.000000000000000000e+00,1.120000000000000000e+02
1.000000000000000000e+00,1.000000000000000000e+00,1.000000000000000000e+00,6.000000000000000000e+01,5.443000000000000000e+03,2.711548805236816406e-01,1.953640937805175781e+00,6.949357101957169824e-01,0.000000000000000000e+00,1.120000000000000000e+02
1.000000000000000000e+00,1.000000000000000000e+00,1.000000000000000000e+00,5.500000000000000000e+01,5.498000000000000000e+03,2.832908630371093750e-01,1.978875875473022461e+00,7.072352190052014764e-01,0.000000000000000000e+00,1.120000000000000000e+02
1.000000000000000000e+00,1.000000000000000000e+00,1.000000000000000000e+00,6.300000000000000000e+01,5.561000000000000000e+03,3.178601264953613281e-01,1.874588012695312500e+00,5.653726906737800428e-01,0.000000000000000000e+00,1.120000000000000000e+02
1.000000000000000000e+00,1.000000000000000000e+00,1.000000000000000000e+00,5.500000000000000000e+01,5.616000000000000000e+03,3.496189117431640625e-01,1.968970060348510742e+00,6.176638569585857219e-01,0.000000000000000000e+00,1.120000000000000000e+02
0.000000000000000000e+00,1.000000000000000000e+00,0.000000000000000000e+00,5.700000000000000000e+01,5.673000000000000000e+03,2.680020332336425781e-01,1.961980104446411133e+00,6.963752393095574700e-01,0.000000000000000000e+00,1.120000000000000000e+02
0.000000000000000000e+00,1.000000000000000000e+00,0.000000000000000000e+00,5.700000000000000000e+01,5.730000000000000000e+03,3.160390853881835938e-01,1.832791090011596680e+00,5.293846527067137542e-01,0.000000000000000000e+00,1.120000000000000000e+02
1.000000000000000000e+00,1.000000000000000000e+00,1.000000000000000000e+00,5.900000000000000000e+01,5.789000000000000000e+03,2.728281021118164062e-01,1.825969934463500977e+00,5.720696584881084235e-01,0.000000000000000000e+00,1.120000000000000000e+02
0.000000000000000000e+00,0.000000000000000000e+00,1.000000000000000000e+00,4.000000000000000000e+01,5.829000000000000000e+03,2.865140438079833984e-01,1.881489992141723633e+00,6.036282311749041618e-01,0.000000000000000000e+00,1.120000000000000000e+02
1.000000000000000000e+00,1.000000000000000000e+00,1.000000000000000000e+00,5.600000000000000000e+01,5.885000000000000000e+03,3.264489173889160156e-01,1.961494207382202148e+00,6.485041868557238631e-01,0.000000000000000000e+00,1.120000000000000000e+02
1.000000000000000000e+00,1.000000000000000000e+00,1.000000000000000000e+00,5.300000000000000000e+01,5.938000000000000000e+03,2.784080505371093750e-01,1.684361934661865234e+00,4.165338758218296022e-01,0.000000000000000000e+00,1.120000000000000000e+02
0.000000000000000000e+00,1.000000000000000000e+00,0.000000000000000000e+00,5.400000000000000000e+01,5.992000000000000000e+03,3.404350280761718750e-01,1.655192136764526367e+00,3.218859836768703797e-01,0.000000000000000000e+00,1.120000000000000000e+02
0.000000000000000000e+00,1.000000000000000000e+00,0.000000000000000000e+00,5.700000000000000000e+01,6.049000000000000000e+03,3.035728931427001953e-01,1.666172027587890625e+00,3.714294934376369817e-01,0.000000000000000000e+00,1.120000000000000000e+02
0.000000000000000000e+00,1.000000000000000000e+00,0.000000000000000000e+00,5.100000000000000000e+01,6.100000000000000000e+03,2.658889293670654297e-01,1.926121950149536133e+00,6.639863253444577840e-01,0.000000000000000000e+00,1.120000000000000000e+02
0.000000000000000000e+00,1.000000000000000000e+00,0.000000000000000000e+00,5.500000000000000000e+01,6.155000000000000000e+03,2.863450050354003906e-01,1.746683120727539062e+00,4.776346581564808180e-01,0.000000000000000000e+00,1.120000000000000000e+02
0.000000000000000000e+00,1.000000000000000000e+00,0.000000000000000000e+00,6.000000000000000000e+01,6.215000000000000000e+03,2.454080581665039062e-01,1.851464033126831055e+00,6.123591945760554767e-01,0.000000000000000000e+00,1.120000000000000000e+02
0.000000000000000000e+00,1.000000000000000000e+00,0.000000000000000000e+00,5.500000000000000000e+01,6.270000000000000000e+03,2.494969367980957031e-01,1.818500995635986328e+00,5.809659419930532920e-01,0.000000000000000000e+00,1.120000000000000000e+02
0.000000000000000000e+00,0.000000000000000000e+00,1.000000000000000000e+00,3.900000000000000000e+01,6.309000000000000000e+03,2.558100223541259766e-01,1.643889904022216797e+00,4.084549471458712722e-01,1.000000000000000000e+00,1.110000000000000000e+02
1.000000000000000000e+00,1.000000000000000000e+00,1.000000000000000000e+00,5.300000000000000000e+01,6.362000000000000000e+03,2.868790626525878906e-01,1.979804992675781250e+00,7.046711296702428129e-01,0.000000000000000000e+00,1.110000000000000000e+02
1.000000000000000000e+00,1.000000000000000000e+00,1.000000000000000000e+00,6.200000000000000000e+01,6.424000000000000000e+03,3.327190876007080078e-01,2.036139011383056641e+00,7.075476417210619928e-01,0.000000000000000000e+00,1.110000000000000000e+02
1.000000000000000000e+00,1.000000000000000000e+00,1.000000000000000000e+00,6.400000000000000000e+01,6.488000000000000000e+03,2.522790431976318359e-01,1.974721193313598633e+00,7.323454959297677203e-01,0.000000000000000000e+00,1.110000000000000000e+02
1.000000000000000000e+00,1.000000000000000000e+00,1.000000000000000000e+00,6.300000000000000000e+01,6.551000000000000000e+03,4.480381011962890625e-01,1.985960960388183594e+00,5.352647514176283039e-01,0.000000000000000000e+00,1.110000000000000000e+02
1.000000000000000000e+00,1.000000000000000000e+00,1.000000000000000000e+00,6.000000000000000000e+01,6.611000000000000000e+03,2.578029632568359375e-01,1.909509897232055664e+00,6.613992013353275912e-01,0.000000000000000000e+00,1.110000000000000000e+02
0.000000000000000000e+00,1.000000000000000000e+00,0.000000000000000000e+00,5.500000000000000000e+01,6.666000000000000000e+03,3.758120536804199219e-01,1.692582130432128906e+00,3.377581722766342942e-01,0.000000000000000000e+00,1.110000000000000000e+02
0.000000000000000000e+00,1.000000000000000000e+00,0.000000000000000000e+00,5.600000000000000000e+01,6.722000000000000000e+03,2.948570251464843750e-01,1.767060041427612305e+00,4.547765480510052583e-01,0.000000000000000000e+00,1.110000000000000000e+02
1.000000000000000000e+00,1.000000000000000000e+00,1.000000000000000000e+00,5.300000000000000000e+01,6.775000000000000000e+03,2.872920036315917969e-01,1.755440950393676758e+00,4.769281472336944216e-01,0.000000000000000000e+00,1.110000000000000000e+02
0.000000000000000000e+00,1.000000000000000000e+00,0.000000000000000000e+00,6.300000000000000000e+01,6.838000000000000000e+03,2.864270210266113281e-01,1.855623960494995117e+00,5.825300353651738927e-01,0.000000000000000000e+00,1.110000000000000000e+02
0.000000000000000000e+00,1.000000000000000000e+00,0.000000000000000000e+00,6.500000000000000000e+01,6.903000000000000000e+03,2.708280086517333984e-01,1.961860895156860352e+00,6.943789610451936989e-01,0.000000000000000000e+00,1.110000000000000000e+02
1.000000000000000000e+00,1.000000000000000000e+00,1.000000000000000000e+00,6.200000000000000000e+01,6.965000000000000000e+03,2.538900375366210938e-01,1.656584024429321289e+00,4.179988606391014661e-01,0.000000000000000000e+00,1.110000000000000000e+02
1.000000000000000000e+00,1.000000000000000000e+00,1.000000000000000000e+00,6.700000000000000000e+01,7.032000000000000000e+03,2.914159297943115234e-01,1.995454072952270508e+00,7.132326566393029088e-01,0.000000000000000000e+00,1.110000000000000000e+02
1.000000000000000000e+00,1.000000000000000000e+00,1.000000000000000000e+00,6.000000000000000000e+01,7.092000000000000000e+03,3.050129413604736328e-01,1.930693864822387695e+00,6.440654367403807479e-01,0.000000000000000000e+00,1.110000000000000000e+02
0.000000000000000000e+00,1.000000000000000000e+00,0.000000000000000000e+00,5.700000000000000000e+01,7.149000000000000000e+03,3.027260303497314453e-01,1.887176990509033203e+00,5.980426813953071408e-01,0.000000000000000000e+00,1.110000000000000000e+02
1.000000000000000000e+00,1.000000000000000000e+00,1.000000000000000000e+00,6.100000000000000000e+01,7.210000000000000000e+03,3.114938735961914062e-01,1.813633203506469727e+00,5.284732018401596676e-01,0.000000000000000000e+00,1.110000000000000000e+02
1.000000000000000000e+00,1.000000000000000000e+00,1.000000000000000000e+00,5.500000000000000000e+01,7.265000000000000000e+03,3.218231201171875000e-01,1.638381004333496094e+00,3.338049012347433231e-01,0.000000000000000000e+00,1.110000000000000000e+02
1.000000000000000000e+00,1.000000000000000000e+00,1.000000000000000000e+00,6.300000000000000000e+01,7.328000000000000000e+03,3.378860950469970703e-01,1.738307952880859375e+00,4.054315408520065001e-01,0.000000000000000000e+00,1.110000000000000000e+02
1.000000000000000000e+00,1.000000000000000000e+00,1.000000000000000000e+00,6.200000000000000000e+01,7.390000000000000000e+03,2.606570720672607422e-01,1.552794933319091797e+00,3.083781882135508967e-01,0.000000000000000000e+00,1.110000000000000000e+02
0.000000000000000000e+00,1.000000000000000000e+00,0.000000000000000000e+00,6.500000000000000000e+01,7.455000000000000000e+03,2.986438274383544922e-01,1.772716999053955078e+00,4.810302040520723077e-01,0.000000000000000000e+00,1.110000000000000000e+02
0.000000000000000000e+00,1.000000000000000000e+00,0.000000000000000000e+00,5.500000000000000000e+01,7.510000000000000000e+03,3.460969924926757812e-01,1.900225877761840820e+00,5.645786613915704244e-01,0.000000000000000000e+00,1.110000000000000000e+02
0.000000000000000000e+00,1.000000000000000000e+00,0.000000000000000000e+00,6.000000000000000000e+01,7.570000000000000000e+03,2.181339263916015625e-01,1.742723941802978516e+00,5.407140847948375129e-01,0.000000000000000000e+00,1.110000000000000000e+02
0.000000000000000000e+00,1.000000000000000000e+00,0.000000000000000000e+00,5.700000000000000000e+01,7.627000000000000000e+03,2.371928691864013672e-01,1.780264854431152344e+00,5.544153286066424435e-01,0.000000000000000000e+00,1.110000000000000000e+02
0.000000000000000000e+00,0.000000000000000000e+00,1.000000000000000000e+00,3.600000000000000000e+01,7.663000000000000000e+03,2.279489040374755859e-01,1.510056972503662109e+00,2.814833883810133885e-01,0.000000000000000000e+00,1.110000000000000000e+02
0.000000000000000000e+00,1.000000000000000000e+00,0.000000000000000000e+00,5.600000000000000000e+01,7.719000000000000000e+03,2.738978862762451172e-01,1.587798118591308594e+00,3.359427841295827832e-01,0.000000000000000000e+00,1.110000000000000000e+02
0.000000000000000000e+00,1.000000000000000000e+00,0.000000000000000000e+00,6.000000000000000000e+01,7.779000000000000000e+03,2.910649776458740234e-01,1.933354854583740234e+00,6.523727909083409937e-01,0.000000000000000000e+00,1.110000000000000000e+02
1.000000000000000000e+00,1.000000000000000000e+00,1.000000000000000000e+00,5.600000000000000000e+01,7.835000000000000000e+03,3.028111457824707031e-01,1.852008104324340820e+00,5.545812071327995696e-01,0.000000000000000000e+00,1.110000000000000000e+02
1.000000000000000000e+00,1.000000000000000000e+00,1.000000000000000000e+00,5.500000000000000000e+01,7.890000000000000000e+03,2.938349246978759766e-01,1.903069972991943359e+00,6.243322920769295292e-01,0.000000000000000000e+00,1.110000000000000000e+02
0.000000000000000000e+00,1.000000000000000000e+00,0.000000000000000000e+00,6.500000000000000000e+01,7.955000000000000000e+03,2.789139747619628906e-01,1.950208902359008789e+00,6.745843132973581291e-01,0.000000000000000000e+00,1.110000000000000000e+02
1.000000000000000000e+00,1.000000000000000000e+00,1.000000000000000000e+00,5.900000000000000000e+01,8.014000000000000000e+03,3.069961071014404297e-01,1.916789054870605469e+00,6.248170375229283868e-01,0.000000000000000000e+00,1.110000000000000000e+02
0.000000000000000000e+00,1.000000000000000000e+00,0.000000000000000000e+00,5.900000000000000000e+01,8.073000000000000000e+03,4.873571395874023438e-01,2.077571868896484375e+00,6.025234681000535275e-01,0.000000000000000000e+00,1.110000000000000000e+02
0.000000000000000000e+00,1.000000000000000000e+00,0.000000000000000000e+00,6.200000000000000000e+01,8.135000000000000000e+03,2.743070125579833984e-01,1.640265226364135742e+00,3.764238673140334890e-01,0.000000000000000000e+00,1.110000000000000000e+02
0.000000000000000000e+00,1.000000000000000000e+00,0.000000000000000000e+00,5.700000000000000000e+01,8.192000000000000000e+03,2.798290252685546875e-01,1.819669961929321289e+00,5.460052956030906346e-01,0.000000000000000000e+00,1.110000000000000000e+02
1.000000000000000000e+00,1.000000000000000000e+00,1.000000000000000000e+00,5.700000000000000000e+01,8.249000000000000000e+03,3.291969299316406250e-01,2.053963899612426758e+00,7.331968859013624495e-01,0.000000000000000000e+00,1.110000000000000000e+02
1.000000000000000000e+00,1.000000000000000000e+00,1.000000000000000000e+00,6.100000000000000000e+01,8.310000000000000000e+03,2.496669292449951172e-01,1.731695890426635742e+00,4.818923860534574111e-01,0.000000000000000000e+00,1.110000000000000000e+02
0.000000000000000000e+00,1.000000000000000000e+00,0.000000000000000000e+00,6.100000000000000000e+01,8.371000000000000000e+03,2.970719337463378906e-01,1.997915983200073242e+00,7.129817497012576055e-01,0.000000000000000000e+00,1.110000000000000000e+02
0.000000000000000000e+00,1.000000000000000000e+00,0.000000000000000000e+00,5.900000000000000000e+01,8.430000000000000000e+03,3.111391067504882812e-01,1.700993061065673828e+00,4.143733823956462503e-01,0.000000000000000000e+00,1.110000000000000000e+02
1.000000000000000000e+00,1.000000000000000000e+00,1.000000000000000000e+00,5.900000000000000000e+01,8.489000000000000000e+03,3.421480655670166016e-01,1.685925960540771484e+00,3.670940920268548346e-01,0.000000000000000000e+00,1.110000000000000000e+02
0.000000000000000000e+00,1.000000000000000000e+00,0.000000000000000000e+00,6.100000000000000000e+01,8.550000000000000000e+03,2.762229442596435547e-01,1.580276966094970703e+00,3.141775068450944342e-01,0.000000000000000000e+00,1.110000000000000000e+02
1.000000000000000000e+00,1.000000000000000000e+00,1.000000000000000000e+00,5.700000000000000000e+01,8.607000000000000000e+03,3.045170307159423828e-01,1.883413076400756836e+00,5.973708741465384442e-01,0.000000000000000000e+00,1.110000000000000000e+02
1.000000000000000000e+00,1.000000000000000000e+00,1.000000000000000000e+00,6.600000000000000000e+01,8.673000000000000000e+03,3.063681125640869141e-01,1.999938964843750000e+00,7.139275033656986569e-01,0.000000000000000000e+00,1.110000000000000000e+02
0.000000000000000000e+00,1.000000000000000000e+00,0.000000000000000000e+00,6.200000000000000000e+01,8.735000000000000000e+03,2.966861724853515625e-01,1.605422973632812500e+00,3.198356981526276899e-01,0.000000000000000000e+00,1.110000000000000000e+02
1.000000000000000000e+00,1.000000000000000000e+00,1.000000000000000000e+00,5.700000000000000000e+01,8.792000000000000000e+03,3.468141555786132812e-01,1.740650892257690430e+00,3.938463972541711433e-01,0.000000000000000000e+00,1.110000000000000000e+02
1.000000000000000000e+00,1.000000000000000000e+00,1.000000000000000000e+00,5.700000000000000000e+01,8.849000000000000000e+03,3.135669231414794922e-01,1.694597005844116211e+00,3.885079019480731644e-01,0.000000000000000000e+00,1.110000000000000000e+02
0.000000000000000000e+00,1.000000000000000000e+00,0.000000000000000000e+00,6.800000000000000000e+01,8.917000000000000000e+03,3.185510635375976562e-01,1.804488897323608398e+00,4.929859838249335269e-01,0.000000000000000000e+00,1.110000000000000000e+02
0.000000000000000000e+00,1.000000000000000000e+00,0.000000000000000000e+00,5.500000000000000000e+01,8.972000000000000000e+03,3.056609630584716797e-01,1.780760049819946289e+00,4.904738769736964321e-01,0.000000000000000000e+00,1.110000000000000000e+02
0.000000000000000000e+00,1.000000000000000000e+00,0.000000000000000000e+00,6.100000000000000000e+01,9.033000000000000000e+03,2.733929157257080078e-01,1.862027883529663086e+00,6.024548699982097411e-01,0.000000000000000000e+00,1.110000000000000000e+02
1.000000000000000000e+00,1.000000000000000000e+00,1.000000000000000000e+00,5.700000000000000000e+01,9.090000000000000000e+03,3.138258457183837891e-01,1.977869033813476562e+00,6.636882553570044863e-01,0.000000000000000000e+00,1.110000000000000000e+02
1.000000000000000000e+00,1.000000000000000000e+00,1.000000000000000000e+00,6.200000000000000000e+01,9.152000000000000000e+03,2.581708431243896484e-01,1.531829833984375000e+00,2.960027413731157742e-01,0.000000000000000000e+00,1.110000000000000000e+02
1.000000000000000000e+00,1.000000000000000000e+00,1.000000000000000000e+00,6.400000000000000000e+01,9.216000000000000000e+03,3.989641666412353516e-01,1.800035953521728516e+00,4.126662595275177869e-01,0.000000000000000000e+00,1.110000000000000000e+02
1.000000000000000000e+00,1.000000000000000000e+00,1.000000000000000000e+00,6.500000000000000000e+01,9.281000000000000000e+03,3.109250068664550781e-01,1.791995048522949219e+00,5.046244914306221574e-01,0.000000000000000000e+00,1.110000000000000000e+02
1.000000000000000000e+00,1.000000000000000000e+00,1.000000000000000000e+00,6.300000000000000000e+01,9.344000000000000000e+03,5.020859241485595703e-01,1.922852039337158203e+00,4.276513253328575459e-01,0.000000000000000000e+00,1.110000000000000000e+02
0.000000000000000000e+00,1.000000000000000000e+00,0.000000000000000000e+00,6.400000000000000000e+01,9.408000000000000000e+03,3.624498844146728516e-01,1.990782022476196289e+00,6.349897218274085375e-01,0.000000000000000000e+00,1.110000000000000000e+02
0.000000000000000000e+00,1.000000000000000000e+00,0.000000000000000000e+00,6.100000000000000000e+01,9.469000000000000000e+03,2.655138969421386719e-01,1.995141029357910156e+00,7.301306244176610782e-01,0.000000000000000000e+00,1.110000000000000000e+02
0.000000000000000000e+00,1.000000000000000000e+00,0.000000000000000000e+00,6.100000000000000000e+01,9.530000000000000000e+03,2.792139053344726562e-01,1.634998083114624023e+00,3.655922633674542621e-01,0.000000000000000000e+00,1.110000000000000000e+02
1.000000000000000000e+00,1.000000000000000000e+00,1.000000000000000000e+00,5.900000000000000000e+01,9.589000000000000000e+03,5.293188095092773438e-01,2.251091957092285156e+00,7.164053315179692571e-01,0.000000000000000000e+00,1.110000000000000000e+02
0.000000000000000000e+00,1.000000000000000000e+00,0.000000000000000000e+00,5.900000000000000000e+01,9.648000000000000000e+03,3.333671092987060547e-01,1.862550020217895508e+00,5.291984991957654483e-01,0.000000000000000000e+00,1.110000000000000000e+02
0.000000000000000000e+00,1.000000000000000000e+00,0.000000000000000000e+00,6.300000000000000000e+01,9.711000000000000000e+03,2.564260959625244141e-01,1.578994035720825195e+00,3.417805763515393003e-01,0.000000000000000000e+00,1.110000000000000000e+02
0.000000000000000000e+00,1.000000000000000000e+00,0.000000000000000000e+00,6.000000000000000000e+01,9.771000000000000000e+03,3.551390171051025391e-01,1.748702049255371094e+00,4.071918242367419394e-01,0.000000000000000000e+00,1.110000000000000000e+02
0.000000000000000000e+00,1.000000000000000000e+00,0.000000000000000000e+00,5.600000000000000000e+01,9.827000000000000000e+03,2.492380142211914062e-01,1.919977903366088867e+00,6.769089202986735554e-01,0.000000000000000000e+00,1.110000000000000000e+02
0.000000000000000000e+00,1.000000000000000000e+00,0.000000000000000000e+00,6.300000000000000000e+01,9.890000000000000000e+03,2.385921478271484375e-01,1.831894159317016602e+00,6.089869891265478064e-01,0.000000000000000000e+00,1.110000000000000000e+02
1.000000000000000000e+00,1.000000000000000000e+00,1.000000000000000000e+00,5.500000000000000000e+01,9.945000000000000000e+03,3.513591289520263672e-01,2.049700975418090820e+00,7.086927425444005113e-01,0.000000000000000000e+00,1.110000000000000000e+02
1.000000000000000000e+00,1.000000000000000000e+00,1.000000000000000000e+00,5.600000000000000000e+01,1.000100000000000000e+04,2.784550189971923828e-01,1.980164051055908203e+00,7.056008070904917773e-01,0.000000000000000000e+00,1.110000000000000000e+02
1.000000000000000000e+00,1.000000000000000000e+00,1.000000000000000000e+00,6.800000000000000000e+01,1.006900000000000000e+04,3.101990222930908203e-01,1.766717910766601562e+00,4.560252840510892747e-01,0.000000000000000000e+00,1.110000000000000000e+02
1.000000000000000000e+00,1.000000000000000000e+00,1.000000000000000000e+00,5.900000000000000000e+01,1.012800000000000000e+04,3.055579662322998047e-01,1.670114040374755859e+00,3.762958490796546873e-01,0.000000000000000000e+00,1.110000000000000000e+02
1.000000000000000000e+00,1.000000000000000000e+00,1.000000000000000000e+00,5.900000000000000000e+01,1.018700000000000000e+04,2.959170341491699219e-01,1.856970071792602539e+00,5.661822030774488201e-01,0.000000000000000000e+00,1.110000000000000000e+02
0.000000000000000000e+00,1.000000000000000000e+00,0.000000000000000000e+00,5.600000000000000000e+01,1.024300000000000000e+04,3.063719272613525391e-01,1.567564010620117188e+00,2.677575738242082837e-01,0.000000000000000000e+00,1.110000000000000000e+02
1.000000000000000000e+00,1.000000000000000000e+00,1.000000000000000000e+00,6.200000000000000000e+01,1.030500000000000000e+04,3.927569389343261719e-01,1.823935031890869141e+00,4.415776072727039536e-01,0.000000000000000000e+00,1.110000000000000000e+02
0.000000000000000000e+00,1.000000000000000000e+00,0.000000000000000000e+00,6.200000000000000000e+01,1.036700000000000000e+04,2.831408977508544922e-01,1.639276027679443359e+00,3.644118551765586633e-01,0.000000000000000000e+00,1.110000000000000000e+02
1.000000000000000000e+00,1.000000000000000000e+00,1.000000000000000000e+00,6.000000000000000000e+01,1.042700000000000000e+04,2.458410263061523438e-01,1.571368932723999023e+00,3.358268454722250218e-01,0.000000000000000000e+00,1.110000000000000000e+02
0.000000000000000000e+00,1.000000000000000000e+00,0.000000000000000000e+00,5.900000000000000000e+01,1.048600000000000000e+04,2.715978622436523438e-01,1.577230215072631836e+00,3.131436028097504543e-01,0.000000000000000000e+00,1.110000000000000000e+02
1.000000000000000000e+00,1.000000000000000000e+00,1.000000000000000000e+00,6.000000000000000000e+01,1.054600000000000000e+04,2.699611186981201172e-01,1.827250957489013672e+00,5.735125976292811956e-01,0.000000000000000000e+00,1.110000000000000000e+02
0.000000000000000000e+00,1.000000000000000000e+00,0.000000000000000000e+00,5.200000000000000000e+01,1.059800000000000000e+04,2.607069015502929688e-01,1.541995048522949219e+00,2.825909862205759904e-01,0.000000000000000000e+00,1.110000000000000000e+02
0.000000000000000000e+00,1.000000000000000000e+00,0.000000000000000000e+00,6.000000000000000000e+01,1.065800000000000000e+04,4.237592220306396484e-01,2.025903940200805664e+00,6.082214744173108922e-01,0.000000000000000000e+00,1.110000000000000000e+02
0.000000000000000000e+00,1.000000000000000000e+00,0.000000000000000000e+00,6.300000000000000000e+01,1.072100000000000000e+04,2.751369476318359375e-01,1.940979003906250000e+00,6.825127691681740494e-01,0.000000000000000000e+00,1.110000000000000000e+02
0.000000000000000000e+00,1.000000000000000000e+00,0.000000000000000000e+00,7.000000000000000000e+01,1.079100000000000000e+04,2.632279396057128906e-01,1.807740926742553711e+00,5.405070767744546423e-01,0.000000000000000000e+00,1.110000000000000000e+02
1.000000000000000000e+00,1.000000000000000000e+00,1.000000000000000000e+00,5.000000000000000000e+01,1.084100000000000000e+04,2.893180847167968750e-01,1.882390975952148438e+00,6.062306048654121371e-01,0.000000000000000000e+00,1.110000000000000000e+02
0.000000000000000000e+00,1.000000000000000000e+00,0.000000000000000000e+00,5.200000000000000000e+01,1.089300000000000000e+04,2.610039710998535156e-01,1.611713886260986328e+00,3.682898440326459188e-01,0.000000000000000000e+00,1.110000000000000000e+02
1.000000000000000000e+00,1.000000000000000000e+00,1.000000000000000000e+00,5.600000000000000000e+01,1.094900000000000000e+04,2.724227905273437500e-01,1.926179170608520508e+00,6.608826985589733027e-01,0.000000000000000000e+00,1.110000000000000000e+02
1.000000000000000000e+00,1.000000000000000000e+00,1.000000000000000000e+00,5.600000000000000000e+01,1.100500000000000000e+04,3.548312187194824219e-01,2.085624933242797852e+00,7.465277433340534730e-01,0.000000000000000000e+00,1.110000000000000000e+02
0.000000000000000000e+00,1.000000000000000000e+00,0.000000000000000000e+00,6.100000000000000000e+01,1.106600000000000000e+04,3.325247764587402344e-01,1.814850091934204102e+00,4.950624664954907383e-01,0.000000000000000000e+00,1.110000000000000000e+02
0.000000000000000000e+00,1.000000000000000000e+00,0.000000000000000000e+00,6.200000000000000000e+01,1.112800000000000000e+04,2.679481506347656250e-01,1.807378053665161133e+00,5.524878506522469257e-01,0.000000000000000000e+00,1.110000000000000000e+02
1.000000000000000000e+00,1.000000000000000000e+00,1.000000000000000000e+00,5.500000000000000000e+01,1.118300000000000000e+04,2.893910408020019531e-01,1.743346929550170898e+00,4.626665531387184060e-01,0.000000000000000000e+00,1.110000000000000000e+02
1.000000000000000000e+00,1.000000000000000000e+00,1.000000000000000000e+00,5.900000000000000000e+01,1.124200000000000000e+04,2.730488777160644531e-01,1.947577953338623047e+00,6.934430159079290057e-01,0.000000000000000000e+00,1.110000000000000000e+02
0.000000000000000000e+00,1.000000000000000000e+00,0.000000000000000000e+00,5.900000000000000000e+01,1.130100000000000000e+04,2.441430091857910156e-01,1.820566177368164062e+00,5.974742423165928518e-01,0.000000000000000000e+00,1.110000000000000000e+02
1.000000000000000000e+00,1.000000000000000000e+00,1.000000000000000000e+00,6.300000000000000000e+01,1.136400000000000000e+04,3.355209827423095703e-01,1.939221858978271484e+00,6.201083407447453011e-01,0.000000000000000000e+00,1.110000000000000000e+02
1.000000000000000000e+00,1.000000000000000000e+00,1.000000000000000000e+00,6.100000000000000000e+01,1.142500000000000000e+04,3.356149196624755859e-01,1.890377044677734375e+00,5.606415928326137221e-01,0.000000000000000000e+00,1.110000000000000000e+02
1.000000000000000000e+00,1.000000000000000000e+00,1.000000000000000000e+00,5.600000000000000000e+01,1.148100000000000000e+04,2.753050327301025391e-01,1.887928009033203125e+00,6.318739502472909830e-01,0.000000000000000000e+00,1.110000000000000000e+02
1.000000000000000000e+00,1.000000000000000000e+00,1.000000000000000000e+00,5.600000000000000000e+01,1.153700000000000000e+04,2.953829765319824219e-01,1.791040182113647461e+00,4.898585269028594147e-01,0.000000000000000000e+00,1.110000000000000000e+02
0.000000000000000000e+00,1.000000000000000000e+00,0.000000000000000000e+00,5.900000000000000000e+01,1.159600000000000000e+04,2.781529426574707031e-01,1.777540922164916992e+00,5.174252219711408252e-01,0.000000000000000000e+00,1.110000000000000000e+02
0.000000000000000000e+00,1.000000000000000000e+00,0.000000000000000000e+00,6.200000000000000000e+01,1.165800000000000000e+04,2.538359165191650391e-01,1.517971038818359375e+00,2.690798713785613749e-01,0.000000000000000000e+00,1.110000000000000000e+02
0.000000000000000000e+00,1.000000000000000000e+00,0.000000000000000000e+00,5.900000000000000000e+01,1.171700000000000000e+04,3.082549571990966797e-01,1.759890079498291016e+00,4.621663483730877320e-01,0.000000000000000000e+00,1.110000000000000000e+02
0.000000000000000000e+00,1.000000000000000000e+00,0.000000000000000000e+00,5.600000000000000000e+01,1.177300000000000000e+04,2.642948627471923828e-01,1.720427036285400391e+00,4.659953143413796406e-01,0.000000000000000000e+00,1.110000000000000000e+02
0.000000000000000000e+00,1.000000000000000000e+00,0.000000000000000000e+00,6.400000000000000000e+01,1.183700000000000000e+04,2.400288581848144531e-01,1.500253915786743164e+00,2.665297487768734097e-01,0.000000000000000000e+00,1.110000000000000000e+02
1.000000000000000000e+00,1.000000000000000000e+00,1.000000000000000000e+00,6.300000000000000000e+01,1.190000000000000000e+04,3.600828647613525391e-01,1.797971010208129883e+00,4.477246074492061134e-01,0.000000000000000000e+00,1.110000000000000000e+02
0.000000000000000000e+00,1.000000000000000000e+00,0.000000000000000000e+00,6.200000000000000000e+01,1.196200000000000000e+04,2.548608779907226562e-01,1.783416032791137695e+00,5.477787685933941386e-01,0.000000000000000000e+00,1.110000000000000000e+02
0.000000000000000000e+00,1.000000000000000000e+00,0.000000000000000000e+00,5.900000000000000000e+01,1.202100000000000000e+04,2.765669822692871094e-01,1.840726852416992188e+00,5.885539104560506551e-01,0.000000000000000000e+00,1.110000000000000000e+02
0.000000000000000000e+00,1.000000000000000000e+00,0.000000000000000000e+00,5.400000000000000000e+01,1.207500000000000000e+04,2.576730251312255859e-01,1.595014095306396484e+00,3.505465200117726110e-01,0.000000000000000000e+00,1.110000000000000000e+02
0.000000000000000000e+00,1.000000000000000000e+00,0.000000000000000000e+00,6.000000000000000000e+01,1.213500000000000000e+04,2.337238788604736328e-01,1.605650901794433594e+00,3.729209586291548084e-01,0.000000000000000000e+00,1.110000000000000000e+02
0.000000000000000000e+00,0.000000000000000000e+00,1.000000000000000000e+00,3.800000000000000000e+01,1.217300000000000000e+04,2.357079982757568359e-01,1.693401098251342773e+00,4.663150468591102937e-01,0.000000000000000000e+00,1.110000000000000000e+02
0.000000000000000000e+00,1.000000000000000000e+00,0.000000000000000000e+00,6.100000000000000000e+01,1.223400000000000000e+04,2.637870311737060547e-01,1.682615041732788086e+00,4.156980350447497252e-01,0.000000000000000000e+00,1.110000000000000000e+02
0.000000000000000000e+00,1.000000000000000000e+00,0.000000000000000000e+00,6.100000000000000000e+01,1.229500000000000000e+04,2.794988155364990234e-01,1.981446981430053711e+00,6.969351546039994627e-01,0.000000000000000000e+00,1.110000000000000000e+02
1.000000000000000000e+00,1.000000000000000000e+00,1.000000000000000000e+00,5.500000000000000000e+01,1.235000000000000000e+04,3.019070625305175781e-01,1.847862958908081055e+00,5.617229635323497394e-01,0.000000000000000000e+00,1.110000000000000000e+02
1.000000000000000000e+00,1.000000000000000000e+00,1.000000000000000000e+00,6.300000000000000000e+01,1.241300000000000000e+04,3.259851932525634766e-01,1.801170825958251953e+00,4.963527007552471781e-01,0.000000000000000000e+00,1.110000000000000000e+02
0.000000000000000000e+00,1.000000000000000000e+00,0.000000000000000000e+00,5.500000000000000000e+01,1.246800000000000000e+04,2.730278968811035156e-01,1.887092828750610352e+00,6.333754350525904186e-01,0.000000000000000000e+00,1.110000000000000000e+02
0.000000000000000000e+00,1.000000000000000000e+00,0.000000000000000000e+00,6.100000000000000000e+01,1.252900000000000000e+04,3.190741539001464844e-01,2.017988204956054688e+00,7.013805955985745744e-01,0.000000000000000000e+00,1.110000000000000000e+02
1.000000000000000000e+00,0.000000000000000000e+00,0.000000000000000000e+00,4.500000000000000000e+01,1.257400000000000000e+04,2.925519943237304688e-01,1.746626853942871094e+00,4.650346959164929350e-01,1.000000000000000000e+00,1.120000000000000000e+02
0.000000000000000000e+00,0.000000000000000000e+00,1.000000000000000000e+00,4.600000000000000000e+01,1.262000000000000000e+04,2.992401123046875000e-01,1.651780128479003906e+00,3.669755249834002475e-01,0.000000000000000000e+00,1.120000000000000000e+02
1.000000000000000000e+00,0.000000000000000000e+00,0.000000000000000000e+00,4.400000000000000000e+01,1.266400000000000000e+04,3.036820888519287109e-01,1.898028850555419922e+00,5.982026538327496201e-01,0.000000000000000000e+00,1.120000000000000000e+02
1.000000000000000000e+00,0.000000000000000000e+00,0.000000000000000000e+00,4.400000000000000000e+01,1.270800000000000000e+04,3.013300895690917969e-01,1.566516160964965820e+00,2.817448776776454999e-01,0.000000000000000000e+00,1.120000000000000000e+02
1.000000000000000000e+00,0.000000000000000000e+00,0.000000000000000000e+00,4.100000000000000000e+01,1.274900000000000000e+04,2.977550029754638672e-01,1.756247997283935547e+00,4.712149984417355331e-01,0.000000000000000000e+00,1.120000000000000000e+02
0.000000000000000000e+00,0.000000000000000000e+00,1.000000000000000000e+00,4.700000000000000000e+01,1.279600000000000000e+04,3.021237850189208984e-01,2.015796899795532227e+00,7.201649962566052388e-01,0.000000000000000000e+00,1.120000000000000000e+02
1.000000000000000000e+00,0.000000000000000000e+00,0.000000000000000000e+00,5.000000000000000000e+01,1.284600000000000000e+04,3.205659389495849609e-01,1.718873023986816406e+00,4.061397194775223651e-01,0.000000000000000000e+00,1.120000000000000000e+02
1.000000000000000000e+00,0.000000000000000000e+00,0.000000000000000000e+00,4.700000000000000000e+01,1.289300000000000000e+04,3.209631443023681641e-01,2.022480964660644531e+00,7.117275251514489920e-01,0.000000000000000000e+00,1.120000000000000000e+02
1.000000000000000000e+00,0.000000000000000000e+00,0.000000000000000000e+00,4.800000000000000000e+01,1.294100000000000000e+04,3.053131103515625000e-01,1.838552951812744141e+00,5.505178264870054239e-01,0.000000000000000000e+00,1.120000000000000000e+02
0.000000000000000000e+00,1.000000000000000000e+00,0.000000000000000000e+00,5.600000000000000000e+01,1.299700000000000000e+04,4.223728179931640625e-01,1.761479854583740234e+00,3.456331996547716834e-01,0.000000000000000000e+00,1.120000000000000000e+02
1.000000000000000000e+00,1.000000000000000000e+00,1.000000000000000000e+00,6.000000000000000000e+01,1.305700000000000000e+04,2.804229259490966797e-01,1.997901916503906250e+00,7.265545977548237833e-01,0.000000000000000000e+00,1.120000000000000000e+02
1.000000000000000000e+00,1.000000000000000000e+00,1.000000000000000000e+00,5.100000000000000000e+01,1.310800000000000000e+04,2.864899635314941406e-01,2.004491090774536133e+00,7.311045459651384082e-01,0.000000000000000000e+00,1.120000000000000000e+02
1.000000000000000000e+00,1.000000000000000000e+00,1.000000000000000000e+00,5.600000000000000000e+01,1.316400000000000000e+04,3.355908393859863281e-01,1.837610006332397461e+00,5.190578929255449392e-01,0.000000000000000000e+00,1.120000000000000000e+02
0.000000000000000000e+00,1.000000000000000000e+00,0.000000000000000000e+00,5.200000000000000000e+01,1.321600000000000000e+04,2.827320098876953125e-01,1.675176858901977539e+00,3.944052234146829261e-01,0.000000000000000000e+00,1.120000000000000000e+02
0.000000000000000000e+00,1.000000000000000000e+00,0.000000000000000000e+00,5.200000000000000000e+01,1.326800000000000000e+04,2.940878868103027344e-01,1.525128126144409180e+00,2.531147648352911617e-01,0.000000000000000000e+00,1.120000000000000000e+02
1.000000000000000000e+00,1.000000000000000000e+00,1.000000000000000000e+00,5.700000000000000000e+01,1.332500000000000000e+04,3.507599830627441406e-01,1.721775054931640625e+00,3.748277740907778321e-01,0.000000000000000000e+00,1.120000000000000000e+02
1.000000000000000000e+00,1.000000000000000000e+00,1.000000000000000000e+00,5.200000000000000000e+01,1.337700000000000000e+04,3.142209053039550781e-01,1.796601057052612305e+00,4.880504211384766866e-01,0.000000000000000000e+00,1.120000000000000000e+02
0.000000000000000000e+00,1.000000000000000000e+00,0.000000000000000000e+00,5.500000000000000000e+01,1.343200000000000000e+04,2.792150974273681641e-01,1.537024021148681641e+00,2.587362418969726963e-01,0.000000000000000000e+00,1.120000000000000000e+02
0.000000000000000000e+00,1.000000000000000000e+00,0.000000000000000000e+00,5.600000000000000000e+01,1.348800000000000000e+04,3.009178638458251953e-01,1.744617938995361328e+00,4.532081034471972525e-01,0.000000000000000000e+00,1.120000000000000000e+02
0.000000000000000000e+00,1.000000000000000000e+00,0.000000000000000000e+00,5.300000000000000000e+01,1.354100000000000000e+04,2.839879989624023438e-01,1.557355165481567383e+00,2.774960579719449316e-01,0.000000000000000000e+00,1.120000000000000000e+02
0.000000000000000000e+00,1.000000000000000000e+00,0.000000000000000000e+00,5.300000000000000000e+01,1.359400000000000000e+04,2.750611305236816406e-01,1.715118885040283203e+00,4.591366853900525902e-01,0.000000000000000000e+00,1.120000000000000000e+02
0.000000000000000000e+00,0.000000000000000000e+00,1.000000000000000000e+00,4.800000000000000000e+01,1.364200000000000000e+04,2.374429702758789062e-01,1.502778053283691406e+00,2.788818043786105982e-01,0.000000000000000000e+00,1.120000000000000000e+02
1.000000000000000000e+00,1.000000000000000000e+00,1.000000000000000000e+00,5.200000000000000000e+01,1.369400000000000000e+04,3.045151233673095703e-01,1.856739997863769531e+00,5.687238541423531579e-01,0.000000000000000000e+00,1.120000000000000000e+02
1.000000000000000000e+00,1.000000000000000000e+00,1.000000000000000000e+00,5.000000000000000000e+01,1.374400000000000000e+04,2.768988609313964844e-01,1.973249912261962891e+00,7.085610859667272887e-01,0.000000000000000000e+00,1.120000000000000000e+02
1.000000000000000000e+00,1.000000000000000000e+00,1.000000000000000000e+00,5.700000000000000000e+01,1.380100000000000000e+04,3.033549785614013672e-01,1.596707105636596680e+00,3.057907429204825833e-01,0.000000000000000000e+00,1.120000000000000000e+02
0.000000000000000000e+00,1.000000000000000000e+00,0.000000000000000000e+00,5.700000000000000000e+01,1.385800000000000000e+04,3.083488941192626953e-01,1.738692998886108398e+00,4.443894214231039475e-01,0.000000000000000000e+00,1.120000000000000000e+02
0.000000000000000000e+00,1.000000000000000000e+00,0.000000000000000000e+00,5.600000000000000000e+01,1.391400000000000000e+04,2.920629978179931641e-01,1.831286191940307617e+00,5.589694023331170936e-01,0.000000000000000000e+00,1.120000000000000000e+02
0.000000000000000000e+00,1.000000000000000000e+00,0.000000000000000000e+00,5.100000000000000000e+01,1.396500000000000000e+04,3.318121433258056641e-01,1.821964979171752930e+00,4.977538498193312400e-01,0.000000000000000000e+00,1.120000000000000000e+02
1.000000000000000000e+00,1.000000000000000000e+00,1.000000000000000000e+00,5.100000000000000000e+01,1.401600000000000000e+04,3.472151756286621094e-01,2.036612987518310547e+00,7.009008898553901190e-01,0.000000000000000000e+00,1.120000000000000000e+02
1.000000000000000000e+00,1.000000000000000000e+00,1.000000000000000000e+00,5.300000000000000000e+01,1.406900000000000000e+04,3.132989406585693359e-01,1.688110113143920898e+00,3.727830595501827049e-01,0.000000000000000000e+00,1.120000000000000000e+02
0.000000000000000000e+00,1.000000000000000000e+00,0.000000000000000000e+00,5.500000000000000000e+01,1.412400000000000000e+04,3.020050525665283203e-01,1.693624973297119141e+00,3.998237298831885944e-01,0.000000000000000000e+00,1.120000000000000000e+02
0.000000000000000000e+00,1.000000000000000000e+00,0.000000000000000000e+00,5.600000000000000000e+01,1.418000000000000000e+04,3.760747909545898438e-01,1.758186101913452148e+00,3.914059306343807831e-01,0.000000000000000000e+00,1.120000000000000000e+02
1.000000000000000000e+00,1.000000000000000000e+00,1.000000000000000000e+00,5.600000000000000000e+01,1.423600000000000000e+04,3.371508121490478516e-01,1.674059867858886719e+00,3.489218471232509167e-01,0.000000000000000000e+00,1.120000000000000000e+02
1.000000000000000000e+00,1.000000000000000000e+00,1.000000000000000000e+00,5.100000000000000000e+01,1.428700000000000000e+04,3.248741626739501953e-01,1.849251985549926758e+00,5.313977616200940002e-01,0.000000000000000000e+00,1.120000000000000000e+02
1.000000000000000000e+00,1.000000000000000000e+00,1.000000000000000000e+00,5.200000000000000000e+01,1.433900000000000000e+04,3.035709857940673828e-01,1.911484003067016602e+00,6.261850250847020849e-01,0.000000000000000000e+00,1.120000000000000000e+02
0.000000000000000000e+00,1.000000000000000000e+00,0.000000000000000000e+00,5.300000000000000000e+01,1.439200000000000000e+04,2.779569625854492188e-01,1.665462017059326172e+00,4.086212570152024104e-01,0.000000000000000000e+00,1.120000000000000000e+02
1.000000000000000000e+00,1.000000000000000000e+00,1.000000000000000000e+00,5.100000000000000000e+01,1.444300000000000000e+04,3.153579235076904297e-01,1.882080078125000000e+00,5.739326020332631284e-01,0.000000000000000000e+00,1.120000000000000000e+02
0.000000000000000000e+00,1.000000000000000000e+00,0.000000000000000000e+00,5.400000000000000000e+01,1.449700000000000000e+04,3.011419773101806641e-01,2.039175987243652344e+00,7.463724298570101334e-01,0.000000000000000000e+00,1.120000000000000000e+02
1.000000000000000000e+00,1.000000000000000000e+00,1.000000000000000000e+00,5.700000000000000000e+01,1.455400000000000000e+04,2.858779430389404297e-01,1.602646112442016602e+00,3.328611041442181007e-01,0.000000000000000000e+00,1.120000000000000000e+02
0.000000000000000000e+00,1.000000000000000000e+00,0.000000000000000000e+00,5.100000000000000000e+01,1.460500000000000000e+04,3.412308692932128906e-01,1.908330917358398438e+00,5.743377672409084589e-01,0.000000000000000000e+00,1.120000000000000000e+02
1.000000000000000000e+00,1.000000000000000000e+00,1.000000000000000000e+00,5.900000000000000000e+01,1.466400000000000000e+04,2.830030918121337891e-01,1.823135852813720703e+00,5.475936054055761115e-01,0.000000000000000000e+00,1.120000000000000000e+02
1.000000000000000000e+00,1.000000000000000000e+00,1.000000000000000000e+00,5.700000000000000000e+01,1.472100000000000000e+04,3.356881141662597656e-01,1.744266033172607422e+00,4.253848753090768153e-01,0.000000000000000000e+00,1.120000000000000000e+02
0.000000000000000000e+00,1.000000000000000000e+00,0.000000000000000000e+00,5.400000000000000000e+01,1.477500000000000000e+04,3.277490139007568359e-01,1.966044902801513672e+00,6.412777582295461354e-01,0.000000000000000000e+00,1.120000000000000000e+02
1.000000000000000000e+00,1.000000000000000000e+00,1.000000000000000000e+00,5.600000000000000000e+01,1.483100000000000000e+04,3.011400699615478516e-01,1.793576002120971680e+00,5.017773490836381356e-01,0.000000000000000000e+00,1.120000000000000000e+02
0.000000000000000000e+00,1.000000000000000000e+00,0.000000000000000000e+00,5.400000000000000000e+01,1.488500000000000000e+04,3.212058544158935547e-01,1.660223960876464844e+00,3.455690663520661343e-01,0.000000000000000000e+00,1.120000000000000000e+02
0.000000000000000000e+00,1.000000000000000000e+00,0.000000000000000000e+00,5.500000000000000000e+01,1.494000000000000000e+04,3.962669372558593750e-01,1.670506000518798828e+00,2.828966964070172008e-01,0.000000000000000000e+00,1.120000000000000000e+02
1.000000000000000000e+00,1.000000000000000000e+00,1.000000000000000000e+00,5.200000000000000000e+01,1.499200000000000000e+04,2.849769592285156250e-01,1.687368154525756836e+00,4.035336786699035838e-01,0.000000000000000000e+00,1.120000000000000000e+02
0.000000000000000000e+00,1.000000000000000000e+00,0.000000000000000000e+00,5.000000000000000000e+01,1.504200000000000000e+04,3.348019123077392578e-01,2.030396938323974609e+00,7.003520921977497427e-01,0.000000000000000000e+00,1.120000000000000000e+02
1.000000000000000000e+00,1.000000000000000000e+00,1.000000000000000000e+00,5.700000000000000000e+01,1.509900000000000000e+04,2.884531021118164062e-01,1.902297973632812500e+00,6.194911098475153199e-01,0.000000000000000000e+00,1.120000000000000000e+02
1.000000000000000000e+00,1.000000000000000000e+00,1.000000000000000000e+00,5.300000000000000000e+01,1.515200000000000000e+04,2.925369739532470703e-01,1.590630054473876953e+00,3.105374383645025382e-01,0.000000000000000000e+00,1.120000000000000000e+02
0.000000000000000000e+00,1.000000000000000000e+00,0.000000000000000000e+00,5.500000000000000000e+01,1.520700000000000000e+04,3.012509346008300781e-01,1.940379142761230469e+00,6.506500858896977491e-01,0.000000000000000000e+00,1.120000000000000000e+02
1.000000000000000000e+00,1.000000000000000000e+00,1.000000000000000000e+00,5.500000000000000000e+01,1.526200000000000000e+04,2.593610286712646484e-01,1.712405920028686523e+00,4.633254831183050704e-01,0.000000000000000000e+00,1.120000000000000000e+02
0.000000000000000000e+00,1.000000000000000000e+00,0.000000000000000000e+00,5.600000000000000000e+01,1.531800000000000000e+04,3.004570007324218750e-01,2.023914813995361328e+00,7.369866012619625817e-01,0.000000000000000000e+00,1.120000000000000000e+02
0.000000000000000000e+00,1.000000000000000000e+00,0.000000000000000000e+00,5.200000000000000000e+01,1.537000000000000000e+04,2.960958480834960938e-01,1.690857887268066406e+00,3.949889253325630789e-01,0.000000000000000000e+00,1.120000000000000000e+02
0.000000000000000000e+00,1.000000000000000000e+00,0.000000000000000000e+00,5.000000000000000000e+01,1.542000000000000000e+04,3.158650398254394531e-01,1.938606023788452148e+00,6.334473848962877129e-01,0.000000000000000000e+00,1.120000000000000000e+02
0.000000000000000000e+00,0.000000000000000000e+00,1.000000000000000000e+00,4.800000000000000000e+01,1.546800000000000000e+04,5.449001789093017578e-01,2.225170135498046875e+00,6.753239486200466324e-01,0.000000000000000000e+00,1.120000000000000000e+02
0.000000000000000000e+00,1.000000000000000000e+00,0.000000000000000000e+00,5.200000000000000000e+01,1.552000000000000000e+04,2.842998504638671875e-01,1.899616956710815430e+00,6.250979857481340218e-01,0.000000000000000000e+00,1.120000000000000000e+02
0.000000000000000000e+00,1.000000000000000000e+00,0.000000000000000000e+00,6.000000000000000000e+01,1.558000000000000000e+04,2.783808708190917969e-01,1.788119077682495117e+00,5.134089346690489108e-01,0.000000000000000000e+00,1.120000000000000000e+02
1.000000000000000000e+00,1.000000000000000000e+00,1.000000000000000000e+00,5.400000000000000000e+01,1.563400000000000000e+04,2.630970478057861328e-01,1.815989017486572266e+00,5.627603086159732593e-01,0.000000000000000000e+00,1.120000000000000000e+02
0.000000000000000000e+00,1.000000000000000000e+00,0.000000000000000000e+00,5.500000000000000000e+01,1.568900000000000000e+04,2.654700279235839844e-01,1.798238992691040039e+00,5.444458098643671917e-01,0.000000000000000000e+00,1.120000000000000000e+02
0.000000000000000000e+00,1.000000000000000000e+00,0.000000000000000000e+00,5.200000000000000000e+01,1.574100000000000000e+04,2.746710777282714844e-01,1.676841020584106445e+00,4.214567844379254469e-01,0.000000000000000000e+00,1.120000000000000000e+02
0.000000000000000000e+00,1.000000000000000000e+00,0.000000000000000000e+00,5.200000000000000000e+01,1.579300000000000000e+04,2.403099536895751953e-01,1.722794055938720703e+00,4.942605850208074969e-01,0.000000000000000000e+00,1.120000000000000000e+02
1.000000000000000000e+00,1.000000000000000000e+00,1.000000000000000000e+00,5.300000000000000000e+01,1.584600000000000000e+04,2.606949806213378906e-01,1.926454067230224609e+00,6.872862475955712203e-01,0.000000000000000000e+00,1.120000000000000000e+02
0.000000000000000000e+00,1.000000000000000000e+00,0.000000000000000000e+00,6.000000000000000000e+01,1.590600000000000000e+04,2.734129428863525391e-01,1.640045881271362305e+00,3.777288432442333921e-01,0.000000000000000000e+00,1.120000000000000000e+02
1.000000000000000000e+00,1.000000000000000000e+00,1.000000000000000000e+00,5.500000000000000000e+01,1.596100000000000000e+04,4.441800117492675781e-01,2.138012886047363281e+00,6.988244695608029078e-01,0.000000000000000000e+00,1.120000000000000000e+02
0.000000000000000000e+00,1.000000000000000000e+00,0.000000000000000000e+00,5.400000000000000000e+01,1.601500000000000000e+04,2.882180213928222656e-01,1.573264122009277344e+00,2.892528062178084669e-01,0.000000000000000000e+00,1.120000000000000000e+02
1.000000000000000000e+00,1.000000000000000000e+00,1.000000000000000000e+00,5.200000000000000000e+01,1.606700000000000000e+04,2.905800342559814453e-01,1.888873815536499023e+00,6.111939658664888864e-01,0.000000000000000000e+00,1.120000000000000000e+02
0.000000000000000000e+00,1.000000000000000000e+00,0.000000000000000000e+00,5.200000000000000000e+01,1.611900000000000000e+04,2.883470058441162109e-01,1.808694839477539062e+00,5.367063450993074802e-01,0.000000000000000000e+00,1.120000000000000000e+02
1.000000000000000000e+00,1.000000000000000000e+00,1.000000000000000000e+00,5.000000000000000000e+01,1.616900000000000000e+04,2.957191467285156250e-01,2.011470079421997070e+00,7.147755160032689403e-01,0.000000000000000000e+00,1.120000000000000000e+02
0.000000000000000000e+00,1.000000000000000000e+00,0.000000000000000000e+00,5.400000000000000000e+01,1.622300000000000000e+04,3.768069744110107422e-01,1.744720935821533203e+00,3.765745579089422868e-01,0.000000000000000000e+00,1.120000000000000000e+02
1.000000000000000000e+00,1.000000000000000000e+00,1.000000000000000000e+00,5.700000000000000000e+01,1.628000000000000000e+04,2.988889217376708984e-01,2.011789798736572266e+00,7.214393491119117652e-01,0.000000000000000000e+00,1.120000000000000000e+02
0.000000000000000000e+00,1.000000000000000000e+00,0.000000000000000000e+00,5.000000000000000000e+01,1.633000000000000000e+04,2.893068790435791016e-01,1.833474874496459961e+00,5.552009360416001460e-01,0.000000000000000000e+00,1.120000000000000000e+02
0.000000000000000000e+00,1.000000000000000000e+00,0.000000000000000000e+00,5.300000000000000000e+01,1.638300000000000000e+04,3.030049800872802734e-01,1.745110988616943359e+00,4.504736241584564871e-01,0.000000000000000000e+00,1.120000000000000000e+02
1.000000000000000000e+00,1.000000000000000000e+00,1.000000000000000000e+00,5.600000000000000000e+01,1.643900000000000000e+04,2.760629653930664062e-01,1.536590099334716797e+00,2.706566612606222111e-01,0.000000000000000000e+00,1.120000000000000000e+02
0.000000000000000000e+00,1.000000000000000000e+00,0.000000000000000000e+00,5.200000000000000000e+01,1.649100000000000000e+04,4.617769718170166016e-01,1.816715955734252930e+00,3.540669751231299567e-01,0.000000000000000000e+00,1.120000000000000000e+02
0.000000000000000000e+00,1.000000000000000000e+00,0.000000000000000000e+00,5.400000000000000000e+01,1.654500000000000000e+04,3.221750259399414062e-01,1.694110870361328125e+00,3.815238082314186818e-01,0.000000000000000000e+00,1.120000000000000000e+02
0.000000000000000000e+00,1.000000000000000000e+00,0.000000000000000000e+00,5.200000000000000000e+01,1.659700000000000000e+04,6.499118804931640625e-01,2.212239980697631836e+00,5.769978216722966291e-01,0.000000000000000000e+00,1.120000000000000000e+02
0.000000000000000000e+00,1.000000000000000000e+00,0.000000000000000000e+00,5.300000000000000000e+01,1.665000000000000000e+04,2.602992057800292969e-01,1.530575037002563477e+00,2.912719701564927544e-01,0.000000000000000000e+00,1.120000000000000000e+02
0.000000000000000000e+00,1.000000000000000000e+00,0.000000000000000000e+00,5.200000000000000000e+01,1.670200000000000000e+04,1.517431735992431641e-01,1.838984012603759766e+00,6.965604907722646733e-01,0.000000000000000000e+00,1.120000000000000000e+02
0.000000000000000000e+00,1.000000000000000000e+00,0.000000000000000000e+00,5.900000000000000000e+01,1.676100000000000000e+04,3.187348842620849609e-01,1.998064994812011719e+00,6.947286626369533202e-01,0.000000000000000000e+00,1.120000000000000000e+02
0.000000000000000000e+00,1.000000000000000000e+00,0.000000000000000000e+00,5.900000000000000000e+01,1.682000000000000000e+04,4.098508358001708984e-01,1.996955871582031250e+00,6.085134092133461792e-01,0.000000000000000000e+00,1.120000000000000000e+02
1.000000000000000000e+00,1.000000000000000000e+00,1.000000000000000000e+00,5.200000000000000000e+01,1.687200000000000000e+04,3.729028701782226562e-01,1.918971061706542969e+00,5.609590913673481172e-01,0.000000000000000000e+00,1.120000000000000000e+02
0.000000000000000000e+00,1.000000000000000000e+00,0.000000000000000000e+00,5.700000000000000000e+01,1.692900000000000000e+04,6.643221378326416016e-01,2.302937030792236328e+00,6.472604120223135471e-01,0.000000000000000000e+00,1.120000000000000000e+02
1.000000000000000000e+00,1.000000000000000000e+00,1.000000000000000000e+00,5.100000000000000000e+01,1.698000000000000000e+04,4.124040603637695312e-01,2.137842893600463867e+00,7.350760757271190826e-01,0.000000000000000000e+00,1.120000000000000000e+02
1.000000000000000000e+00,1.000000000000000000e+00,1.000000000000000000e+00,5.500000000000000000e+01,1.703500000000000000e+04,4.074621200561523438e-01,2.077371835708618164e+00,6.792710457704175253e-01,0.000000000000000000e+00,1.120000000000000000e+02
0.000000000000000000e+00,1.000000000000000000e+00,0.000000000000000000e+00,5.300000000000000000e+01,1.708800000000000000e+04,2.799060344696044922e-01,1.747320175170898438e+00,4.769145340903375718e-01,0.000000000000000000e+00,1.120000000000000000e+02
1.000000000000000000e+00,1.000000000000000000e+00,1.000000000000000000e+00,5.000000000000000000e+01,1.713800000000000000e+04,2.789299488067626953e-01,1.531812906265258789e+00,2.590274494347643008e-01,0.000000000000000000e+00,1.120000000000000000e+02
0.000000000000000000e+00,1.000000000000000000e+00,0.000000000000000000e+00,5.000000000000000000e+01,1.718800000000000000e+04,3.186559677124023438e-01,1.847954988479614258e+00,5.400944575467327979e-01,0.000000000000000000e+00,1.120000000000000000e+02
0.000000000000000000e+00,1.000000000000000000e+00,0.000000000000000000e+00,5.500000000000000000e+01,1.724300000000000000e+04,3.037090301513671875e-01,1.672936201095581055e+00,3.799314022430540505e-01,0.000000000000000000e+00,1.120000000000000000e+02
0.000000000000000000e+00,1.000000000000000000e+00,0.000000000000000000e+00,5.000000000000000000e+01,1.729300000000000000e+04,2.670919895172119141e-01,1.561697959899902344e+00,3.084619315871660605e-01,0.000000000000000000e+00,1.120000000000000000e+02
1.000000000000000000e+00,1.000000000000000000e+00,1.000000000000000000e+00,5.600000000000000000e+01,1.734900000000000000e+04,3.174910545349121094e-01,1.796696901321411133e+00,4.883776383235300389e-01,0.000000000000000000e+00,1.120000000000000000e+02
0.000000000000000000e+00,1.000000000000000000e+00,0.000000000000000000e+00,5.100000000000000000e+01,1.740000000000000000e+04,2.465109825134277344e-01,1.531935930252075195e+00,2.872371958166427541e-01,0.000000000000000000e+00,1.120000000000000000e+02
0.000000000000000000e+00,1.000000000000000000e+00,0.000000000000000000e+00,5.200000000000000000e+01,1.745200000000000000e+04,2.682859897613525391e-01,1.766124963760375977e+00,5.032384396784901348e-01,0.000000000000000000e+00,1.120000000000000000e+02
0.000000000000000000e+00,1.000000000000000000e+00,0.000000000000000000e+00,5.200000000000000000e+01,1.750400000000000000e+04,2.266459465026855469e-01,1.828747987747192383e+00,6.152843568027041021e-01,0.000000000000000000e+00,1.120000000000000000e+02
0.000000000000000000e+00,1.000000000000000000e+00,0.000000000000000000e+00,5.500000000000000000e+01,1.755900000000000000e+04,2.973980903625488281e-01,1.898732900619506836e+00,5.974640059955198534e-01,0.000000000000000000e+00,1.120000000000000000e+02
1.000000000000000000e+00,1.000000000000000000e+00,1.000000000000000000e+00,5.700000000000000000e+01,1.761600000000000000e+04,2.851390838623046875e-01,1.946012973785400391e+00,6.767982839842650034e-01,0.000000000000000000e+00,1.120000000000000000e+02
0.000000000000000000e+00,1.000000000000000000e+00,0.000000000000000000e+00,5.600000000000000000e+01,1.767200000000000000e+04,2.571351528167724609e-01,1.578648090362548828e+00,3.392050761802343217e-01,0.000000000000000000e+00,1.120000000000000000e+02
1.000000000000000000e+00,1.000000000000000000e+00,1.000000000000000000e+00,5.200000000000000000e+01,1.772400000000000000e+04,2.699170112609863281e-01,1.789523124694824219e+00,5.286070594938423461e-01,0.000000000000000000e+00,1.120000000000000000e+02
0.000000000000000000e+00,1.000000000000000000e+00,0.000000000000000000e+00,5.200000000000000000e+01,1.777600000000000000e+04,2.687098979949951172e-01,1.688446044921875000e+00,4.338886392325443375e-01,0.000000000000000000e+00,1.120000000000000000e+02
1.000000000000000000e+00,0.000000000000000000e+00,0.000000000000000000e+00,4.300000000000000000e+01,1.781900000000000000e+04,3.047010898590087891e-01,1.991996049880981445e+00,6.923822603228255712e-01,1.000000000000000000e+00,1.110000000000000000e+02
1.000000000000000000e+00,1.000000000000000000e+00,1.000000000000000000e+00,6.300000000000000000e+01,1.788200000000000000e+04,3.264598846435546875e-01,1.777036905288696289e+00,4.697480813757998752e-01,0.000000000000000000e+00,1.110000000000000000e+02
0.000000000000000000e+00,1.000000000000000000e+00,0.000000000000000000e+00,5.700000000000000000e+01,1.793900000000000000e+04,2.521569728851318359e-01,1.498624086380004883e+00,2.519981928196114995e-01,0.000000000000000000e+00,1.110000000000000000e+02
1.000000000000000000e+00,1.000000000000000000e+00,1.000000000000000000e+00,5.400000000000000000e+01,1.799300000000000000e+04,2.771899700164794922e-01,1.973083019256591797e+00,6.913510178639604709e-01,0.000000000000000000e+00,1.110000000000000000e+02
1.000000000000000000e+00,1.000000000000000000e+00,1.000000000000000000e+00,5.700000000000000000e+01,1.805000000000000000e+04,2.776198387145996094e-01,1.789121866226196289e+00,5.307464788697597857e-01,0.000000000000000000e+00,1.110000000000000000e+02
1.000000000000000000e+00,1.000000000000000000e+00,1.000000000000000000e+00,5.500000000000000000e+01,1.810500000000000000e+04,3.403539657592773438e-01,2.066242933273315430e+00,7.468490850904661027e-01,0.000000000000000000e+00,1.110000000000000000e+02
0.000000000000000000e+00,1.000000000000000000e+00,0.000000000000000000e+00,5.700000000000000000e+01,1.816200000000000000e+04,2.857558727264404297e-01,1.611111879348754883e+00,3.417665931740896390e-01,0.000000000000000000e+00,1.110000000000000000e+02
1.000000000000000000e+00,1.000000000000000000e+00,1.000000000000000000e+00,5.300000000000000000e+01,1.821500000000000000e+04,2.281138896942138672e-01,1.605982065200805664e+00,3.811332974232480297e-01,0.000000000000000000e+00,1.110000000000000000e+02
0.000000000000000000e+00,1.000000000000000000e+00,0.000000000000000000e+00,5.600000000000000000e+01,1.827100000000000000e+04,2.223780155181884766e-01,1.465842962265014648e+00,2.638419399538867172e-01,0.000000000000000000e+00,1.110000000000000000e+02
1.000000000000000000e+00,1.000000000000000000e+00,1.000000000000000000e+00,6.100000000000000000e+01,1.833200000000000000e+04,2.886021137237548828e-01,1.709215164184570312e+00,4.395862002228859700e-01,0.000000000000000000e+00,1.110000000000000000e+02
1.000000000000000000e+00,1.000000000000000000e+00,1.000000000000000000e+00,5.600000000000000000e+01,1.838800000000000000e+04,3.109810352325439453e-01,1.682985067367553711e+00,3.727281724945074037e-01,0.000000000000000000e+00,1.110000000000000000e+02
0.000000000000000000e+00,1.000000000000000000e+00,0.000000000000000000e+00,5.700000000000000000e+01,1.844500000000000000e+04,2.756509780883789062e-01,1.869269847869873047e+00,6.085247899881983669e-01,0.000000000000000000e+00,1.110000000000000000e+02
0.000000000000000000e+00,1.000000000000000000e+00,0.000000000000000000e+00,5.900000000000000000e+01,1.850400000000000000e+04,2.661218643188476562e-01,1.533517837524414062e+00,2.757679449076934630e-01,0.000000000000000000e+00,1.110000000000000000e+02
0.000000000000000000e+00,1.000000000000000000e+00,0.000000000000000000e+00,5.700000000000000000e+01,1.856100000000000000e+04,3.058140277862548828e-01,1.585028886795043945e+00,2.941809762874312284e-01,0.000000000000000000e+00,1.110000000000000000e+02
0.000000000000000000e+00,1.000000000000000000e+00,0.000000000000000000e+00,6.300000000000000000e+01,1.862400000000000000e+04,4.675259590148925781e-01,1.849436998367309570e+00,3.935971099178446342e-01,0.000000000000000000e+00,1.110000000000000000e+02
0.000000000000000000e+00,1.000000000000000000e+00,0.000000000000000000e+00,5.400000000000000000e+01,1.867800000000000000e+04,3.786418437957763672e-01,1.704293012619018555e+00,3.313545261605844727e-01,0.000000000000000000e+00,1.110000000000000000e+02
0.000000000000000000e+00,1.000000000000000000e+00,0.000000000000000000e+00,6.000000000000000000e+01,1.873800000000000000e+04,2.866530418395996094e-01,1.913562059402465820e+00,6.446907573759143029e-01,0.000000000000000000e+00,1.110000000000000000e+02
1.000000000000000000e+00,1.000000000000000000e+00,1.000000000000000000e+00,5.200000000000000000e+01,1.879000000000000000e+04,2.840800285339355469e-01,1.653393983840942383e+00,3.817750671008539598e-01,0.000000000000000000e+00,1.110000000000000000e+02
1.000000000000000000e+00,1.000000000000000000e+00,1.000000000000000000e+00,5.700000000000000000e+01,1.884700000000000000e+04,3.941569328308105469e-01,1.902672052383422852e+00,5.177068050199984395e-01,0.000000000000000000e+00,1.110000000000000000e+02
0.000000000000000000e+00,1.000000000000000000e+00,0.000000000000000000e+00,5.900000000000000000e+01,1.890600000000000000e+04,3.234930038452148438e-01,1.935648918151855469e+00,6.200167550351247669e-01,0.000000000000000000e+00,1.110000000000000000e+02
1.000000000000000000e+00,1.000000000000000000e+00,1.000000000000000000e+00,5.300000000000000000e+01,1.895900000000000000e+04,3.572452068328857422e-01,1.960350990295410156e+00,6.139367616903816938e-01,0.000000000000000000e+00,1.110000000000000000e+02
0.000000000000000000e+00,1.000000000000000000e+00,0.000000000000000000e+00,6.300000000000000000e+01,1.902200000000000000e+04,4.523189067840576172e-01,1.733165025711059570e+00,2.973699947317169356e-01,0.000000000000000000e+00,1.110000000000000000e+02
0.000000000000000000e+00,1.000000000000000000e+00,0.000000000000000000e+00,6.000000000000000000e+01,1.908200000000000000e+04,3.030271530151367188e-01,1.954307079315185547e+00,6.680430727680838343e-01,0.000000000000000000e+00,1.110000000000000000e+02
1.000000000000000000e+00,1.000000000000000000e+00,1.000000000000000000e+00,6.000000000000000000e+01,1.914200000000000000e+04,5.494940280914306641e-01,2.288411855697631836e+00,7.398112694892735597e-01,0.000000000000000000e+00,1.110000000000000000e+02
1.000000000000000000e+00,1.000000000000000000e+00,1.000000000000000000e+00,5.900000000000000000e+01,1.920100000000000000e+04,2.972319126129150391e-01,1.578485965728759766e+00,2.855168821795843748e-01,0.000000000000000000e+00,1.110000000000000000e+02
1.000000000000000000e+00,1.000000000000000000e+00,1.000000000000000000e+00,5.700000000000000000e+01,1.925800000000000000e+04,3.538851737976074219e-01,1.749047040939331055e+00,4.011976503360882296e-01,0.000000000000000000e+00,1.110000000000000000e+02
1.000000000000000000e+00,1.000000000000000000e+00,1.000000000000000000e+00,5.500000000000000000e+01,1.931300000000000000e+04,2.729458808898925781e-01,1.808784008026123047e+00,5.432345061201552250e-01,0.000000000000000000e+00,1.110000000000000000e+02
1.000000000000000000e+00,1.000000000000000000e+00,1.000000000000000000e+00,5.600000000000000000e+01,1.936900000000000000e+04,2.220220565795898438e-01,1.589802026748657227e+00,3.832711448241292174e-01,0.000000000000000000e+00,1.110000000000000000e+02
1.000000000000000000e+00,1.000000000000000000e+00,1.000000000000000000e+00,6.000000000000000000e+01,1.942900000000000000e+04,2.721021175384521484e-01,1.992232084274291992e+00,7.252399914407485770e-01,0.000000000000000000e+00,1.110000000000000000e+02
0.000000000000000000e+00,1.000000000000000000e+00,0.000000000000000000e+00,5.900000000000000000e+01,1.948800000000000000e+04,2.588319778442382812e-01,1.779245853424072266e+00,5.380570261581917313e-01,0.000000000000000000e+00,1.110000000000000000e+02
1.000000000000000000e+00,1.000000000000000000e+00,1.000000000000000000e+00,5.600000000000000000e+01,1.954400000000000000e+04,2.326309680938720703e-01,1.859533071517944336e+00,6.309437828937993764e-01,0.000000000000000000e+00,1.110000000000000000e+02
1.000000000000000000e+00,1.000000000000000000e+00,1.000000000000000000e+00,5.900000000000000000e+01,1.960300000000000000e+04,2.306051254272460938e-01,1.656430006027221680e+00,4.376582603129858251e-01,0.000000000000000000e+00,1.110000000000000000e+02
1.000000000000000000e+00,1.000000000000000000e+00,1.000000000000000000e+00,6.000000000000000000e+01,1.966300000000000000e+04,3.240189552307128906e-01,1.886137008666992188e+00,5.737287912719339911e-01,0.000000000000000000e+00,1.110000000000000000e+02
0.000000000000000000e+00,1.000000000000000000e+00,0.000000000000000000e+00,5.700000000000000000e+01,1.972000000000000000e+04,3.337519168853759766e-01,2.010531187057495117e+00,6.842408409495122079e-01,0.000000000000000000e+00,1.110000000000000000e+02
0.000000000000000000e+00,1.000000000000000000e+00,0.000000000000000000e+00,5.600000000000000000e+01,1.977600000000000000e+04,3.150498867034912109e-01,1.741277933120727539e+00,4.258841360258043829e-01,0.000000000000000000e+00,1.110000000000000000e+02
1.000000000000000000e+00,1.000000000000000000e+00,1.000000000000000000e+00,5.700000000000000000e+01,1.983300000000000000e+04,3.018860816955566406e-01,1.563849925994873047e+00,2.732778565148027972e-01,0.000000000000000000e+00,1.110000000000000000e+02
1.000000000000000000e+00,1.000000000000000000e+00,1.000000000000000000e+00,5.600000000000000000e+01,1.988900000000000000e+04,3.481528759002685547e-01,2.059128999710083008e+00,7.153494309886425651e-01,0.000000000000000000e+00,1.110000000000000000e+02
1.000000000000000000e+00,1.000000000000000000e+00,1.000000000000000000e+00,6.100000000000000000e+01,1.995000000000000000e+04,3.166470527648925781e-01,2.007471799850463867e+00,6.896021221308332727e-01,0.000000000000000000e+00,1.110000000000000000e+02
1.000000000000000000e+00,1.000000000000000000e+00,1.000000000000000000e+00,6.200000000000000000e+01,2.001200000000000000e+04,3.166749477386474609e-01,2.025763988494873047e+00,7.157613988991828879e-01,0.000000000000000000e+00,1.110000000000000000e+02
0.000000000000000000e+00,1.000000000000000000e+00,0.000000000000000000e+00,5.500000000000000000e+01,2.006700000000000000e+04,3.356010913848876953e-01,1.984912157058715820e+00,6.505471828075015672e-01,0.000000000000000000e+00,1.110000000000000000e+02
1.000000000000000000e+00,1.000000000000000000e+00,1.000000000000000000e+00,5.500000000000000000e+01,2.012200000000000000e+04,2.862508296966552734e-01,2.006192922592163086e+00,7.234615838441186275e-01,0.000000000000000000e+00,1.110000000000000000e+02
0.000000000000000000e+00,1.000000000000000000e+00,0.000000000000000000e+00,5.600000000000000000e+01,2.017800000000000000e+04,7.483201026916503906e-01,2.220016002655029297e+00,4.771363449852671912e-01,0.000000000000000000e+00,1.110000000000000000e+02
0.000000000000000000e+00,1.000000000000000000e+00,0.000000000000000000e+00,5.500000000000000000e+01,2.023300000000000000e+04,2.457299232482910156e-01,1.530550003051757812e+00,2.912734220831778575e-01,0.000000000000000000e+00,1.110000000000000000e+02
0.000000000000000000e+00,1.000000000000000000e+00,0.000000000000000000e+00,5.700000000000000000e+01,2.029000000000000000e+04,3.414208889007568359e-01,1.872925043106079102e+00,5.473657356424043163e-01,0.000000000000000000e+00,1.110000000000000000e+02
0.000000000000000000e+00,1.000000000000000000e+00,0.000000000000000000e+00,6.000000000000000000e+01,2.035000000000000000e+04,3.547871112823486328e-01,1.992992162704467773e+00,6.569562264562348597e-01,0.000000000000000000e+00,1.110000000000000000e+02
0.000000000000000000e+00,1.000000000000000000e+00,0.000000000000000000e+00,6.400000000000000000e+01,2.041400000000000000e+04,2.639682292938232422e-01,1.673899888992309570e+00,4.145368505799537640e-01,0.000000000000000000e+00,1.110000000000000000e+02
1.000000000000000000e+00,1.000000000000000000e+00,1.000000000000000000e+00,5.600000000000000000e+01,2.047000000000000000e+04,3.882298469543457031e-01,2.089905023574829102e+00,7.208695256645221150e-01,0.000000000000000000e+00,1.110000000000000000e+02
1.000000000000000000e+00,1.000000000000000000e+00,1.000000000000000000e+00,5.400000000000000000e+01,2.052400000000000000e+04,3.074359893798828125e-01,1.682267904281616211e+00,3.869179751755774666e-01,0.000000000000000000e+00,1.110000000000000000e+02
0.000000000000000000e+00,1.000000000000000000e+00,0.000000000000000000e+00,5.600000000000000000e+01,2.058000000000000000e+04,4.590189456939697266e-01,1.840754985809326172e+00,3.944088754969526933e-01,0.000000000000000000e+00,1.110000000000000000e+02
1.000000000000000000e+00,1.000000000000000000e+00,1.000000000000000000e+00,6.000000000000000000e+01,2.064000000000000000e+04,3.348679542541503906e-01,2.000121116638183594e+00,6.776433423199667017e-01,0.000000000000000000e+00,1.110000000000000000e+02
1.000000000000000000e+00,1.000000000000000000e+00,1.000000000000000000e+00,5.700000000000000000e+01,2.069700000000000000e+04,3.129878044128417969e-01,1.861703872680664062e+00,5.562381241090922357e-01,0.000000000000000000e+00,1.110000000000000000e+02
1.000000000000000000e+00,1.000000000000000000e+00,1.000000000000000000e+00,5.300000000000000000e+01,2.075000000000000000e+04,3.572869300842285156e-01,1.632087945938110352e+00,2.886744152444139511e-01,0.000000000000000000e+00,1.110000000000000000e+02
1.000000000000000000e+00,1.000000000000000000e+00,1.000000000000000000e+00,5.700000000000000000e+01,2.080700000000000000e+04,3.360121250152587891e-01,1.667921066284179688e+00,3.399201280008932735e-01,0.000000000000000000e+00,1.110000000000000000e+02
0.000000000000000000e+00,1.000000000000000000e+00,0.000000000000000000e+00,5.200000000000000000e+01,2.085900000000000000e+04,2.954621315002441406e-01,1.814610958099365234e+00,5.211012557640193332e-01,0.000000000000000000e+00,1.110000000000000000e+02
1.000000000000000000e+00,1.000000000000000000e+00,1.000000000000000000e+00,5.500000000000000000e+01,2.091400000000000000e+04,2.548041343688964844e-01,1.953775882720947266e+00,7.081228381208684031e-01,0.000000000000000000e+00,1.110000000000000000e+02
0.000000000000000000e+00,1.000000000000000000e+00,0.000000000000000000e+00,6.000000000000000000e+01,2.097400000000000000e+04,2.728059291839599609e-01,1.832894086837768555e+00,5.745781165084984377e-01,0.000000000000000000e+00,1.110000000000000000e+02
1.000000000000000000e+00,1.000000000000000000e+00,1.000000000000000000e+00,6.000000000000000000e+01,2.103400000000000000e+04,2.376530170440673828e-01,1.671389102935791016e+00,4.461613854481336627e-01,0.000000000000000000e+00,1.110000000000000000e+02
1.000000000000000000e+00,1.000000000000000000e+00,1.000000000000000000e+00,6.200000000000000000e+01,2.109600000000000000e+04,2.940280437469482422e-01,1.864984035491943359e+00,5.944420101244873855e-01,0.000000000000000000e+00,1.110000000000000000e+02
0.000000000000000000e+00,1.000000000000000000e+00,0.000000000000000000e+00,6.000000000000000000e+01,2.115600000000000000e+04,2.614271640777587891e-01,1.964201927185058594e+00,7.086327271712217213e-01,0.000000000000000000e+00,1.110000000000000000e+02
0.000000000000000000e+00,1.000000000000000000e+00,0.000000000000000000e+00,5.300000000000000000e+01,2.120900000000000000e+04,3.767769336700439453e-01,2.051803827285766602e+00,6.938435353704908160e-01,0.000000000000000000e+00,1.110000000000000000e+02
0.000000000000000000e+00,1.000000000000000000e+00,0.000000000000000000e+00,5.600000000000000000e+01,2.126500000000000000e+04,2.357950210571289062e-01,1.831554174423217773e+00,6.089003790942111305e-01,0.000000000000000000e+00,1.110000000000000000e+02
1.000000000000000000e+00,1.000000000000000000e+00,1.000000000000000000e+00,6.000000000000000000e+01,2.132500000000000000e+04,2.535350322723388672e-01,1.581987857818603516e+00,3.412409014538715368e-01,0.000000000000000000e+00,1.110000000000000000e+02
1.000000000000000000e+00,1.000000000000000000e+00,1.000000000000000000e+00,6.100000000000000000e+01,2.138600000000000000e+04,3.452289104461669922e-01,2.055185079574584961e+00,7.127888965100372953e-01,0.000000000000000000e+00,1.110000000000000000e+02
0.000000000000000000e+00,1.000000000000000000e+00,0.000000000000000000e+00,5.600000000000000000e+01,2.144200000000000000e+04,3.954548835754394531e-01,1.773003101348876953e+00,3.862149381093661904e-01,0.000000000000000000e+00,1.110000000000000000e+02
0.000000000000000000e+00,1.000000000000000000e+00,0.000000000000000000e+00,6.400000000000000000e+01,2.150600000000000000e+04,3.211331367492675781e-01,1.639961957931518555e+00,3.263201763657879173e-01,0.000000000000000000e+00,1.110000000000000000e+02
1.000000000000000000e+00,1.000000000000000000e+00,1.000000000000000000e+00,5.600000000000000000e+01,2.156200000000000000e+04,4.128479957580566406e-01,1.663055896759033203e+00,2.561958991455303702e-01,0.000000000000000000e+00,1.110000000000000000e+02
0.000000000000000000e+00,1.000000000000000000e+00,0.000000000000000000e+00,5.000000000000000000e+01,2.161200000000000000e+04,2.992379665374755859e-01,1.580613851547241211e+00,2.868333853021232671e-01,0.000000000000000000e+00,1.110000000000000000e+02
0.000000000000000000e+00,1.000000000000000000e+00,0.000000000000000000e+00,5.900000000000000000e+01,2.167100000000000000e+04,3.150341510772705078e-01,1.788093090057373047e+00,4.748460535203921640e-01,0.000000000000000000e+00,1.110000000000000000e+02
1.000000000000000000e+00,1.000000000000000000e+00,1.000000000000000000e+00,5.100000000000000000e+01,2.172200000000000000e+04,3.026769161224365234e-01,1.797132015228271484e+00,5.053423873792071142e-01,0.000000000000000000e+00,1.110000000000000000e+02
0.000000000000000000e+00,1.000000000000000000e+00,0.000000000000000000e+00,6.000000000000000000e+01,2.178200000000000000e+04,3.037538528442382812e-01,1.603170156478881836e+00,3.087835508913598925e-01,0.000000000000000000e+00,1.110000000000000000e+02
0.000000000000000000e+00,1.000000000000000000e+00,0.000000000000000000e+00,6.400000000000000000e+01,2.184600000000000000e+04,2.908778190612792969e-01,1.884562015533447266e+00,6.097787839082655648e-01,0.000000000000000000e+00,1.110000000000000000e+02
1.000000000000000000e+00,1.000000000000000000e+00,1.000000000000000000e+00,5.600000000000000000e+01,2.190200000000000000e+04,2.555420398712158203e-01,1.762997865676879883e+00,5.229260393201613510e-01,0.000000000000000000e+00,1.110000000000000000e+02
0.000000000000000000e+00,1.000000000000000000e+00,0.000000000000000000e+00,5.400000000000000000e+01,2.195600000000000000e+04,3.389060497283935547e-01,1.886035203933715820e+00,5.590103107927042458e-01,0.000000000000000000e+00,1.110000000000000000e+02
1.000000000000000000e+00,1.000000000000000000e+00,1.000000000000000000e+00,5.400000000000000000e+01,2.201000000000000000e+04,3.796780109405517578e-01,1.924260854721069336e+00,5.500184637724654380e-01,0.000000000000000000e+00,1.110000000000000000e+02
1.000000000000000000e+00,1.000000000000000000e+00,1.000000000000000000e+00,5.900000000000000000e+01,2.206900000000000000e+04,3.083050251007080078e-01,1.799563169479370117e+00,4.997026681552004246e-01,0.000000000000000000e+00,1.110000000000000000e+02
1.000000000000000000e+00,1.000000000000000000e+00,1.000000000000000000e+00,5.400000000000000000e+01,2.212300000000000000e+04,4.214961528778076172e-01,1.887324810028076172e+00,4.704823177780189658e-01,0.000000000000000000e+00,1.110000000000000000e+02
1.000000000000000000e+00,1.000000000000000000e+00,1.000000000000000000e+00,6.200000000000000000e+01,2.218500000000000000e+04,3.691670894622802734e-01,1.979954957962036133e+00,6.170366549837025261e-01,0.000000000000000000e+00,1.110000000000000000e+02
0.000000000000000000e+00,1.000000000000000000e+00,0.000000000000000000e+00,6.100000000000000000e+01,2.224600000000000000e+04,2.788889408111572266e-01,1.698684930801391602e+00,4.159989858673034946e-01,0.000000000000000000e+00,1.110000000000000000e+02
0.000000000000000000e+00,1.000000000000000000e+00,0.000000000000000000e+00,5.600000000000000000e+01,2.230200000000000000e+04,5.799961090087890625e-01,2.103224039077758789e+00,5.192083294659417536e-01,0.000000000000000000e+00,1.110000000000000000e+02
1.000000000000000000e+00,1.000000000000000000e+00,1.000000000000000000e+00,5.900000000000000000e+01,2.236100000000000000e+04,3.150379657745361328e-01,1.831819057464599609e+00,5.177854533592753938e-01,0.000000000000000000e+00,1.110000000000000000e+02
0.000000000000000000e+00,1.000000000000000000e+00,0.000000000000000000e+00,6.100000000000000000e+01,2.242200000000000000e+04,3.197879791259765625e-01,1.756061077117919922e+00,4.406744018658999562e-01,0.000000000000000000e+00,1.110000000000000000e+02
0.000000000000000000e+00,1.000000000000000000e+00,0.000000000000000000e+00,6.200000000000000000e+01,2.248400000000000000e+04,3.358218669891357422e-01,1.781247854232788086e+00,4.553131643271097762e-01,0.000000000000000000e+00,1.110000000000000000e+02
