choice, accuracy, solution,  reward, cumulative_reward, rt,  total_trial_time, iti, cp_with_slow_fast, high_val_cue
0.000000000000000000e+00,1.000000000000000000e+00,0.000000000000000000e+00,0.000000000000000000e+00,0.000000000000000000e+00,1.347686052322387695e+00,2.908021926879882812e+00,5.262029215319292685e-01,-1.000000000000000000e+00,1.120000000000000000e+02
0.000000000000000000e+00,1.000000000000000000e+00,0.000000000000000000e+00,6.000000000000000000e+01,6.000000000000000000e+01,4.327039718627929688e-01,1.920956134796142578e+00,4.972811262117853848e-01,0.000000000000000000e+00,1.120000000000000000e+02
1.000000000000000000e+00,1.000000000000000000e+00,1.000000000000000000e+00,5.900000000000000000e+01,1.190000000000000000e+02,5.171768665313720703e-01,1.785331964492797852e+00,2.829226297020673853e-01,0.000000000000000000e+00,1.120000000000000000e+02
0.000000000000000000e+00,1.000000000000000000e+00,0.000000000000000000e+00,5.600000000000000000e+01,1.750000000000000000e+02,3.452620506286621094e-01,1.977003812789916992e+00,6.263410923284674636e-01,0.000000000000000000e+00,1.120000000000000000e+02
1.000000000000000000e+00,0.000000000000000000e+00,0.000000000000000000e+00,4.900000000000000000e+01,2.240000000000000000e+02,4.476349353790283203e-01,2.012890815734863281e+00,5.726599051213467906e-01,0.000000000000000000e+00,1.120000000000000000e+02
0.000000000000000000e+00,1.000000000000000000e+00,0.000000000000000000e+00,5.500000000000000000e+01,2.790000000000000000e+02,4.130110740661621094e-01,2.045264005661010742e+00,6.346025289967121008e-01,0.000000000000000000e+00,1.120000000000000000e+02
1.000000000000000000e+00,1.000000000000000000e+00,1.000000000000000000e+00,6.000000000000000000e+01,3.390000000000000000e+02,3.140850067138671875e-01,2.030678987503051758e+00,7.153127685302795857e-01,0.000000000000000000e+00,1.120000000000000000e+02
0.000000000000000000e+00,1.000000000000000000e+00,0.000000000000000000e+00,5.600000000000000000e+01,3.950000000000000000e+02,3.308451175689697266e-01,1.750792980194091797e+00,4.164818894260119420e-01,0.000000000000000000e+00,1.120000000000000000e+02
0.000000000000000000e+00,1.000000000000000000e+00,0.000000000000000000e+00,6.000000000000000000e+01,4.550000000000000000e+02,5.518848896026611328e-01,2.227827072143554688e+00,6.774681227405620065e-01,0.000000000000000000e+00,1.120000000000000000e+02
0.000000000000000000e+00,0.000000000000000000e+00,1.000000000000000000e+00,4.100000000000000000e+01,4.960000000000000000e+02,6.242651939392089844e-01,1.998100996017456055e+00,3.926023614062800204e-01,0.000000000000000000e+00,1.120000000000000000e+02
0.000000000000000000e+00,1.000000000000000000e+00,0.000000000000000000e+00,5.300000000000000000e+01,5.490000000000000000e+02,3.184218406677246094e-01,1.829579114913940430e+00,5.221308556795258848e-01,0.000000000000000000e+00,1.120000000000000000e+02
1.000000000000000000e+00,1.000000000000000000e+00,1.000000000000000000e+00,5.600000000000000000e+01,6.050000000000000000e+02,4.740660190582275391e-01,1.754153013229370117e+00,2.932633169774306325e-01,0.000000000000000000e+00,1.120000000000000000e+02
1.000000000000000000e+00,1.000000000000000000e+00,1.000000000000000000e+00,5.600000000000000000e+01,6.610000000000000000e+02,3.932349681854248047e-01,1.791207075119018555e+00,4.177536678710498386e-01,0.000000000000000000e+00,1.120000000000000000e+02
0.000000000000000000e+00,1.000000000000000000e+00,0.000000000000000000e+00,6.000000000000000000e+01,7.210000000000000000e+02,3.781599998474121094e-01,1.882442951202392578e+00,5.168484967559453525e-01,0.000000000000000000e+00,1.120000000000000000e+02
0.000000000000000000e+00,1.000000000000000000e+00,0.000000000000000000e+00,5.400000000000000000e+01,7.750000000000000000e+02,3.299160003662109375e-01,1.739531993865966797e+00,4.065466918545803110e-01,0.000000000000000000e+00,1.120000000000000000e+02
1.000000000000000000e+00,1.000000000000000000e+00,1.000000000000000000e+00,5.400000000000000000e+01,8.290000000000000000e+02,3.537130355834960938e-01,2.043051958084106445e+00,6.993536556581587682e-01,0.000000000000000000e+00,1.120000000000000000e+02
0.000000000000000000e+00,1.000000000000000000e+00,0.000000000000000000e+00,6.100000000000000000e+01,8.900000000000000000e+02,2.697191238403320312e-01,1.719793081283569336e+00,4.528162860764037290e-01,0.000000000000000000e+00,1.120000000000000000e+02
0.000000000000000000e+00,1.000000000000000000e+00,0.000000000000000000e+00,5.700000000000000000e+01,9.470000000000000000e+02,3.201758861541748047e-01,1.592156887054443359e+00,2.785770534526507136e-01,0.000000000000000000e+00,1.120000000000000000e+02
1.000000000000000000e+00,1.000000000000000000e+00,1.000000000000000000e+00,5.600000000000000000e+01,1.003000000000000000e+03,4.268300533294677734e-01,1.893923997879028320e+00,4.723442449083474215e-01,0.000000000000000000e+00,1.120000000000000000e+02
0.000000000000000000e+00,0.000000000000000000e+00,1.000000000000000000e+00,3.900000000000000000e+01,1.042000000000000000e+03,5.469498634338378906e-01,2.128690004348754883e+00,5.843457368491599135e-01,0.000000000000000000e+00,1.120000000000000000e+02
0.000000000000000000e+00,0.000000000000000000e+00,1.000000000000000000e+00,4.400000000000000000e+01,1.086000000000000000e+03,3.166568279266357422e-01,1.983536005020141602e+00,6.678767610694991141e-01,1.000000000000000000e+00,1.110000000000000000e+02
1.000000000000000000e+00,1.000000000000000000e+00,1.000000000000000000e+00,5.900000000000000000e+01,1.145000000000000000e+03,5.653719902038574219e-01,2.280802965164184570e+00,7.153995286472094595e-01,0.000000000000000000e+00,1.110000000000000000e+02
1.000000000000000000e+00,1.000000000000000000e+00,1.000000000000000000e+00,5.700000000000000000e+01,1.202000000000000000e+03,3.560719490051269531e-01,1.642859935760498047e+00,2.921003864890206470e-01,0.000000000000000000e+00,1.110000000000000000e+02
1.000000000000000000e+00,1.000000000000000000e+00,1.000000000000000000e+00,5.600000000000000000e+01,1.258000000000000000e+03,4.148061275482177734e-01,1.892346858978271484e+00,4.843384177549704406e-01,0.000000000000000000e+00,1.110000000000000000e+02
0.000000000000000000e+00,1.000000000000000000e+00,0.000000000000000000e+00,5.600000000000000000e+01,1.314000000000000000e+03,4.039509296417236328e-01,1.951976060867309570e+00,5.529615019079846538e-01,0.000000000000000000e+00,1.110000000000000000e+02
0.000000000000000000e+00,1.000000000000000000e+00,0.000000000000000000e+00,5.600000000000000000e+01,1.370000000000000000e+03,4.580028057098388672e-01,1.701164007186889648e+00,2.545296282137081700e-01,0.000000000000000000e+00,1.110000000000000000e+02
1.000000000000000000e+00,0.000000000000000000e+00,0.000000000000000000e+00,3.900000000000000000e+01,1.409000000000000000e+03,4.190039634704589844e-01,2.134618997573852539e+00,7.220366681642550466e-01,0.000000000000000000e+00,1.110000000000000000e+02
1.000000000000000000e+00,1.000000000000000000e+00,1.000000000000000000e+00,5.600000000000000000e+01,1.465000000000000000e+03,3.807630538940429688e-01,1.893001794815063477e+00,5.153833858782754795e-01,0.000000000000000000e+00,1.110000000000000000e+02
1.000000000000000000e+00,1.000000000000000000e+00,1.000000000000000000e+00,5.700000000000000000e+01,1.522000000000000000e+03,3.778119087219238281e-01,1.930182933807373047e+00,5.622367220649535646e-01,0.000000000000000000e+00,1.110000000000000000e+02
0.000000000000000000e+00,1.000000000000000000e+00,0.000000000000000000e+00,6.000000000000000000e+01,1.582000000000000000e+03,3.952531814575195312e-01,1.823225975036621094e+00,4.356926430788823357e-01,0.000000000000000000e+00,1.110000000000000000e+02
0.000000000000000000e+00,1.000000000000000000e+00,0.000000000000000000e+00,6.000000000000000000e+01,1.642000000000000000e+03,3.609330654144287109e-01,1.613771915435791016e+00,2.663690848435472658e-01,0.000000000000000000e+00,1.110000000000000000e+02
0.000000000000000000e+00,1.000000000000000000e+00,0.000000000000000000e+00,5.700000000000000000e+01,1.699000000000000000e+03,6.463549137115478516e-01,1.929059982299804688e+00,2.788017559817978497e-01,0.000000000000000000e+00,1.110000000000000000e+02
0.000000000000000000e+00,1.000000000000000000e+00,0.000000000000000000e+00,6.000000000000000000e+01,1.759000000000000000e+03,3.837201595306396484e-01,1.797664880752563477e+00,4.264109798617918279e-01,0.000000000000000000e+00,1.110000000000000000e+02
1.000000000000000000e+00,1.000000000000000000e+00,1.000000000000000000e+00,5.900000000000000000e+01,1.818000000000000000e+03,4.047958850860595703e-01,1.868199110031127930e+00,4.779522100828429432e-01,0.000000000000000000e+00,1.110000000000000000e+02
1.000000000000000000e+00,1.000000000000000000e+00,1.000000000000000000e+00,5.600000000000000000e+01,1.874000000000000000e+03,4.491930007934570312e-01,2.102827072143554688e+00,6.640290859332435014e-01,0.000000000000000000e+00,1.110000000000000000e+02
0.000000000000000000e+00,1.000000000000000000e+00,0.000000000000000000e+00,5.500000000000000000e+01,1.929000000000000000e+03,3.383078575134277344e-01,1.635241031646728516e+00,3.163675245892935139e-01,0.000000000000000000e+00,1.110000000000000000e+02
1.000000000000000000e+00,1.000000000000000000e+00,1.000000000000000000e+00,5.900000000000000000e+01,1.988000000000000000e+03,3.193559646606445312e-01,1.733788967132568359e+00,4.167776879060115514e-01,0.000000000000000000e+00,1.110000000000000000e+02
1.000000000000000000e+00,1.000000000000000000e+00,1.000000000000000000e+00,5.500000000000000000e+01,2.043000000000000000e+03,3.510468006134033203e-01,1.789611101150512695e+00,4.397699490121063648e-01,0.000000000000000000e+00,1.110000000000000000e+02
1.000000000000000000e+00,1.000000000000000000e+00,1.000000000000000000e+00,5.500000000000000000e+01,2.098000000000000000e+03,3.177328109741210938e-01,1.845054864883422852e+00,5.347984420097187108e-01,0.000000000000000000e+00,1.110000000000000000e+02
1.000000000000000000e+00,0.000000000000000000e+00,0.000000000000000000e+00,4.100000000000000000e+01,2.139000000000000000e+03,3.217949867248535156e-01,1.969514131546020508e+00,6.542748398281914568e-01,0.000000000000000000e+00,1.110000000000000000e+02
0.000000000000000000e+00,1.000000000000000000e+00,0.000000000000000000e+00,6.000000000000000000e+01,2.199000000000000000e+03,3.191778659820556641e-01,1.765508890151977539e+00,4.534100372028131987e-01,0.000000000000000000e+00,1.110000000000000000e+02
0.000000000000000000e+00,1.000000000000000000e+00,0.000000000000000000e+00,5.700000000000000000e+01,2.256000000000000000e+03,3.135838508605957031e-01,1.973126888275146484e+00,6.597534115663307164e-01,0.000000000000000000e+00,1.110000000000000000e+02
1.000000000000000000e+00,1.000000000000000000e+00,1.000000000000000000e+00,5.200000000000000000e+01,2.308000000000000000e+03,3.541851043701171875e-01,1.795202016830444336e+00,4.552391940878952048e-01,0.000000000000000000e+00,1.110000000000000000e+02
0.000000000000000000e+00,0.000000000000000000e+00,1.000000000000000000e+00,3.700000000000000000e+01,2.345000000000000000e+03,3.731520175933837891e-01,1.671693086624145508e+00,3.105083898353759864e-01,1.000000000000000000e+00,1.120000000000000000e+02
1.000000000000000000e+00,1.000000000000000000e+00,1.000000000000000000e+00,5.900000000000000000e+01,2.404000000000000000e+03,3.875010013580322266e-01,2.076982975006103516e+00,7.038273537002812663e-01,0.000000000000000000e+00,1.120000000000000000e+02
1.000000000000000000e+00,1.000000000000000000e+00,1.000000000000000000e+00,5.600000000000000000e+01,2.460000000000000000e+03,3.512818813323974609e-01,1.915412902832031250e+00,5.694618543907601360e-01,0.000000000000000000e+00,1.120000000000000000e+02
1.000000000000000000e+00,1.000000000000000000e+00,1.000000000000000000e+00,6.100000000000000000e+01,2.521000000000000000e+03,3.556969165802001953e-01,1.854542016983032227e+00,5.074581660182267973e-01,0.000000000000000000e+00,1.120000000000000000e+02
1.000000000000000000e+00,1.000000000000000000e+00,1.000000000000000000e+00,6.500000000000000000e+01,2.586000000000000000e+03,3.407969474792480469e-01,1.666100978851318359e+00,3.404755389290037293e-01,0.000000000000000000e+00,1.120000000000000000e+02
1.000000000000000000e+00,1.000000000000000000e+00,1.000000000000000000e+00,6.100000000000000000e+01,2.647000000000000000e+03,3.641259670257568359e-01,1.851535081863403320e+00,4.919129384221878065e-01,0.000000000000000000e+00,1.120000000000000000e+02
1.000000000000000000e+00,1.000000000000000000e+00,1.000000000000000000e+00,6.100000000000000000e+01,2.708000000000000000e+03,3.552119731903076172e-01,1.636102914810180664e+00,2.949650404184743224e-01,0.000000000000000000e+00,1.120000000000000000e+02
0.000000000000000000e+00,1.000000000000000000e+00,0.000000000000000000e+00,6.300000000000000000e+01,2.771000000000000000e+03,3.998489379882812500e-01,1.894891023635864258e+00,5.064053711953143688e-01,0.000000000000000000e+00,1.120000000000000000e+02
1.000000000000000000e+00,1.000000000000000000e+00,1.000000000000000000e+00,5.700000000000000000e+01,2.828000000000000000e+03,3.390550613403320312e-01,1.681572198867797852e+00,3.548754786345637569e-01,0.000000000000000000e+00,1.120000000000000000e+02
1.000000000000000000e+00,1.000000000000000000e+00,1.000000000000000000e+00,6.200000000000000000e+01,2.890000000000000000e+03,3.346450328826904297e-01,1.641809940338134766e+00,3.133882316408819757e-01,0.000000000000000000e+00,1.120000000000000000e+02
1.000000000000000000e+00,1.000000000000000000e+00,1.000000000000000000e+00,5.600000000000000000e+01,2.946000000000000000e+03,3.672719001770019531e-01,1.737227916717529297e+00,3.839650351596265998e-01,0.000000000000000000e+00,1.120000000000000000e+02
0.000000000000000000e+00,1.000000000000000000e+00,0.000000000000000000e+00,6.000000000000000000e+01,3.006000000000000000e+03,3.644208908081054688e-01,1.636875152587890625e+00,2.710135109172232548e-01,0.000000000000000000e+00,1.120000000000000000e+02
1.000000000000000000e+00,1.000000000000000000e+00,1.000000000000000000e+00,6.000000000000000000e+01,3.066000000000000000e+03,3.311190605163574219e-01,1.844956874847412109e+00,5.158098672464818124e-01,0.000000000000000000e+00,1.120000000000000000e+02
1.000000000000000000e+00,1.000000000000000000e+00,1.000000000000000000e+00,6.000000000000000000e+01,3.126000000000000000e+03,2.421638965606689453e-01,1.619050979614257812e+00,3.850348877872895592e-01,0.000000000000000000e+00,1.120000000000000000e+02
1.000000000000000000e+00,1.000000000000000000e+00,1.000000000000000000e+00,5.300000000000000000e+01,3.179000000000000000e+03,3.385350704193115234e-01,1.922103166580200195e+00,5.903831777104040501e-01,0.000000000000000000e+00,1.120000000000000000e+02
0.000000000000000000e+00,1.000000000000000000e+00,0.000000000000000000e+00,5.400000000000000000e+01,3.233000000000000000e+03,3.289601802825927734e-01,2.027958869934082031e+00,7.016084861328985012e-01,0.000000000000000000e+00,1.120000000000000000e+02
0.000000000000000000e+00,1.000000000000000000e+00,0.000000000000000000e+00,6.100000000000000000e+01,3.294000000000000000e+03,4.086661338806152344e-01,2.147216796875000000e+00,7.488510756804556134e-01,0.000000000000000000e+00,1.120000000000000000e+02
0.000000000000000000e+00,1.000000000000000000e+00,0.000000000000000000e+00,5.400000000000000000e+01,3.348000000000000000e+03,3.728489875793457031e-01,2.027351140975952148e+00,6.598439540942238057e-01,0.000000000000000000e+00,1.120000000000000000e+02
1.000000000000000000e+00,0.000000000000000000e+00,0.000000000000000000e+00,4.900000000000000000e+01,3.397000000000000000e+03,3.642749786376953125e-01,1.787039041519165039e+00,4.304538033723828150e-01,0.000000000000000000e+00,1.120000000000000000e+02
0.000000000000000000e+00,1.000000000000000000e+00,0.000000000000000000e+00,5.600000000000000000e+01,3.453000000000000000e+03,3.229489326477050781e-01,1.556644916534423828e+00,2.539710530199675298e-01,0.000000000000000000e+00,1.120000000000000000e+02
0.000000000000000000e+00,1.000000000000000000e+00,0.000000000000000000e+00,6.300000000000000000e+01,3.516000000000000000e+03,3.933589458465576172e-01,2.123530149459838867e+00,7.437563512018571243e-01,0.000000000000000000e+00,1.120000000000000000e+02
0.000000000000000000e+00,1.000000000000000000e+00,0.000000000000000000e+00,6.200000000000000000e+01,3.578000000000000000e+03,4.018349647521972656e-01,2.048065900802612305e+00,6.586593628981897153e-01,0.000000000000000000e+00,1.120000000000000000e+02
1.000000000000000000e+00,1.000000000000000000e+00,1.000000000000000000e+00,5.900000000000000000e+01,3.637000000000000000e+03,4.097681045532226562e-01,1.880316019058227539e+00,4.892307662977081750e-01,0.000000000000000000e+00,1.120000000000000000e+02
1.000000000000000000e+00,1.000000000000000000e+00,1.000000000000000000e+00,5.700000000000000000e+01,3.694000000000000000e+03,3.395469188690185547e-01,1.645882129669189453e+00,3.186863623062751727e-01,0.000000000000000000e+00,1.120000000000000000e+02
1.000000000000000000e+00,1.000000000000000000e+00,1.000000000000000000e+00,6.000000000000000000e+01,3.754000000000000000e+03,3.515629768371582031e-01,1.823897838592529297e+00,4.758072653643667937e-01,0.000000000000000000e+00,1.120000000000000000e+02
1.000000000000000000e+00,1.000000000000000000e+00,1.000000000000000000e+00,5.500000000000000000e+01,3.809000000000000000e+03,3.030130863189697266e-01,1.585537195205688477e+00,2.949512189958459762e-01,0.000000000000000000e+00,1.120000000000000000e+02
0.000000000000000000e+00,1.000000000000000000e+00,0.000000000000000000e+00,5.900000000000000000e+01,3.868000000000000000e+03,3.576920032501220703e-01,1.820652961730957031e+00,4.821648301835597672e-01,0.000000000000000000e+00,1.120000000000000000e+02
0.000000000000000000e+00,1.000000000000000000e+00,0.000000000000000000e+00,6.300000000000000000e+01,3.931000000000000000e+03,3.024559020996093750e-01,2.006241083145141602e+00,7.049282763702093835e-01,0.000000000000000000e+00,1.120000000000000000e+02
0.000000000000000000e+00,1.000000000000000000e+00,0.000000000000000000e+00,6.400000000000000000e+01,3.995000000000000000e+03,3.205888271331787109e-01,1.810612916946411133e+00,4.991442333430186062e-01,0.000000000000000000e+00,1.120000000000000000e+02
1.000000000000000000e+00,1.000000000000000000e+00,1.000000000000000000e+00,5.600000000000000000e+01,4.051000000000000000e+03,3.709449768066406250e-01,2.033883094787597656e+00,6.662577320563660699e-01,0.000000000000000000e+00,1.120000000000000000e+02
0.000000000000000000e+00,1.000000000000000000e+00,0.000000000000000000e+00,6.000000000000000000e+01,4.111000000000000000e+03,2.876451015472412109e-01,1.766093015670776367e+00,4.826371189181462018e-01,0.000000000000000000e+00,1.120000000000000000e+02
1.000000000000000000e+00,1.000000000000000000e+00,1.000000000000000000e+00,6.000000000000000000e+01,4.171000000000000000e+03,3.320498466491699219e-01,1.915058851242065430e+00,5.810095944512065902e-01,0.000000000000000000e+00,1.120000000000000000e+02
1.000000000000000000e+00,1.000000000000000000e+00,1.000000000000000000e+00,6.000000000000000000e+01,4.231000000000000000e+03,3.790800571441650391e-01,1.620224952697753906e+00,2.516338563054071886e-01,0.000000000000000000e+00,1.120000000000000000e+02
1.000000000000000000e+00,1.000000000000000000e+00,1.000000000000000000e+00,6.200000000000000000e+01,4.293000000000000000e+03,4.057729244232177734e-01,1.842933893203735352e+00,4.444371591696929524e-01,0.000000000000000000e+00,1.120000000000000000e+02
1.000000000000000000e+00,0.000000000000000000e+00,0.000000000000000000e+00,4.400000000000000000e+01,4.337000000000000000e+03,4.005410671234130859e-01,1.674749135971069336e+00,2.861047920796474520e-01,1.000000000000000000e+00,1.110000000000000000e+02
1.000000000000000000e+00,1.000000000000000000e+00,1.000000000000000000e+00,6.600000000000000000e+01,4.403000000000000000e+03,3.202481269836425781e-01,1.640535831451416016e+00,3.266568488459240527e-01,0.000000000000000000e+00,1.110000000000000000e+02
0.000000000000000000e+00,1.000000000000000000e+00,0.000000000000000000e+00,5.600000000000000000e+01,4.459000000000000000e+03,2.810020446777343750e-01,1.749722003936767578e+00,4.762839910040823077e-01,0.000000000000000000e+00,1.110000000000000000e+02
1.000000000000000000e+00,1.000000000000000000e+00,1.000000000000000000e+00,5.500000000000000000e+01,4.514000000000000000e+03,2.570438385009765625e-01,1.499243974685668945e+00,2.591631339043442006e-01,0.000000000000000000e+00,1.110000000000000000e+02
1.000000000000000000e+00,1.000000000000000000e+00,1.000000000000000000e+00,5.900000000000000000e+01,4.573000000000000000e+03,3.630919456481933594e-01,2.067225933074951172e+00,7.093078558933378908e-01,0.000000000000000000e+00,1.110000000000000000e+02
0.000000000000000000e+00,1.000000000000000000e+00,0.000000000000000000e+00,6.400000000000000000e+01,4.637000000000000000e+03,2.826449871063232422e-01,1.691892147064208984e+00,4.182633149846213261e-01,0.000000000000000000e+00,1.110000000000000000e+02
1.000000000000000000e+00,0.000000000000000000e+00,0.000000000000000000e+00,4.100000000000000000e+01,4.678000000000000000e+03,2.395560741424560547e-01,1.548667907714843750e+00,3.170962684888919414e-01,0.000000000000000000e+00,1.110000000000000000e+02
1.000000000000000000e+00,1.000000000000000000e+00,1.000000000000000000e+00,6.400000000000000000e+01,4.742000000000000000e+03,3.377058506011962891e-01,1.918107032775878906e+00,5.849733389677490569e-01,0.000000000000000000e+00,1.110000000000000000e+02
1.000000000000000000e+00,1.000000000000000000e+00,1.000000000000000000e+00,5.900000000000000000e+01,4.801000000000000000e+03,2.970931529998779297e-01,1.976972103118896484e+00,6.786304345709337493e-01,0.000000000000000000e+00,1.110000000000000000e+02
1.000000000000000000e+00,1.000000000000000000e+00,1.000000000000000000e+00,5.700000000000000000e+01,4.858000000000000000e+03,3.004879951477050781e-01,1.996896982192993164e+00,7.089062836722570538e-01,0.000000000000000000e+00,1.110000000000000000e+02
1.000000000000000000e+00,1.000000000000000000e+00,1.000000000000000000e+00,5.500000000000000000e+01,4.913000000000000000e+03,3.624999523162841797e-01,1.629826068878173828e+00,2.726379762768362247e-01,0.000000000000000000e+00,1.110000000000000000e+02
0.000000000000000000e+00,1.000000000000000000e+00,0.000000000000000000e+00,5.900000000000000000e+01,4.972000000000000000e+03,4.384098052978515625e-01,2.127558946609497070e+00,6.998357147765935649e-01,0.000000000000000000e+00,1.110000000000000000e+02
0.000000000000000000e+00,1.000000000000000000e+00,0.000000000000000000e+00,5.900000000000000000e+01,5.031000000000000000e+03,3.481090068817138672e-01,2.094542026519775391e+00,7.444109558136720040e-01,0.000000000000000000e+00,1.110000000000000000e+02
0.000000000000000000e+00,1.000000000000000000e+00,0.000000000000000000e+00,5.600000000000000000e+01,5.087000000000000000e+03,2.868020534515380859e-01,1.990665912628173828e+00,7.185010473850632629e-01,0.000000000000000000e+00,1.110000000000000000e+02
0.000000000000000000e+00,1.000000000000000000e+00,0.000000000000000000e+00,6.000000000000000000e+01,5.147000000000000000e+03,2.868731021881103516e-01,1.806710004806518555e+00,5.255223587456607781e-01,0.000000000000000000e+00,1.110000000000000000e+02
0.000000000000000000e+00,1.000000000000000000e+00,0.000000000000000000e+00,6.000000000000000000e+01,5.207000000000000000e+03,3.048529624938964844e-01,1.844995021820068359e+00,5.538525760404318099e-01,0.000000000000000000e+00,1.110000000000000000e+02
0.000000000000000000e+00,1.000000000000000000e+00,0.000000000000000000e+00,6.000000000000000000e+01,5.267000000000000000e+03,2.739918231964111328e-01,1.569744110107421875e+00,3.072808792467457417e-01,0.000000000000000000e+00,1.110000000000000000e+02
1.000000000000000000e+00,1.000000000000000000e+00,1.000000000000000000e+00,5.600000000000000000e+01,5.323000000000000000e+03,3.573560714721679688e-01,1.876021862030029297e+00,5.331170196434422692e-01,0.000000000000000000e+00,1.110000000000000000e+02
0.000000000000000000e+00,0.000000000000000000e+00,1.000000000000000000e+00,4.100000000000000000e+01,5.364000000000000000e+03,4.640541076660156250e-01,1.913755178451538086e+00,4.470585432646838608e-01,0.000000000000000000e+00,1.110000000000000000e+02
0.000000000000000000e+00,1.000000000000000000e+00,0.000000000000000000e+00,6.300000000000000000e+01,5.427000000000000000e+03,4.831709861755371094e-01,2.191278934478759766e+00,7.214564485642523950e-01,0.000000000000000000e+00,1.110000000000000000e+02
1.000000000000000000e+00,1.000000000000000000e+00,1.000000000000000000e+00,5.700000000000000000e+01,5.484000000000000000e+03,2.542219161987304688e-01,1.578767061233520508e+00,3.340351427407769469e-01,0.000000000000000000e+00,1.110000000000000000e+02
1.000000000000000000e+00,1.000000000000000000e+00,1.000000000000000000e+00,5.600000000000000000e+01,5.540000000000000000e+03,3.399219512939453125e-01,1.847321033477783203e+00,5.145404880860595664e-01,0.000000000000000000e+00,1.110000000000000000e+02
1.000000000000000000e+00,1.000000000000000000e+00,1.000000000000000000e+00,5.400000000000000000e+01,5.594000000000000000e+03,3.626060485839843750e-01,1.853922128677368164e+00,5.019130341101587511e-01,0.000000000000000000e+00,1.110000000000000000e+02
1.000000000000000000e+00,1.000000000000000000e+00,1.000000000000000000e+00,6.400000000000000000e+01,5.658000000000000000e+03,2.790188789367675781e-01,1.532594919204711914e+00,2.515130607722661504e-01,0.000000000000000000e+00,1.110000000000000000e+02
0.000000000000000000e+00,1.000000000000000000e+00,0.000000000000000000e+00,5.700000000000000000e+01,5.715000000000000000e+03,3.647429943084716797e-01,1.947720050811767578e+00,5.822945842678882711e-01,0.000000000000000000e+00,1.110000000000000000e+02
0.000000000000000000e+00,1.000000000000000000e+00,0.000000000000000000e+00,5.700000000000000000e+01,5.772000000000000000e+03,3.008828163146972656e-01,1.633163928985595703e+00,3.324735181767140002e-01,0.000000000000000000e+00,1.110000000000000000e+02
1.000000000000000000e+00,1.000000000000000000e+00,1.000000000000000000e+00,5.600000000000000000e+01,5.828000000000000000e+03,3.175668716430664062e-01,2.044368982315063477e+00,7.264658399432253333e-01,0.000000000000000000e+00,1.110000000000000000e+02
0.000000000000000000e+00,1.000000000000000000e+00,0.000000000000000000e+00,6.000000000000000000e+01,5.888000000000000000e+03,3.362238407135009766e-01,1.943839073181152344e+00,6.205180242201318030e-01,0.000000000000000000e+00,1.110000000000000000e+02
1.000000000000000000e+00,1.000000000000000000e+00,1.000000000000000000e+00,5.700000000000000000e+01,5.945000000000000000e+03,2.993481159210205078e-01,1.816973924636840820e+00,5.210107180599741206e-01,0.000000000000000000e+00,1.110000000000000000e+02
1.000000000000000000e+00,1.000000000000000000e+00,1.000000000000000000e+00,5.900000000000000000e+01,6.004000000000000000e+03,4.017479419708251953e-01,1.685927867889404297e+00,2.905758232788593909e-01,0.000000000000000000e+00,1.110000000000000000e+02
1.000000000000000000e+00,1.000000000000000000e+00,1.000000000000000000e+00,5.200000000000000000e+01,6.056000000000000000e+03,5.955040454864501953e-01,2.195835113525390625e+00,6.028741324734023799e-01,0.000000000000000000e+00,1.110000000000000000e+02
0.000000000000000000e+00,0.000000000000000000e+00,1.000000000000000000e+00,4.100000000000000000e+01,6.097000000000000000e+03,5.816800594329833984e-01,2.233059883117675781e+00,6.526441448038140525e-01,0.000000000000000000e+00,1.110000000000000000e+02
0.000000000000000000e+00,0.000000000000000000e+00,1.000000000000000000e+00,5.000000000000000000e+01,6.147000000000000000e+03,2.873568534851074219e-01,1.943216085433959961e+00,6.626014105066375670e-01,1.000000000000000000e+00,1.120000000000000000e+02
0.000000000000000000e+00,0.000000000000000000e+00,1.000000000000000000e+00,4.800000000000000000e+01,6.195000000000000000e+03,3.121261596679687500e-01,1.634115934371948242e+00,3.304736172723656273e-01,0.000000000000000000e+00,1.120000000000000000e+02
0.000000000000000000e+00,1.000000000000000000e+00,0.000000000000000000e+00,5.500000000000000000e+01,6.250000000000000000e+03,2.847449779510498047e-01,1.919245004653930664e+00,6.494592262872476152e-01,0.000000000000000000e+00,1.120000000000000000e+02
1.000000000000000000e+00,1.000000000000000000e+00,1.000000000000000000e+00,5.100000000000000000e+01,6.301000000000000000e+03,2.794520854949951172e-01,1.825953960418701172e+00,5.422498394289818613e-01,0.000000000000000000e+00,1.120000000000000000e+02
1.000000000000000000e+00,1.000000000000000000e+00,1.000000000000000000e+00,5.600000000000000000e+01,6.357000000000000000e+03,3.349421024322509766e-01,1.949532985687255859e+00,6.250922959181586247e-01,0.000000000000000000e+00,1.120000000000000000e+02
1.000000000000000000e+00,1.000000000000000000e+00,1.000000000000000000e+00,5.300000000000000000e+01,6.410000000000000000e+03,3.259179592132568359e-01,1.650645017623901367e+00,3.427766559646583944e-01,0.000000000000000000e+00,1.120000000000000000e+02
0.000000000000000000e+00,1.000000000000000000e+00,0.000000000000000000e+00,5.300000000000000000e+01,6.463000000000000000e+03,4.710290431976318359e-01,1.929352998733520508e+00,4.720685645455119928e-01,0.000000000000000000e+00,1.120000000000000000e+02
0.000000000000000000e+00,1.000000000000000000e+00,0.000000000000000000e+00,5.500000000000000000e+01,6.518000000000000000e+03,4.337229728698730469e-01,1.802380800247192383e+00,3.746669233115600961e-01,0.000000000000000000e+00,1.120000000000000000e+02
0.000000000000000000e+00,1.000000000000000000e+00,0.000000000000000000e+00,5.200000000000000000e+01,6.570000000000000000e+03,2.788648605346679688e-01,1.968422889709472656e+00,6.928365135641645356e-01,0.000000000000000000e+00,1.120000000000000000e+02
0.000000000000000000e+00,1.000000000000000000e+00,0.000000000000000000e+00,5.200000000000000000e+01,6.622000000000000000e+03,3.042709827423095703e-01,1.691686153411865234e+00,4.015598205467228454e-01,0.000000000000000000e+00,1.120000000000000000e+02
1.000000000000000000e+00,1.000000000000000000e+00,1.000000000000000000e+00,5.300000000000000000e+01,6.675000000000000000e+03,4.523851871490478516e-01,1.936447858810424805e+00,4.879520675848040834e-01,0.000000000000000000e+00,1.120000000000000000e+02
1.000000000000000000e+00,0.000000000000000000e+00,0.000000000000000000e+00,4.600000000000000000e+01,6.721000000000000000e+03,3.279938697814941406e-01,1.853659152984619141e+00,5.250560446580827545e-01,0.000000000000000000e+00,1.120000000000000000e+02
0.000000000000000000e+00,1.000000000000000000e+00,0.000000000000000000e+00,5.100000000000000000e+01,6.772000000000000000e+03,2.932958602905273438e-01,1.742364883422851562e+00,4.675239415068417892e-01,0.000000000000000000e+00,1.120000000000000000e+02
0.000000000000000000e+00,1.000000000000000000e+00,0.000000000000000000e+00,5.200000000000000000e+01,6.824000000000000000e+03,2.580668926239013672e-01,1.526408195495605469e+00,2.775224707093289500e-01,0.000000000000000000e+00,1.120000000000000000e+02
1.000000000000000000e+00,1.000000000000000000e+00,1.000000000000000000e+00,5.300000000000000000e+01,6.877000000000000000e+03,3.374791145324707031e-01,1.640375852584838867e+00,3.179304242960368510e-01,0.000000000000000000e+00,1.120000000000000000e+02
1.000000000000000000e+00,1.000000000000000000e+00,1.000000000000000000e+00,5.700000000000000000e+01,6.934000000000000000e+03,3.835971355438232422e-01,1.712865114212036133e+00,3.308669025444609946e-01,0.000000000000000000e+00,1.120000000000000000e+02
0.000000000000000000e+00,1.000000000000000000e+00,0.000000000000000000e+00,5.100000000000000000e+01,6.985000000000000000e+03,2.856030464172363281e-01,1.732864141464233398e+00,4.636519153840151231e-01,0.000000000000000000e+00,1.120000000000000000e+02
1.000000000000000000e+00,1.000000000000000000e+00,1.000000000000000000e+00,5.300000000000000000e+01,7.038000000000000000e+03,2.863790988922119141e-01,1.789983987808227539e+00,5.204482959970950784e-01,0.000000000000000000e+00,1.120000000000000000e+02
0.000000000000000000e+00,1.000000000000000000e+00,0.000000000000000000e+00,5.600000000000000000e+01,7.094000000000000000e+03,2.944638729095458984e-01,1.681262016296386719e+00,4.017237555265405491e-01,0.000000000000000000e+00,1.120000000000000000e+02
1.000000000000000000e+00,1.000000000000000000e+00,1.000000000000000000e+00,6.000000000000000000e+01,7.154000000000000000e+03,2.481029033660888672e-01,1.898886919021606445e+00,6.504425501709942825e-01,0.000000000000000000e+00,1.120000000000000000e+02
0.000000000000000000e+00,1.000000000000000000e+00,0.000000000000000000e+00,5.300000000000000000e+01,7.207000000000000000e+03,2.912569046020507812e-01,1.797533035278320312e+00,5.148396777846532268e-01,0.000000000000000000e+00,1.120000000000000000e+02
1.000000000000000000e+00,1.000000000000000000e+00,1.000000000000000000e+00,5.000000000000000000e+01,7.257000000000000000e+03,2.838981151580810547e-01,1.601353168487548828e+00,3.331380934900357582e-01,0.000000000000000000e+00,1.120000000000000000e+02
1.000000000000000000e+00,1.000000000000000000e+00,1.000000000000000000e+00,6.000000000000000000e+01,7.317000000000000000e+03,3.112668991088867188e-01,1.805773019790649414e+00,5.054633030705857344e-01,0.000000000000000000e+00,1.120000000000000000e+02
1.000000000000000000e+00,1.000000000000000000e+00,1.000000000000000000e+00,5.900000000000000000e+01,7.376000000000000000e+03,3.093628883361816406e-01,2.023706912994384766e+00,7.290125150688004929e-01,0.000000000000000000e+00,1.120000000000000000e+02
1.000000000000000000e+00,1.000000000000000000e+00,1.000000000000000000e+00,5.200000000000000000e+01,7.428000000000000000e+03,3.117239475250244141e-01,1.914912939071655273e+00,6.107787131930286773e-01,0.000000000000000000e+00,1.120000000000000000e+02
1.000000000000000000e+00,0.000000000000000000e+00,0.000000000000000000e+00,4.600000000000000000e+01,7.474000000000000000e+03,4.142191410064697266e-01,1.888073921203613281e+00,4.823938435371134537e-01,1.000000000000000000e+00,1.110000000000000000e+02
0.000000000000000000e+00,1.000000000000000000e+00,0.000000000000000000e+00,5.600000000000000000e+01,7.530000000000000000e+03,2.802360057830810547e-01,1.905506134033203125e+00,6.211812486566754554e-01,0.000000000000000000e+00,1.110000000000000000e+02
1.000000000000000000e+00,1.000000000000000000e+00,1.000000000000000000e+00,6.200000000000000000e+01,7.592000000000000000e+03,3.212900161743164062e-01,2.032950878143310547e+00,7.207874403031605537e-01,0.000000000000000000e+00,1.110000000000000000e+02
1.000000000000000000e+00,1.000000000000000000e+00,1.000000000000000000e+00,5.200000000000000000e+01,7.644000000000000000e+03,3.670201301574707031e-01,1.991667985916137695e+00,6.292691061471837877e-01,0.000000000000000000e+00,1.110000000000000000e+02
1.000000000000000000e+00,0.000000000000000000e+00,0.000000000000000000e+00,5.000000000000000000e+01,7.694000000000000000e+03,3.927879333496093750e-01,1.746992826461791992e+00,3.766204224133581357e-01,0.000000000000000000e+00,1.110000000000000000e+02
1.000000000000000000e+00,0.000000000000000000e+00,0.000000000000000000e+00,5.000000000000000000e+01,7.744000000000000000e+03,4.098219871520996094e-01,2.024917840957641602e+00,6.346773019641606117e-01,0.000000000000000000e+00,1.110000000000000000e+02
1.000000000000000000e+00,0.000000000000000000e+00,0.000000000000000000e+00,4.300000000000000000e+01,7.787000000000000000e+03,3.195929527282714844e-01,2.044898986816406250e+00,7.295707191799163382e-01,0.000000000000000000e+00,1.110000000000000000e+02
1.000000000000000000e+00,1.000000000000000000e+00,1.000000000000000000e+00,5.700000000000000000e+01,7.844000000000000000e+03,3.303041458129882812e-01,1.750831127166748047e+00,4.308091044775892442e-01,0.000000000000000000e+00,1.110000000000000000e+02
1.000000000000000000e+00,1.000000000000000000e+00,1.000000000000000000e+00,5.400000000000000000e+01,7.898000000000000000e+03,3.474400043487548828e-01,1.650006055831909180e+00,3.143220165916463804e-01,0.000000000000000000e+00,1.110000000000000000e+02
0.000000000000000000e+00,0.000000000000000000e+00,1.000000000000000000e+00,4.800000000000000000e+01,7.946000000000000000e+03,3.363890647888183594e-01,1.828422069549560547e+00,5.092768389798609796e-01,0.000000000000000000e+00,1.110000000000000000e+02
1.000000000000000000e+00,1.000000000000000000e+00,1.000000000000000000e+00,5.500000000000000000e+01,8.001000000000000000e+03,3.421449661254882812e-01,1.735481023788452148e+00,4.116000927790892105e-01,0.000000000000000000e+00,1.110000000000000000e+02
1.000000000000000000e+00,1.000000000000000000e+00,1.000000000000000000e+00,5.600000000000000000e+01,8.057000000000000000e+03,3.058390617370605469e-01,1.997443914413452148e+00,7.088155701404461606e-01,0.000000000000000000e+00,1.110000000000000000e+02
0.000000000000000000e+00,1.000000000000000000e+00,0.000000000000000000e+00,5.200000000000000000e+01,8.109000000000000000e+03,3.569321632385253906e-01,1.635478019714355469e+00,2.947942465732315553e-01,0.000000000000000000e+00,1.110000000000000000e+02
1.000000000000000000e+00,1.000000000000000000e+00,1.000000000000000000e+00,5.400000000000000000e+01,8.163000000000000000e+03,3.266849517822265625e-01,1.722198963165283203e+00,4.002873522292854647e-01,0.000000000000000000e+00,1.110000000000000000e+02
0.000000000000000000e+00,1.000000000000000000e+00,0.000000000000000000e+00,5.200000000000000000e+01,8.215000000000000000e+03,3.204360008239746094e-01,1.796213150024414062e+00,4.798327487140567338e-01,0.000000000000000000e+00,1.110000000000000000e+02
1.000000000000000000e+00,1.000000000000000000e+00,1.000000000000000000e+00,5.600000000000000000e+01,8.271000000000000000e+03,2.901730537414550781e-01,1.996423959732055664e+00,7.260508764012438832e-01,0.000000000000000000e+00,1.110000000000000000e+02
0.000000000000000000e+00,1.000000000000000000e+00,0.000000000000000000e+00,5.900000000000000000e+01,8.330000000000000000e+03,2.542128562927246094e-01,1.517640113830566406e+00,2.776247153801634782e-01,0.000000000000000000e+00,1.110000000000000000e+02
0.000000000000000000e+00,1.000000000000000000e+00,0.000000000000000000e+00,5.500000000000000000e+01,8.385000000000000000e+03,3.316118717193603516e-01,1.890380859375000000e+00,5.677461931142318008e-01,0.000000000000000000e+00,1.110000000000000000e+02
0.000000000000000000e+00,1.000000000000000000e+00,0.000000000000000000e+00,5.400000000000000000e+01,8.439000000000000000e+03,2.776460647583007812e-01,1.663341999053955078e+00,3.980025567964178279e-01,0.000000000000000000e+00,1.110000000000000000e+02
0.000000000000000000e+00,1.000000000000000000e+00,0.000000000000000000e+00,5.600000000000000000e+01,8.495000000000000000e+03,2.676949501037597656e-01,1.738640785217285156e+00,4.866159032660470896e-01,0.000000000000000000e+00,1.110000000000000000e+02
1.000000000000000000e+00,1.000000000000000000e+00,1.000000000000000000e+00,6.000000000000000000e+01,8.555000000000000000e+03,3.718349933624267578e-01,2.055693149566650391e+00,6.921706650917440751e-01,0.000000000000000000e+00,1.110000000000000000e+02
0.000000000000000000e+00,1.000000000000000000e+00,0.000000000000000000e+00,5.500000000000000000e+01,8.610000000000000000e+03,2.808420658111572266e-01,1.626268863677978516e+00,3.521970711233473605e-01,0.000000000000000000e+00,1.110000000000000000e+02
0.000000000000000000e+00,1.000000000000000000e+00,0.000000000000000000e+00,5.900000000000000000e+01,8.669000000000000000e+03,3.975348472595214844e-01,1.930734872817993164e+00,5.328355850264134830e-01,0.000000000000000000e+00,1.110000000000000000e+02
1.000000000000000000e+00,1.000000000000000000e+00,1.000000000000000000e+00,6.200000000000000000e+01,8.731000000000000000e+03,3.183369636535644531e-01,1.995407104492187500e+00,6.781668930426680841e-01,0.000000000000000000e+00,1.110000000000000000e+02
0.000000000000000000e+00,1.000000000000000000e+00,0.000000000000000000e+00,6.300000000000000000e+01,8.794000000000000000e+03,2.980229854583740234e-01,1.687093019485473633e+00,3.989636304391573352e-01,0.000000000000000000e+00,1.110000000000000000e+02
1.000000000000000000e+00,1.000000000000000000e+00,1.000000000000000000e+00,5.700000000000000000e+01,8.851000000000000000e+03,2.761640548706054688e-01,1.714942932128906250e+00,4.472437413374512616e-01,0.000000000000000000e+00,1.110000000000000000e+02
1.000000000000000000e+00,1.000000000000000000e+00,1.000000000000000000e+00,5.400000000000000000e+01,8.905000000000000000e+03,3.521878719329833984e-01,1.674744129180908203e+00,3.388480331856798533e-01,0.000000000000000000e+00,1.110000000000000000e+02
0.000000000000000000e+00,1.000000000000000000e+00,0.000000000000000000e+00,5.400000000000000000e+01,8.959000000000000000e+03,2.828788757324218750e-01,1.867661952972412109e+00,5.896583512618471801e-01,0.000000000000000000e+00,1.110000000000000000e+02
0.000000000000000000e+00,1.000000000000000000e+00,0.000000000000000000e+00,5.000000000000000000e+01,9.009000000000000000e+03,3.193259239196777344e-01,1.685533046722412109e+00,3.754810353939646017e-01,0.000000000000000000e+00,1.110000000000000000e+02
1.000000000000000000e+00,1.000000000000000000e+00,1.000000000000000000e+00,5.600000000000000000e+01,9.065000000000000000e+03,3.090410232543945312e-01,2.011850118637084961e+00,7.036695882133303659e-01,0.000000000000000000e+00,1.110000000000000000e+02
1.000000000000000000e+00,0.000000000000000000e+00,0.000000000000000000e+00,4.000000000000000000e+01,9.105000000000000000e+03,8.464319705963134766e-01,2.582311868667602539e+00,7.361265491741422196e-01,1.000000000000000000e+00,1.120000000000000000e+02
0.000000000000000000e+00,1.000000000000000000e+00,0.000000000000000000e+00,5.900000000000000000e+01,9.164000000000000000e+03,2.872340679168701172e-01,1.871159076690673828e+00,5.908338150764647079e-01,0.000000000000000000e+00,1.120000000000000000e+02
0.000000000000000000e+00,1.000000000000000000e+00,0.000000000000000000e+00,6.000000000000000000e+01,9.224000000000000000e+03,2.767431735992431641e-01,1.852155923843383789e+00,5.764506326784109014e-01,0.000000000000000000e+00,1.120000000000000000e+02
0.000000000000000000e+00,1.000000000000000000e+00,0.000000000000000000e+00,5.900000000000000000e+01,9.283000000000000000e+03,2.687129974365234375e-01,1.623223781585693359e+00,3.666036969278564928e-01,0.000000000000000000e+00,1.120000000000000000e+02
0.000000000000000000e+00,1.000000000000000000e+00,0.000000000000000000e+00,6.100000000000000000e+01,9.344000000000000000e+03,7.433600425720214844e-01,2.160588026046752930e+00,4.272452095797050764e-01,0.000000000000000000e+00,1.120000000000000000e+02
0.000000000000000000e+00,1.000000000000000000e+00,0.000000000000000000e+00,5.500000000000000000e+01,9.399000000000000000e+03,2.995200157165527344e-01,1.642109870910644531e+00,3.528139793798515944e-01,0.000000000000000000e+00,1.120000000000000000e+02
0.000000000000000000e+00,1.000000000000000000e+00,0.000000000000000000e+00,5.600000000000000000e+01,9.455000000000000000e+03,3.115551471710205078e-01,1.853234052658081055e+00,5.392751618284821191e-01,0.000000000000000000e+00,1.120000000000000000e+02
1.000000000000000000e+00,1.000000000000000000e+00,1.000000000000000000e+00,5.900000000000000000e+01,9.514000000000000000e+03,3.515710830688476562e-01,1.920305013656616211e+00,5.762927115640519293e-01,0.000000000000000000e+00,1.120000000000000000e+02
0.000000000000000000e+00,1.000000000000000000e+00,0.000000000000000000e+00,6.000000000000000000e+01,9.574000000000000000e+03,2.419049739837646484e-01,1.761533975601196289e+00,5.379366617252698823e-01,0.000000000000000000e+00,1.120000000000000000e+02
1.000000000000000000e+00,1.000000000000000000e+00,1.000000000000000000e+00,6.200000000000000000e+01,9.636000000000000000e+03,2.623689174652099609e-01,1.928019046783447266e+00,6.659272594484864083e-01,0.000000000000000000e+00,1.120000000000000000e+02
1.000000000000000000e+00,1.000000000000000000e+00,1.000000000000000000e+00,6.300000000000000000e+01,9.699000000000000000e+03,3.100450038909912109e-01,1.807628154754638672e+00,5.070899264864523470e-01,0.000000000000000000e+00,1.120000000000000000e+02
1.000000000000000000e+00,1.000000000000000000e+00,1.000000000000000000e+00,6.400000000000000000e+01,9.763000000000000000e+03,2.900989055633544922e-01,1.819495916366577148e+00,5.432999809253928891e-01,0.000000000000000000e+00,1.120000000000000000e+02
0.000000000000000000e+00,1.000000000000000000e+00,0.000000000000000000e+00,5.600000000000000000e+01,9.819000000000000000e+03,2.735872268676757812e-01,1.686108112335205078e+00,4.295829059665488003e-01,0.000000000000000000e+00,1.120000000000000000e+02
0.000000000000000000e+00,1.000000000000000000e+00,0.000000000000000000e+00,6.200000000000000000e+01,9.881000000000000000e+03,2.692499160766601562e-01,1.933583974838256836e+00,6.796182223010340806e-01,0.000000000000000000e+00,1.120000000000000000e+02
0.000000000000000000e+00,1.000000000000000000e+00,0.000000000000000000e+00,5.500000000000000000e+01,9.936000000000000000e+03,2.250308990478515625e-01,1.556945085525512695e+00,3.537095893873954400e-01,0.000000000000000000e+00,1.120000000000000000e+02
1.000000000000000000e+00,1.000000000000000000e+00,1.000000000000000000e+00,5.900000000000000000e+01,9.995000000000000000e+03,2.942829132080078125e-01,1.869391918182373047e+00,5.895335099889223995e-01,0.000000000000000000e+00,1.120000000000000000e+02
1.000000000000000000e+00,1.000000000000000000e+00,1.000000000000000000e+00,5.700000000000000000e+01,1.005200000000000000e+04,2.637197971343994141e-01,1.998766899108886719e+00,7.382378409665699692e-01,0.000000000000000000e+00,1.120000000000000000e+02
1.000000000000000000e+00,1.000000000000000000e+00,1.000000000000000000e+00,5.700000000000000000e+01,1.010900000000000000e+04,3.428490161895751953e-01,1.711964130401611328e+00,3.840243182813209977e-01,0.000000000000000000e+00,1.120000000000000000e+02
0.000000000000000000e+00,1.000000000000000000e+00,0.000000000000000000e+00,6.200000000000000000e+01,1.017100000000000000e+04,4.082908630371093750e-01,1.785760879516601562e+00,3.864914422086104251e-01,0.000000000000000000e+00,1.120000000000000000e+02
0.000000000000000000e+00,1.000000000000000000e+00,0.000000000000000000e+00,6.100000000000000000e+01,1.023200000000000000e+04,3.949220180511474609e-01,1.753594875335693359e+00,3.568628630725940720e-01,0.000000000000000000e+00,1.120000000000000000e+02
0.000000000000000000e+00,1.000000000000000000e+00,0.000000000000000000e+00,6.100000000000000000e+01,1.029300000000000000e+04,3.260939121246337891e-01,1.688978910446166992e+00,3.792100164755147218e-01,0.000000000000000000e+00,1.120000000000000000e+02
0.000000000000000000e+00,1.000000000000000000e+00,0.000000000000000000e+00,6.000000000000000000e+01,1.035300000000000000e+04,2.567300796508789062e-01,1.812230825424194336e+00,5.746542052334836503e-01,0.000000000000000000e+00,1.120000000000000000e+02
0.000000000000000000e+00,1.000000000000000000e+00,0.000000000000000000e+00,6.100000000000000000e+01,1.041400000000000000e+04,2.451481819152832031e-01,1.864871025085449219e+00,6.229029464201470967e-01,0.000000000000000000e+00,1.120000000000000000e+02
0.000000000000000000e+00,1.000000000000000000e+00,0.000000000000000000e+00,6.100000000000000000e+01,1.047500000000000000e+04,2.625629901885986328e-01,1.561910152435302734e+00,3.018514677197381979e-01,0.000000000000000000e+00,1.120000000000000000e+02
1.000000000000000000e+00,1.000000000000000000e+00,1.000000000000000000e+00,5.700000000000000000e+01,1.053200000000000000e+04,3.959200382232666016e-01,1.900176048278808594e+00,5.019351804090534941e-01,0.000000000000000000e+00,1.120000000000000000e+02
0.000000000000000000e+00,1.000000000000000000e+00,0.000000000000000000e+00,6.000000000000000000e+01,1.059200000000000000e+04,3.510839939117431641e-01,1.968189001083374023e+00,6.200629950929662515e-01,0.000000000000000000e+00,1.120000000000000000e+02
0.000000000000000000e+00,1.000000000000000000e+00,0.000000000000000000e+00,0.000000000000000000e+00,1.059200000000000000e+04,1.272316932678222656e+00,2.787364006042480469e+00,4.910162075893124700e-01,-1.000000000000000000e+00,1.120000000000000000e+02
0.000000000000000000e+00,1.000000000000000000e+00,0.000000000000000000e+00,6.200000000000000000e+01,1.065400000000000000e+04,4.590799808502197266e-01,2.013621091842651367e+00,5.713069367671882448e-01,0.000000000000000000e+00,1.120000000000000000e+02
0.000000000000000000e+00,1.000000000000000000e+00,0.000000000000000000e+00,5.600000000000000000e+01,1.071000000000000000e+04,3.274888992309570312e-01,1.871309041976928711e+00,5.593695312664002106e-01,0.000000000000000000e+00,1.120000000000000000e+02
1.000000000000000000e+00,1.000000000000000000e+00,1.000000000000000000e+00,5.700000000000000000e+01,1.076700000000000000e+04,3.389830589294433594e-01,1.805012941360473633e+00,4.812043165193362615e-01,0.000000000000000000e+00,1.120000000000000000e+02
0.000000000000000000e+00,1.000000000000000000e+00,0.000000000000000000e+00,5.400000000000000000e+01,1.082100000000000000e+04,2.850990295410156250e-01,1.726752996444702148e+00,4.580664175996787546e-01,0.000000000000000000e+00,1.120000000000000000e+02
1.000000000000000000e+00,1.000000000000000000e+00,1.000000000000000000e+00,6.100000000000000000e+01,1.088200000000000000e+04,3.107459545135498047e-01,1.993731021881103516e+00,7.016290879025418592e-01,0.000000000000000000e+00,1.120000000000000000e+02
0.000000000000000000e+00,1.000000000000000000e+00,0.000000000000000000e+00,6.000000000000000000e+01,1.094200000000000000e+04,2.538268566131591797e-01,1.625656843185424805e+00,3.776802909637911321e-01,0.000000000000000000e+00,1.120000000000000000e+02
0.000000000000000000e+00,0.000000000000000000e+00,1.000000000000000000e+00,4.100000000000000000e+01,1.098300000000000000e+04,3.132138252258300781e-01,1.711730003356933594e+00,4.061259558476306153e-01,1.000000000000000000e+00,1.110000000000000000e+02
1.000000000000000000e+00,1.000000000000000000e+00,1.000000000000000000e+00,6.200000000000000000e+01,1.104500000000000000e+04,3.006069660186767578e-01,1.548901796340942383e+00,2.552183859066729510e-01,0.000000000000000000e+00,1.110000000000000000e+02
1.000000000000000000e+00,1.000000000000000000e+00,1.000000000000000000e+00,6.300000000000000000e+01,1.110800000000000000e+04,3.757078647613525391e-01,1.950299024581909180e+00,5.885750476312441304e-01,0.000000000000000000e+00,1.110000000000000000e+02
0.000000000000000000e+00,1.000000000000000000e+00,0.000000000000000000e+00,6.000000000000000000e+01,1.116800000000000000e+04,2.876861095428466797e-01,1.977391004562377930e+00,6.992753952137402695e-01,0.000000000000000000e+00,1.110000000000000000e+02
1.000000000000000000e+00,1.000000000000000000e+00,1.000000000000000000e+00,5.600000000000000000e+01,1.122400000000000000e+04,2.523829936981201172e-01,1.983242034912109375e+00,7.325599811520069338e-01,0.000000000000000000e+00,1.110000000000000000e+02
0.000000000000000000e+00,1.000000000000000000e+00,0.000000000000000000e+00,6.200000000000000000e+01,1.128600000000000000e+04,4.472031593322753906e-01,1.912108898162841797e+00,4.617275725806854192e-01,0.000000000000000000e+00,1.110000000000000000e+02
1.000000000000000000e+00,1.000000000000000000e+00,1.000000000000000000e+00,6.200000000000000000e+01,1.134800000000000000e+04,2.582981586456298828e-01,1.491280078887939453e+00,2.532788838313384527e-01,0.000000000000000000e+00,1.110000000000000000e+02
1.000000000000000000e+00,1.000000000000000000e+00,1.000000000000000000e+00,5.700000000000000000e+01,1.140500000000000000e+04,4.253458976745605469e-01,1.981472969055175781e+00,5.678402257650111418e-01,0.000000000000000000e+00,1.110000000000000000e+02
0.000000000000000000e+00,1.000000000000000000e+00,0.000000000000000000e+00,5.500000000000000000e+01,1.146000000000000000e+04,2.650880813598632812e-01,1.887420177459716797e+00,6.219322239521263285e-01,0.000000000000000000e+00,1.110000000000000000e+02
0.000000000000000000e+00,1.000000000000000000e+00,0.000000000000000000e+00,6.000000000000000000e+01,1.152000000000000000e+04,2.998600006103515625e-01,1.612264871597290039e+00,3.179341076040296254e-01,0.000000000000000000e+00,1.110000000000000000e+02
1.000000000000000000e+00,1.000000000000000000e+00,1.000000000000000000e+00,5.400000000000000000e+01,1.157400000000000000e+04,3.572340011596679688e-01,1.800307989120483398e+00,4.515258798621135661e-01,0.000000000000000000e+00,1.110000000000000000e+02
0.000000000000000000e+00,0.000000000000000000e+00,1.000000000000000000e+00,4.300000000000000000e+01,1.161700000000000000e+04,3.552880287170410156e-01,1.606446027755737305e+00,2.582552603107663991e-01,0.000000000000000000e+00,1.110000000000000000e+02
0.000000000000000000e+00,1.000000000000000000e+00,0.000000000000000000e+00,6.100000000000000000e+01,1.167800000000000000e+04,3.572950363159179688e-01,1.824012994766235352e+00,4.820491425748937298e-01,0.000000000000000000e+00,1.110000000000000000e+02
0.000000000000000000e+00,1.000000000000000000e+00,0.000000000000000000e+00,6.000000000000000000e+01,1.173800000000000000e+04,3.490500450134277344e-01,1.629868984222412109e+00,2.788619637422858344e-01,0.000000000000000000e+00,1.110000000000000000e+02
1.000000000000000000e+00,1.000000000000000000e+00,1.000000000000000000e+00,6.000000000000000000e+01,1.179800000000000000e+04,3.614470958709716797e-01,2.020039081573486328e+00,6.819299829202948304e-01,0.000000000000000000e+00,1.110000000000000000e+02
1.000000000000000000e+00,1.000000000000000000e+00,1.000000000000000000e+00,6.000000000000000000e+01,1.185800000000000000e+04,3.200950622558593750e-01,1.823950052261352539e+00,5.061142979859298840e-01,0.000000000000000000e+00,1.110000000000000000e+02
1.000000000000000000e+00,1.000000000000000000e+00,1.000000000000000000e+00,5.600000000000000000e+01,1.191400000000000000e+04,2.564818859100341797e-01,1.511682033538818359e+00,2.681275805867140982e-01,0.000000000000000000e+00,1.110000000000000000e+02
0.000000000000000000e+00,1.000000000000000000e+00,0.000000000000000000e+00,6.400000000000000000e+01,1.197800000000000000e+04,3.289558887481689453e-01,1.632514953613281250e+00,3.006702249081467104e-01,0.000000000000000000e+00,1.110000000000000000e+02
1.000000000000000000e+00,1.000000000000000000e+00,1.000000000000000000e+00,5.600000000000000000e+01,1.203400000000000000e+04,2.577300071716308594e-01,1.527346849441528320e+00,2.781067507868357214e-01,0.000000000000000000e+00,1.110000000000000000e+02
1.000000000000000000e+00,1.000000000000000000e+00,1.000000000000000000e+00,5.600000000000000000e+01,1.209000000000000000e+04,3.879959583282470703e-01,1.656962156295776367e+00,2.851327826212629035e-01,0.000000000000000000e+00,1.110000000000000000e+02
0.000000000000000000e+00,0.000000000000000000e+00,1.000000000000000000e+00,4.000000000000000000e+01,1.213000000000000000e+04,2.984898090362548828e-01,1.601068973541259766e+00,3.028898433744657281e-01,0.000000000000000000e+00,1.110000000000000000e+02
0.000000000000000000e+00,1.000000000000000000e+00,0.000000000000000000e+00,6.200000000000000000e+01,1.219200000000000000e+04,2.475638389587402344e-01,1.776361942291259766e+00,5.291490844201174326e-01,0.000000000000000000e+00,1.110000000000000000e+02
1.000000000000000000e+00,1.000000000000000000e+00,1.000000000000000000e+00,5.700000000000000000e+01,1.224900000000000000e+04,2.428908348083496094e-01,1.505485057830810547e+00,2.849250331353334054e-01,0.000000000000000000e+00,1.110000000000000000e+02
0.000000000000000000e+00,1.000000000000000000e+00,0.000000000000000000e+00,6.100000000000000000e+01,1.231000000000000000e+04,2.392649650573730469e-01,1.673608064651489258e+00,4.417674271005217479e-01,0.000000000000000000e+00,1.110000000000000000e+02
0.000000000000000000e+00,0.000000000000000000e+00,1.000000000000000000e+00,4.300000000000000000e+01,1.235300000000000000e+04,2.945790290832519531e-01,1.950865030288696289e+00,6.757942644191171633e-01,1.000000000000000000e+00,1.120000000000000000e+02
1.000000000000000000e+00,1.000000000000000000e+00,1.000000000000000000e+00,6.000000000000000000e+01,1.241300000000000000e+04,2.847590446472167969e-01,1.616189956665039062e+00,3.424216422775798185e-01,0.000000000000000000e+00,1.120000000000000000e+02
0.000000000000000000e+00,1.000000000000000000e+00,0.000000000000000000e+00,6.300000000000000000e+01,1.247600000000000000e+04,2.991790771484375000e-01,1.689133167266845703e+00,3.982362675567951427e-01,0.000000000000000000e+00,1.120000000000000000e+02
1.000000000000000000e+00,1.000000000000000000e+00,1.000000000000000000e+00,6.100000000000000000e+01,1.253700000000000000e+04,2.538869380950927734e-01,1.644910812377929688e+00,4.098550663611306710e-01,0.000000000000000000e+00,1.120000000000000000e+02
1.000000000000000000e+00,1.000000000000000000e+00,1.000000000000000000e+00,5.500000000000000000e+01,1.259200000000000000e+04,3.899381160736083984e-01,1.667425155639648438e+00,2.941292270727517422e-01,0.000000000000000000e+00,1.120000000000000000e+02
1.000000000000000000e+00,1.000000000000000000e+00,1.000000000000000000e+00,6.000000000000000000e+01,1.265200000000000000e+04,3.743379116058349609e-01,1.619014024734497070e+00,2.632674221481887122e-01,0.000000000000000000e+00,1.120000000000000000e+02
0.000000000000000000e+00,1.000000000000000000e+00,0.000000000000000000e+00,6.000000000000000000e+01,1.271200000000000000e+04,2.966871261596679688e-01,1.822090864181518555e+00,5.351626687865789211e-01,0.000000000000000000e+00,1.120000000000000000e+02
1.000000000000000000e+00,1.000000000000000000e+00,1.000000000000000000e+00,5.600000000000000000e+01,1.276800000000000000e+04,3.383688926696777344e-01,1.850993871688842773e+00,5.195559787665112728e-01,0.000000000000000000e+00,1.120000000000000000e+02
0.000000000000000000e+00,1.000000000000000000e+00,0.000000000000000000e+00,6.200000000000000000e+01,1.283000000000000000e+04,2.505018711090087891e-01,1.777732133865356445e+00,5.306649418329367762e-01,0.000000000000000000e+00,1.120000000000000000e+02
1.000000000000000000e+00,0.000000000000000000e+00,0.000000000000000000e+00,4.400000000000000000e+01,1.287400000000000000e+04,2.719221115112304688e-01,1.888527870178222656e+00,6.358409859047891022e-01,0.000000000000000000e+00,1.120000000000000000e+02
1.000000000000000000e+00,1.000000000000000000e+00,1.000000000000000000e+00,5.500000000000000000e+01,1.292900000000000000e+04,3.049669265747070312e-01,1.860069036483764648e+00,5.627100931435464748e-01,0.000000000000000000e+00,1.120000000000000000e+02
1.000000000000000000e+00,1.000000000000000000e+00,1.000000000000000000e+00,5.000000000000000000e+01,1.297900000000000000e+04,3.280360698699951172e-01,1.668822050094604492e+00,3.651678884306711059e-01,0.000000000000000000e+00,1.120000000000000000e+02
1.000000000000000000e+00,0.000000000000000000e+00,0.000000000000000000e+00,4.600000000000000000e+01,1.302500000000000000e+04,3.084321022033691406e-01,1.543982982635498047e+00,2.593337077739338858e-01,0.000000000000000000e+00,1.120000000000000000e+02
1.000000000000000000e+00,1.000000000000000000e+00,1.000000000000000000e+00,5.700000000000000000e+01,1.308200000000000000e+04,3.054738044738769531e-01,1.769237995147705078e+00,4.783992450301950972e-01,0.000000000000000000e+00,1.120000000000000000e+02
0.000000000000000000e+00,1.000000000000000000e+00,0.000000000000000000e+00,5.900000000000000000e+01,1.314100000000000000e+04,2.768881320953369141e-01,1.906054973602294922e+00,6.510328885287905987e-01,0.000000000000000000e+00,1.120000000000000000e+02
1.000000000000000000e+00,1.000000000000000000e+00,1.000000000000000000e+00,5.400000000000000000e+01,1.319500000000000000e+04,2.522370815277099609e-01,1.836818933486938477e+00,5.880126444353749315e-01,0.000000000000000000e+00,1.120000000000000000e+02
0.000000000000000000e+00,1.000000000000000000e+00,0.000000000000000000e+00,6.100000000000000000e+01,1.325600000000000000e+04,2.359979152679443359e-01,1.665596008300781250e+00,4.371486563908350553e-01,0.000000000000000000e+00,1.120000000000000000e+02
0.000000000000000000e+00,1.000000000000000000e+00,0.000000000000000000e+00,5.900000000000000000e+01,1.331500000000000000e+04,2.822728157043457031e-01,1.732179880142211914e+00,4.527100126954034520e-01,0.000000000000000000e+00,1.120000000000000000e+02
1.000000000000000000e+00,1.000000000000000000e+00,1.000000000000000000e+00,6.400000000000000000e+01,1.337900000000000000e+04,4.741621017456054688e-01,1.865258932113647461e+00,4.014383167147069775e-01,0.000000000000000000e+00,1.120000000000000000e+02
0.000000000000000000e+00,1.000000000000000000e+00,0.000000000000000000e+00,5.700000000000000000e+01,1.343600000000000000e+04,3.354878425598144531e-01,1.799897193908691406e+00,4.679860908685689047e-01,0.000000000000000000e+00,1.120000000000000000e+02
0.000000000000000000e+00,1.000000000000000000e+00,0.000000000000000000e+00,5.400000000000000000e+01,1.349000000000000000e+04,4.025969505310058594e-01,1.772626876831054688e+00,3.741371598298937062e-01,0.000000000000000000e+00,1.120000000000000000e+02
0.000000000000000000e+00,1.000000000000000000e+00,0.000000000000000000e+00,6.000000000000000000e+01,1.355000000000000000e+04,2.839050292968750000e-01,1.906976938247680664e+00,6.309386662648823751e-01,0.000000000000000000e+00,1.120000000000000000e+02
1.000000000000000000e+00,1.000000000000000000e+00,1.000000000000000000e+00,5.700000000000000000e+01,1.360700000000000000e+04,3.539328575134277344e-01,1.878149986267089844e+00,5.425720712781644250e-01,0.000000000000000000e+00,1.120000000000000000e+02
0.000000000000000000e+00,1.000000000000000000e+00,0.000000000000000000e+00,6.200000000000000000e+01,1.366900000000000000e+04,2.716920375823974609e-01,1.748818874359130859e+00,4.915243139261047389e-01,0.000000000000000000e+00,1.120000000000000000e+02
1.000000000000000000e+00,1.000000000000000000e+00,1.000000000000000000e+00,5.900000000000000000e+01,1.372800000000000000e+04,3.007488250732421875e-01,1.936026096343994141e+00,6.441403529322253796e-01,0.000000000000000000e+00,1.120000000000000000e+02
1.000000000000000000e+00,1.000000000000000000e+00,1.000000000000000000e+00,5.400000000000000000e+01,1.378200000000000000e+04,3.914949893951416016e-01,1.702717065811157227e+00,3.305839657032319523e-01,0.000000000000000000e+00,1.120000000000000000e+02
1.000000000000000000e+00,1.000000000000000000e+00,1.000000000000000000e+00,6.000000000000000000e+01,1.384200000000000000e+04,2.946269512176513672e-01,2.002526044845581055e+00,7.327711167323252006e-01,0.000000000000000000e+00,1.120000000000000000e+02
0.000000000000000000e+00,1.000000000000000000e+00,0.000000000000000000e+00,5.600000000000000000e+01,1.389800000000000000e+04,3.270201683044433594e-01,1.648748874664306641e+00,3.320047625135169045e-01,0.000000000000000000e+00,1.120000000000000000e+02
1.000000000000000000e+00,1.000000000000000000e+00,1.000000000000000000e+00,5.600000000000000000e+01,1.395400000000000000e+04,3.378012180328369141e-01,1.873210191726684570e+00,5.550504112754005570e-01,0.000000000000000000e+00,1.120000000000000000e+02
1.000000000000000000e+00,0.000000000000000000e+00,0.000000000000000000e+00,4.300000000000000000e+01,1.399700000000000000e+04,3.474850654602050781e-01,2.067844867706298828e+00,7.228008440862673245e-01,1.000000000000000000e+00,1.110000000000000000e+02
0.000000000000000000e+00,1.000000000000000000e+00,0.000000000000000000e+00,5.600000000000000000e+01,1.405300000000000000e+04,2.919068336486816406e-01,1.614285945892333984e+00,3.375623510796372240e-01,0.000000000000000000e+00,1.110000000000000000e+02
0.000000000000000000e+00,1.000000000000000000e+00,0.000000000000000000e+00,6.000000000000000000e+01,1.411300000000000000e+04,2.872819900512695312e-01,1.619948148727416992e+00,3.409219010308732201e-01,0.000000000000000000e+00,1.110000000000000000e+02
0.000000000000000000e+00,1.000000000000000000e+00,0.000000000000000000e+00,5.700000000000000000e+01,1.417000000000000000e+04,2.726621627807617188e-01,1.550287008285522461e+00,2.913245823823933378e-01,0.000000000000000000e+00,1.110000000000000000e+02
0.000000000000000000e+00,1.000000000000000000e+00,0.000000000000000000e+00,5.500000000000000000e+01,1.422500000000000000e+04,2.777590751647949219e-01,1.646728038787841797e+00,3.713714677576489542e-01,0.000000000000000000e+00,1.110000000000000000e+02
1.000000000000000000e+00,1.000000000000000000e+00,1.000000000000000000e+00,6.100000000000000000e+01,1.428600000000000000e+04,2.978088855743408203e-01,1.864748954772949219e+00,5.693094199367374486e-01,0.000000000000000000e+00,1.110000000000000000e+02
0.000000000000000000e+00,1.000000000000000000e+00,0.000000000000000000e+00,6.000000000000000000e+01,1.434600000000000000e+04,3.040759563446044922e-01,1.868721008300781250e+00,5.714604357498835885e-01,0.000000000000000000e+00,1.110000000000000000e+02
1.000000000000000000e+00,1.000000000000000000e+00,1.000000000000000000e+00,5.700000000000000000e+01,1.440300000000000000e+04,2.965669631958007812e-01,1.773944139480590820e+00,4.788846727106611523e-01,0.000000000000000000e+00,1.110000000000000000e+02
0.000000000000000000e+00,1.000000000000000000e+00,0.000000000000000000e+00,5.600000000000000000e+01,1.445900000000000000e+04,3.479499816894531250e-01,1.707015037536621094e+00,3.694262320689573054e-01,0.000000000000000000e+00,1.110000000000000000e+02
0.000000000000000000e+00,1.000000000000000000e+00,0.000000000000000000e+00,5.500000000000000000e+01,1.451400000000000000e+04,2.863860130310058594e-01,1.916486024856567383e+00,6.357181198084009832e-01,0.000000000000000000e+00,1.110000000000000000e+02
1.000000000000000000e+00,1.000000000000000000e+00,1.000000000000000000e+00,5.600000000000000000e+01,1.457000000000000000e+04,2.627329826354980469e-01,1.634993076324462891e+00,3.710808494071795027e-01,0.000000000000000000e+00,1.110000000000000000e+02
0.000000000000000000e+00,1.000000000000000000e+00,0.000000000000000000e+00,5.500000000000000000e+01,1.462500000000000000e+04,2.562439441680908203e-01,1.905304908752441406e+00,6.595278549861554040e-01,0.000000000000000000e+00,1.110000000000000000e+02
1.000000000000000000e+00,1.000000000000000000e+00,1.000000000000000000e+00,5.700000000000000000e+01,1.468200000000000000e+04,3.296279907226562500e-01,1.852113008499145508e+00,5.285276897105374294e-01,0.000000000000000000e+00,1.110000000000000000e+02
1.000000000000000000e+00,1.000000000000000000e+00,1.000000000000000000e+00,5.600000000000000000e+01,1.473800000000000000e+04,3.676629066467285156e-01,1.604592084884643555e+00,2.501414679509778027e-01,0.000000000000000000e+00,1.110000000000000000e+02
1.000000000000000000e+00,1.000000000000000000e+00,1.000000000000000000e+00,5.300000000000000000e+01,1.479100000000000000e+04,3.730731010437011719e-01,1.793179988861083984e+00,4.265274793259594133e-01,0.000000000000000000e+00,1.110000000000000000e+02
1.000000000000000000e+00,1.000000000000000000e+00,1.000000000000000000e+00,6.300000000000000000e+01,1.485400000000000000e+04,3.087639808654785156e-01,1.759949207305908203e+00,4.698505901228505754e-01,0.000000000000000000e+00,1.110000000000000000e+02
0.000000000000000000e+00,1.000000000000000000e+00,0.000000000000000000e+00,5.900000000000000000e+01,1.491300000000000000e+04,3.062040805816650391e-01,1.627758979797363281e+00,3.311508366206288856e-01,0.000000000000000000e+00,1.110000000000000000e+02
0.000000000000000000e+00,1.000000000000000000e+00,0.000000000000000000e+00,5.600000000000000000e+01,1.496900000000000000e+04,3.135659694671630859e-01,1.760719060897827148e+00,4.584533480772106095e-01,0.000000000000000000e+00,1.110000000000000000e+02
1.000000000000000000e+00,1.000000000000000000e+00,1.000000000000000000e+00,5.900000000000000000e+01,1.502800000000000000e+04,2.948789596557617188e-01,1.890676975250244141e+00,5.990383411063613384e-01,0.000000000000000000e+00,1.110000000000000000e+02
1.000000000000000000e+00,1.000000000000000000e+00,1.000000000000000000e+00,6.200000000000000000e+01,1.509000000000000000e+04,3.429701328277587891e-01,1.587517023086547852e+00,2.536661423676643823e-01,0.000000000000000000e+00,1.110000000000000000e+02
1.000000000000000000e+00,1.000000000000000000e+00,1.000000000000000000e+00,5.100000000000000000e+01,1.514100000000000000e+04,3.676788806915283203e-01,1.615190982818603516e+00,2.522542140967262148e-01,0.000000000000000000e+00,1.110000000000000000e+02
1.000000000000000000e+00,1.000000000000000000e+00,1.000000000000000000e+00,5.600000000000000000e+01,1.519700000000000000e+04,3.920760154724121094e-01,2.099802017211914062e+00,7.183096270779452119e-01,0.000000000000000000e+00,1.110000000000000000e+02
1.000000000000000000e+00,1.000000000000000000e+00,1.000000000000000000e+00,5.500000000000000000e+01,1.525200000000000000e+04,2.551491260528564453e-01,1.726917982101440430e+00,4.789097821303953673e-01,0.000000000000000000e+00,1.110000000000000000e+02
0.000000000000000000e+00,1.000000000000000000e+00,0.000000000000000000e+00,5.600000000000000000e+01,1.530800000000000000e+04,3.025290966033935547e-01,1.812257051467895508e+00,5.245332164097589178e-01,0.000000000000000000e+00,1.110000000000000000e+02
1.000000000000000000e+00,1.000000000000000000e+00,1.000000000000000000e+00,5.700000000000000000e+01,1.536500000000000000e+04,4.369521141052246094e-01,2.029028892517089844e+00,6.035462836841112289e-01,0.000000000000000000e+00,1.110000000000000000e+02
0.000000000000000000e+00,1.000000000000000000e+00,0.000000000000000000e+00,5.600000000000000000e+01,1.542100000000000000e+04,4.627058506011962891e-01,1.953120946884155273e+00,4.901988114243804318e-01,0.000000000000000000e+00,1.110000000000000000e+02
1.000000000000000000e+00,1.000000000000000000e+00,1.000000000000000000e+00,5.900000000000000000e+01,1.548000000000000000e+04,2.518289089202880859e-01,1.758734941482543945e+00,5.156359454021197664e-01,0.000000000000000000e+00,1.110000000000000000e+02
1.000000000000000000e+00,1.000000000000000000e+00,1.000000000000000000e+00,5.600000000000000000e+01,1.553600000000000000e+04,3.191230297088623047e-01,1.944602012634277344e+00,6.268120354415448459e-01,0.000000000000000000e+00,1.110000000000000000e+02
0.000000000000000000e+00,1.000000000000000000e+00,0.000000000000000000e+00,6.000000000000000000e+01,1.559600000000000000e+04,2.878940105438232422e-01,1.542557001113891602e+00,2.698737790439002526e-01,0.000000000000000000e+00,1.110000000000000000e+02
0.000000000000000000e+00,1.000000000000000000e+00,0.000000000000000000e+00,5.600000000000000000e+01,1.565200000000000000e+04,3.239538669586181641e-01,1.912482023239135742e+00,5.987365870411227586e-01,0.000000000000000000e+00,1.110000000000000000e+02
0.000000000000000000e+00,1.000000000000000000e+00,0.000000000000000000e+00,5.600000000000000000e+01,1.570800000000000000e+04,2.473659515380859375e-01,1.689603805541992188e+00,4.386092392181880628e-01,0.000000000000000000e+00,1.110000000000000000e+02
0.000000000000000000e+00,1.000000000000000000e+00,0.000000000000000000e+00,5.600000000000000000e+01,1.576400000000000000e+04,2.731239795684814453e-01,1.743534803390502930e+00,4.821602574511251738e-01,0.000000000000000000e+00,1.110000000000000000e+02
1.000000000000000000e+00,1.000000000000000000e+00,1.000000000000000000e+00,5.100000000000000000e+01,1.581500000000000000e+04,3.641600608825683594e-01,1.887063026428222656e+00,5.189522654315279482e-01,0.000000000000000000e+00,1.110000000000000000e+02
0.000000000000000000e+00,1.000000000000000000e+00,0.000000000000000000e+00,5.600000000000000000e+01,1.587100000000000000e+04,4.328808784484863281e-01,2.126564025878906250e+00,6.957419153300574699e-01,0.000000000000000000e+00,1.110000000000000000e+02
1.000000000000000000e+00,1.000000000000000000e+00,1.000000000000000000e+00,5.400000000000000000e+01,1.592500000000000000e+04,2.892918586730957031e-01,1.776037931442260742e+00,5.053725668104798174e-01,0.000000000000000000e+00,1.110000000000000000e+02
0.000000000000000000e+00,1.000000000000000000e+00,0.000000000000000000e+00,5.000000000000000000e+01,1.597500000000000000e+04,2.790381908416748047e-01,2.021132946014404297e+00,7.429942643707194705e-01,0.000000000000000000e+00,1.110000000000000000e+02
0.000000000000000000e+00,0.000000000000000000e+00,1.000000000000000000e+00,3.900000000000000000e+01,1.601400000000000000e+04,2.954390048980712891e-01,1.701176166534423828e+00,4.112724726420235455e-01,0.000000000000000000e+00,1.110000000000000000e+02
0.000000000000000000e+00,1.000000000000000000e+00,0.000000000000000000e+00,5.500000000000000000e+01,1.606900000000000000e+04,2.424778938293457031e-01,1.697356939315795898e+00,4.752972655640019251e-01,0.000000000000000000e+00,1.110000000000000000e+02
0.000000000000000000e+00,1.000000000000000000e+00,0.000000000000000000e+00,5.600000000000000000e+01,1.612500000000000000e+04,3.034551143646240234e-01,1.913304090499877930e+00,6.218536527800987423e-01,0.000000000000000000e+00,1.110000000000000000e+02
0.000000000000000000e+00,1.000000000000000000e+00,0.000000000000000000e+00,5.600000000000000000e+01,1.618100000000000000e+04,3.108959197998046875e-01,1.786253929138183594e+00,4.913880070423654600e-01,0.000000000000000000e+00,1.110000000000000000e+02
1.000000000000000000e+00,0.000000000000000000e+00,0.000000000000000000e+00,4.600000000000000000e+01,1.622700000000000000e+04,2.916240692138671875e-01,1.694242954254150391e+00,4.193694865194998456e-01,1.000000000000000000e+00,1.120000000000000000e+02
1.000000000000000000e+00,1.000000000000000000e+00,1.000000000000000000e+00,5.600000000000000000e+01,1.628300000000000000e+04,3.347270488739013672e-01,1.867090940475463867e+00,5.364255819904369949e-01,0.000000000000000000e+00,1.120000000000000000e+02
0.000000000000000000e+00,1.000000000000000000e+00,0.000000000000000000e+00,5.500000000000000000e+01,1.633800000000000000e+04,2.591078281402587891e-01,1.683499097824096680e+00,4.367748856459792717e-01,0.000000000000000000e+00,1.120000000000000000e+02
1.000000000000000000e+00,1.000000000000000000e+00,1.000000000000000000e+00,5.000000000000000000e+01,1.638800000000000000e+04,2.648038864135742188e-01,1.855262041091918945e+00,5.916639453935976789e-01,0.000000000000000000e+00,1.120000000000000000e+02
0.000000000000000000e+00,1.000000000000000000e+00,0.000000000000000000e+00,5.900000000000000000e+01,1.644700000000000000e+04,2.918231487274169922e-01,2.024294853210449219e+00,7.494852138178190737e-01,0.000000000000000000e+00,1.120000000000000000e+02
1.000000000000000000e+00,1.000000000000000000e+00,1.000000000000000000e+00,5.300000000000000000e+01,1.650000000000000000e+04,3.346700668334960938e-01,1.753574132919311523e+00,4.201684461598844678e-01,0.000000000000000000e+00,1.120000000000000000e+02
1.000000000000000000e+00,1.000000000000000000e+00,1.000000000000000000e+00,5.600000000000000000e+01,1.655600000000000000e+04,4.676809310913085938e-01,2.206697940826416016e+00,7.432481588621273616e-01,0.000000000000000000e+00,1.120000000000000000e+02
0.000000000000000000e+00,1.000000000000000000e+00,0.000000000000000000e+00,5.900000000000000000e+01,1.661500000000000000e+04,2.637181282043457031e-01,1.996753931045532227e+00,7.400885298235060361e-01,0.000000000000000000e+00,1.120000000000000000e+02
0.000000000000000000e+00,1.000000000000000000e+00,0.000000000000000000e+00,5.200000000000000000e+01,1.666700000000000000e+04,3.508439064025878906e-01,1.693989992141723633e+00,3.512549604411944748e-01,0.000000000000000000e+00,1.120000000000000000e+02
0.000000000000000000e+00,1.000000000000000000e+00,0.000000000000000000e+00,5.100000000000000000e+01,1.671800000000000000e+04,3.038759231567382812e-01,1.711742877960205078e+00,4.129776783184790911e-01,0.000000000000000000e+00,1.120000000000000000e+02
1.000000000000000000e+00,0.000000000000000000e+00,0.000000000000000000e+00,5.000000000000000000e+01,1.676800000000000000e+04,4.459309577941894531e-01,1.860867977142333984e+00,4.239255989963665594e-01,0.000000000000000000e+00,1.120000000000000000e+02
0.000000000000000000e+00,0.000000000000000000e+00,1.000000000000000000e+00,4.700000000000000000e+01,1.681500000000000000e+04,3.173410892486572266e-01,1.835057973861694336e+00,5.255977700261356134e-01,0.000000000000000000e+00,1.120000000000000000e+02
0.000000000000000000e+00,1.000000000000000000e+00,0.000000000000000000e+00,5.400000000000000000e+01,1.686900000000000000e+04,2.570400238037109375e-01,1.790748834609985352e+00,5.497454367285850019e-01,0.000000000000000000e+00,1.120000000000000000e+02
0.000000000000000000e+00,1.000000000000000000e+00,0.000000000000000000e+00,5.400000000000000000e+01,1.692300000000000000e+04,3.471720218658447266e-01,1.910540103912353516e+00,5.603712136959535517e-01,0.000000000000000000e+00,1.120000000000000000e+02
0.000000000000000000e+00,1.000000000000000000e+00,0.000000000000000000e+00,5.400000000000000000e+01,1.697700000000000000e+04,2.911927700042724609e-01,1.772963047027587891e+00,5.001414809238124981e-01,0.000000000000000000e+00,1.120000000000000000e+02
1.000000000000000000e+00,1.000000000000000000e+00,1.000000000000000000e+00,5.500000000000000000e+01,1.703200000000000000e+04,4.819200038909912109e-01,1.787235975265502930e+00,3.043249328568187750e-01,0.000000000000000000e+00,1.120000000000000000e+02
0.000000000000000000e+00,1.000000000000000000e+00,0.000000000000000000e+00,5.600000000000000000e+01,1.708800000000000000e+04,2.886848449707031250e-01,1.756000041961669922e+00,4.768682629497838499e-01,0.000000000000000000e+00,1.120000000000000000e+02
0.000000000000000000e+00,1.000000000000000000e+00,0.000000000000000000e+00,5.400000000000000000e+01,1.714200000000000000e+04,3.817031383514404297e-01,1.865787982940673828e+00,4.927170890873751041e-01,0.000000000000000000e+00,1.120000000000000000e+02
1.000000000000000000e+00,1.000000000000000000e+00,1.000000000000000000e+00,5.200000000000000000e+01,1.719400000000000000e+04,3.260440826416015625e-01,1.916661977767944336e+00,6.093510369370771507e-01,0.000000000000000000e+00,1.120000000000000000e+02
1.000000000000000000e+00,1.000000000000000000e+00,1.000000000000000000e+00,5.600000000000000000e+01,1.725000000000000000e+04,5.094609260559082031e-01,1.832516908645629883e+00,3.422096487679654464e-01,0.000000000000000000e+00,1.120000000000000000e+02
1.000000000000000000e+00,1.000000000000000000e+00,1.000000000000000000e+00,5.400000000000000000e+01,1.730400000000000000e+04,7.102289199829101562e-01,2.286324024200439453e+00,5.950259372674024938e-01,0.000000000000000000e+00,1.120000000000000000e+02
0.000000000000000000e+00,1.000000000000000000e+00,0.000000000000000000e+00,5.200000000000000000e+01,1.735600000000000000e+04,2.970321178436279297e-01,1.872779130935668945e+00,5.845613659370366699e-01,0.000000000000000000e+00,1.120000000000000000e+02
0.000000000000000000e+00,1.000000000000000000e+00,0.000000000000000000e+00,5.500000000000000000e+01,1.741100000000000000e+04,2.968080043792724609e-01,1.628082036972045898e+00,3.296563284811404593e-01,0.000000000000000000e+00,1.120000000000000000e+02
1.000000000000000000e+00,1.000000000000000000e+00,1.000000000000000000e+00,5.600000000000000000e+01,1.746700000000000000e+04,4.772491455078125000e-01,1.987496852874755859e+00,5.170907193552369829e-01,0.000000000000000000e+00,1.120000000000000000e+02
1.000000000000000000e+00,1.000000000000000000e+00,1.000000000000000000e+00,5.000000000000000000e+01,1.751700000000000000e+04,3.512649536132812500e-01,1.773530960083007812e+00,4.240998002657328514e-01,0.000000000000000000e+00,1.120000000000000000e+02
0.000000000000000000e+00,1.000000000000000000e+00,0.000000000000000000e+00,5.000000000000000000e+01,1.756700000000000000e+04,2.997210025787353516e-01,1.849532842636108398e+00,5.569151856906031650e-01,0.000000000000000000e+00,1.120000000000000000e+02
0.000000000000000000e+00,1.000000000000000000e+00,0.000000000000000000e+00,5.200000000000000000e+01,1.761900000000000000e+04,3.067109584808349609e-01,1.799551010131835938e+00,5.065957827973608385e-01,0.000000000000000000e+00,1.120000000000000000e+02
1.000000000000000000e+00,1.000000000000000000e+00,1.000000000000000000e+00,5.400000000000000000e+01,1.767300000000000000e+04,3.007690906524658203e-01,2.024605035781860352e+00,7.312726249179102300e-01,0.000000000000000000e+00,1.120000000000000000e+02
0.000000000000000000e+00,1.000000000000000000e+00,0.000000000000000000e+00,5.200000000000000000e+01,1.772500000000000000e+04,2.561659812927246094e-01,1.682929992675781250e+00,4.476860291678461112e-01,0.000000000000000000e+00,1.120000000000000000e+02
0.000000000000000000e+00,1.000000000000000000e+00,0.000000000000000000e+00,5.200000000000000000e+01,1.777700000000000000e+04,4.178969860076904297e-01,1.867166042327880859e+00,4.649110810062684340e-01,0.000000000000000000e+00,1.120000000000000000e+02
1.000000000000000000e+00,0.000000000000000000e+00,0.000000000000000000e+00,4.200000000000000000e+01,1.781900000000000000e+04,3.402760028839111328e-01,1.626699924468994141e+00,3.084897608201965236e-01,1.000000000000000000e+00,1.110000000000000000e+02
1.000000000000000000e+00,1.000000000000000000e+00,1.000000000000000000e+00,5.000000000000000000e+01,1.786900000000000000e+04,2.880249023437500000e-01,1.835330963134765625e+00,5.602980033380768887e-01,0.000000000000000000e+00,1.110000000000000000e+02
0.000000000000000000e+00,1.000000000000000000e+00,0.000000000000000000e+00,5.600000000000000000e+01,1.792500000000000000e+04,2.357189655303955078e-01,1.478703975677490234e+00,2.560492597446644703e-01,0.000000000000000000e+00,1.110000000000000000e+02
1.000000000000000000e+00,1.000000000000000000e+00,1.000000000000000000e+00,5.400000000000000000e+01,1.797900000000000000e+04,3.054780960083007812e-01,1.948971986770629883e+00,6.547134971879147169e-01,0.000000000000000000e+00,1.110000000000000000e+02
1.000000000000000000e+00,1.000000000000000000e+00,1.000000000000000000e+00,5.500000000000000000e+01,1.803400000000000000e+04,3.925399780273437500e-01,1.944003820419311523e+00,5.655552895453561657e-01,0.000000000000000000e+00,1.110000000000000000e+02
1.000000000000000000e+00,1.000000000000000000e+00,1.000000000000000000e+00,5.700000000000000000e+01,1.809100000000000000e+04,2.726690769195556641e-01,1.893274068832397461e+00,6.254955600491418632e-01,0.000000000000000000e+00,1.110000000000000000e+02
0.000000000000000000e+00,1.000000000000000000e+00,0.000000000000000000e+00,6.100000000000000000e+01,1.815200000000000000e+04,2.653200626373291016e-01,1.684529066085815430e+00,4.269755412263138150e-01,0.000000000000000000e+00,1.110000000000000000e+02
1.000000000000000000e+00,1.000000000000000000e+00,1.000000000000000000e+00,5.600000000000000000e+01,1.820800000000000000e+04,2.530679702758789062e-01,1.719581127166748047e+00,4.799151520057732268e-01,0.000000000000000000e+00,1.110000000000000000e+02
0.000000000000000000e+00,1.000000000000000000e+00,0.000000000000000000e+00,6.000000000000000000e+01,1.826800000000000000e+04,2.804479598999023438e-01,1.855193853378295898e+00,5.850248659308842081e-01,0.000000000000000000e+00,1.110000000000000000e+02
1.000000000000000000e+00,1.000000000000000000e+00,1.000000000000000000e+00,6.000000000000000000e+01,1.832800000000000000e+04,2.708380222320556641e-01,1.539815902709960938e+00,2.752281774502101652e-01,0.000000000000000000e+00,1.110000000000000000e+02
1.000000000000000000e+00,1.000000000000000000e+00,1.000000000000000000e+00,5.700000000000000000e+01,1.838500000000000000e+04,3.695628643035888672e-01,1.847769021987915039e+00,4.895107796578757609e-01,0.000000000000000000e+00,1.110000000000000000e+02
1.000000000000000000e+00,1.000000000000000000e+00,1.000000000000000000e+00,5.200000000000000000e+01,1.843700000000000000e+04,3.506140708923339844e-01,1.955398082733154297e+00,6.115116752914853127e-01,0.000000000000000000e+00,1.110000000000000000e+02
1.000000000000000000e+00,1.000000000000000000e+00,1.000000000000000000e+00,5.600000000000000000e+01,1.849300000000000000e+04,2.966101169586181641e-01,1.694875955581665039e+00,4.066977696403630271e-01,0.000000000000000000e+00,1.110000000000000000e+02
1.000000000000000000e+00,1.000000000000000000e+00,1.000000000000000000e+00,5.400000000000000000e+01,1.854700000000000000e+04,2.947571277618408203e-01,1.958457946777343750e+00,6.816176365843573670e-01,0.000000000000000000e+00,1.110000000000000000e+02
1.000000000000000000e+00,1.000000000000000000e+00,1.000000000000000000e+00,5.600000000000000000e+01,1.860300000000000000e+04,2.968289852142333984e-01,1.665739774703979492e+00,3.810854231012043569e-01,0.000000000000000000e+00,1.110000000000000000e+02
0.000000000000000000e+00,1.000000000000000000e+00,0.000000000000000000e+00,5.500000000000000000e+01,1.865800000000000000e+04,3.142030239105224609e-01,1.577017068862915039e+00,2.749422128514631414e-01,0.000000000000000000e+00,1.110000000000000000e+02
1.000000000000000000e+00,1.000000000000000000e+00,1.000000000000000000e+00,5.600000000000000000e+01,1.871400000000000000e+04,3.289530277252197266e-01,2.027065038681030273e+00,7.016420071684730253e-01,0.000000000000000000e+00,1.110000000000000000e+02
0.000000000000000000e+00,1.000000000000000000e+00,0.000000000000000000e+00,5.400000000000000000e+01,1.876800000000000000e+04,2.616970539093017578e-01,1.979211091995239258e+00,7.142462067240518131e-01,0.000000000000000000e+00,1.110000000000000000e+02
0.000000000000000000e+00,1.000000000000000000e+00,0.000000000000000000e+00,5.500000000000000000e+01,1.882300000000000000e+04,2.850100994110107422e-01,1.937558889389038086e+00,6.685994184356074399e-01,0.000000000000000000e+00,1.110000000000000000e+02
0.000000000000000000e+00,1.000000000000000000e+00,0.000000000000000000e+00,6.000000000000000000e+01,1.888300000000000000e+04,3.091201782226562500e-01,1.638906002044677734e+00,3.412964453848747470e-01,0.000000000000000000e+00,1.110000000000000000e+02
0.000000000000000000e+00,1.000000000000000000e+00,0.000000000000000000e+00,5.600000000000000000e+01,1.893900000000000000e+04,2.898571491241455078e-01,1.760092020034790039e+00,4.846081645840957242e-01,0.000000000000000000e+00,1.110000000000000000e+02
1.000000000000000000e+00,1.000000000000000000e+00,1.000000000000000000e+00,5.100000000000000000e+01,1.899000000000000000e+04,3.162841796875000000e-01,1.631285905838012695e+00,3.161602003499683899e-01,0.000000000000000000e+00,1.110000000000000000e+02
0.000000000000000000e+00,1.000000000000000000e+00,0.000000000000000000e+00,5.400000000000000000e+01,1.904400000000000000e+04,2.459609508514404297e-01,1.615581989288330078e+00,3.650812621343325071e-01,0.000000000000000000e+00,1.110000000000000000e+02
0.000000000000000000e+00,1.000000000000000000e+00,0.000000000000000000e+00,5.900000000000000000e+01,1.910300000000000000e+04,3.730230331420898438e-01,2.099256992340087891e+00,7.473363369999572736e-01,0.000000000000000000e+00,1.110000000000000000e+02
0.000000000000000000e+00,1.000000000000000000e+00,0.000000000000000000e+00,5.500000000000000000e+01,1.915800000000000000e+04,3.190929889678955078e-01,1.985483169555664062e+00,6.829702112040778594e-01,0.000000000000000000e+00,1.110000000000000000e+02
0.000000000000000000e+00,1.000000000000000000e+00,0.000000000000000000e+00,5.100000000000000000e+01,1.920900000000000000e+04,3.052141666412353516e-01,1.554867982864379883e+00,2.550641784603507323e-01,0.000000000000000000e+00,1.110000000000000000e+02
1.000000000000000000e+00,1.000000000000000000e+00,1.000000000000000000e+00,5.500000000000000000e+01,1.926400000000000000e+04,3.932838439941406250e-01,1.905012130737304688e+00,5.264836122220819536e-01,0.000000000000000000e+00,1.110000000000000000e+02
1.000000000000000000e+00,1.000000000000000000e+00,1.000000000000000000e+00,5.600000000000000000e+01,1.932000000000000000e+04,4.042789936065673828e-01,1.777989864349365234e+00,3.880346936134669855e-01,0.000000000000000000e+00,1.110000000000000000e+02
0.000000000000000000e+00,1.000000000000000000e+00,0.000000000000000000e+00,5.600000000000000000e+01,1.937600000000000000e+04,2.380139827728271484e-01,1.529535055160522461e+00,3.010564611405988078e-01,0.000000000000000000e+00,1.110000000000000000e+02
0.000000000000000000e+00,1.000000000000000000e+00,0.000000000000000000e+00,5.500000000000000000e+01,1.943100000000000000e+04,3.297710418701171875e-01,1.858845949172973633e+00,5.263938868561723883e-01,0.000000000000000000e+00,1.110000000000000000e+02
1.000000000000000000e+00,1.000000000000000000e+00,1.000000000000000000e+00,5.100000000000000000e+01,1.948200000000000000e+04,3.058309555053710938e-01,1.686322927474975586e+00,3.962705266442356766e-01,0.000000000000000000e+00,1.110000000000000000e+02
1.000000000000000000e+00,1.000000000000000000e+00,1.000000000000000000e+00,5.000000000000000000e+01,1.953200000000000000e+04,3.275330066680908203e-01,1.923415899276733398e+00,6.195508435087495602e-01,0.000000000000000000e+00,1.110000000000000000e+02
1.000000000000000000e+00,0.000000000000000000e+00,0.000000000000000000e+00,4.400000000000000000e+01,1.957600000000000000e+04,3.182489871978759766e-01,1.691051959991455078e+00,3.776148777081889674e-01,0.000000000000000000e+00,1.110000000000000000e+02
0.000000000000000000e+00,1.000000000000000000e+00,0.000000000000000000e+00,5.000000000000000000e+01,1.962600000000000000e+04,3.049910068511962891e-01,1.784946918487548828e+00,4.958105972501359315e-01,0.000000000000000000e+00,1.110000000000000000e+02
0.000000000000000000e+00,1.000000000000000000e+00,0.000000000000000000e+00,5.500000000000000000e+01,1.968100000000000000e+04,2.705979347229003906e-01,1.962984085083007812e+00,7.086331913175611952e-01,0.000000000000000000e+00,1.110000000000000000e+02
1.000000000000000000e+00,0.000000000000000000e+00,0.000000000000000000e+00,4.900000000000000000e+01,1.973000000000000000e+04,3.052120208740234375e-01,1.860208034515380859e+00,5.690797168090410141e-01,1.000000000000000000e+00,1.120000000000000000e+02
0.000000000000000000e+00,0.000000000000000000e+00,1.000000000000000000e+00,4.700000000000000000e+01,1.977700000000000000e+04,4.104478359222412109e-01,1.786026000976562500e+00,3.887525058831897695e-01,0.000000000000000000e+00,1.120000000000000000e+02
1.000000000000000000e+00,1.000000000000000000e+00,1.000000000000000000e+00,5.000000000000000000e+01,1.982700000000000000e+04,5.181598663330078125e-01,1.991091012954711914e+00,4.797729335032159814e-01,0.000000000000000000e+00,1.120000000000000000e+02
1.000000000000000000e+00,1.000000000000000000e+00,1.000000000000000000e+00,5.000000000000000000e+01,1.987700000000000000e+04,2.769310474395751953e-01,1.781122207641601562e+00,5.275888211056426469e-01,0.000000000000000000e+00,1.120000000000000000e+02
0.000000000000000000e+00,1.000000000000000000e+00,0.000000000000000000e+00,5.300000000000000000e+01,1.993000000000000000e+04,3.217358589172363281e-01,1.985893011093139648e+00,6.800621245352997946e-01,0.000000000000000000e+00,1.120000000000000000e+02
1.000000000000000000e+00,1.000000000000000000e+00,1.000000000000000000e+00,5.600000000000000000e+01,1.998600000000000000e+04,2.325158119201660156e-01,1.672322034835815430e+00,4.526985492694495239e-01,0.000000000000000000e+00,1.120000000000000000e+02
1.000000000000000000e+00,1.000000000000000000e+00,1.000000000000000000e+00,5.100000000000000000e+01,2.003700000000000000e+04,3.032181262969970703e-01,1.904194831848144531e+00,6.067992207593254639e-01,0.000000000000000000e+00,1.120000000000000000e+02
1.000000000000000000e+00,1.000000000000000000e+00,1.000000000000000000e+00,5.200000000000000000e+01,2.008900000000000000e+04,2.872240543365478516e-01,1.526881217956542969e+00,2.508018948500826961e-01,0.000000000000000000e+00,1.120000000000000000e+02
1.000000000000000000e+00,1.000000000000000000e+00,1.000000000000000000e+00,5.300000000000000000e+01,2.014200000000000000e+04,4.149689674377441406e-01,1.947779893875122070e+00,5.316966216001993706e-01,0.000000000000000000e+00,1.120000000000000000e+02
1.000000000000000000e+00,1.000000000000000000e+00,1.000000000000000000e+00,5.200000000000000000e+01,2.019400000000000000e+04,2.196640968322753906e-01,1.761996030807495117e+00,5.604348200644251321e-01,0.000000000000000000e+00,1.120000000000000000e+02
1.000000000000000000e+00,1.000000000000000000e+00,1.000000000000000000e+00,5.300000000000000000e+01,2.024700000000000000e+04,2.820529937744140625e-01,1.678199052810668945e+00,4.055495356707140009e-01,0.000000000000000000e+00,1.120000000000000000e+02
0.000000000000000000e+00,1.000000000000000000e+00,0.000000000000000000e+00,5.000000000000000000e+01,2.029700000000000000e+04,3.627479076385498047e-01,1.713871002197265625e+00,3.528424726244394072e-01,0.000000000000000000e+00,1.120000000000000000e+02
0.000000000000000000e+00,1.000000000000000000e+00,0.000000000000000000e+00,5.000000000000000000e+01,2.034700000000000000e+04,3.342390060424804688e-01,1.684640169143676758e+00,3.542378878932807562e-01,0.000000000000000000e+00,1.120000000000000000e+02
1.000000000000000000e+00,1.000000000000000000e+00,1.000000000000000000e+00,5.100000000000000000e+01,2.039800000000000000e+04,2.929341793060302734e-01,1.784829854965209961e+00,5.056191135789582791e-01,0.000000000000000000e+00,1.120000000000000000e+02
0.000000000000000000e+00,0.000000000000000000e+00,1.000000000000000000e+00,4.800000000000000000e+01,2.044600000000000000e+04,2.996020317077636719e-01,1.801076889038085938e+00,5.067525295148920250e-01,0.000000000000000000e+00,1.120000000000000000e+02
0.000000000000000000e+00,1.000000000000000000e+00,0.000000000000000000e+00,5.200000000000000000e+01,2.049800000000000000e+04,2.857539653778076172e-01,1.604408025741577148e+00,3.281183913553856191e-01,0.000000000000000000e+00,1.120000000000000000e+02
0.000000000000000000e+00,0.000000000000000000e+00,1.000000000000000000e+00,4.600000000000000000e+01,2.054400000000000000e+04,4.227359294891357422e-01,1.678760051727294922e+00,2.736775479765225505e-01,0.000000000000000000e+00,1.120000000000000000e+02
0.000000000000000000e+00,1.000000000000000000e+00,0.000000000000000000e+00,5.200000000000000000e+01,2.059600000000000000e+04,2.354338169097900391e-01,1.902307987213134766e+00,6.756078455677354544e-01,0.000000000000000000e+00,1.120000000000000000e+02
0.000000000000000000e+00,1.000000000000000000e+00,0.000000000000000000e+00,5.200000000000000000e+01,2.064800000000000000e+04,3.425841331481933594e-01,1.611660957336425781e+00,2.877701056179143846e-01,0.000000000000000000e+00,1.120000000000000000e+02
1.000000000000000000e+00,1.000000000000000000e+00,1.000000000000000000e+00,5.600000000000000000e+01,2.070400000000000000e+04,3.208489418029785156e-01,1.776672124862670898e+00,4.643345917650352761e-01,0.000000000000000000e+00,1.120000000000000000e+02
0.000000000000000000e+00,1.000000000000000000e+00,0.000000000000000000e+00,5.600000000000000000e+01,2.076000000000000000e+04,2.673430442810058594e-01,1.689322948455810547e+00,4.370818553834892040e-01,0.000000000000000000e+00,1.120000000000000000e+02
0.000000000000000000e+00,1.000000000000000000e+00,0.000000000000000000e+00,5.000000000000000000e+01,2.081000000000000000e+04,3.203151226043701172e-01,1.845394134521484375e+00,5.324371617987969652e-01,0.000000000000000000e+00,1.120000000000000000e+02
1.000000000000000000e+00,1.000000000000000000e+00,1.000000000000000000e+00,5.300000000000000000e+01,2.086300000000000000e+04,2.934539318084716797e-01,1.978765964508056641e+00,6.944342964053489275e-01,0.000000000000000000e+00,1.120000000000000000e+02
0.000000000000000000e+00,1.000000000000000000e+00,0.000000000000000000e+00,5.400000000000000000e+01,2.091700000000000000e+04,2.458589076995849609e-01,1.888113975524902344e+00,6.493455804558793121e-01,0.000000000000000000e+00,1.120000000000000000e+02
1.000000000000000000e+00,1.000000000000000000e+00,1.000000000000000000e+00,5.400000000000000000e+01,2.097100000000000000e+04,2.338511943817138672e-01,1.849242210388183594e+00,6.153772711718876742e-01,0.000000000000000000e+00,1.120000000000000000e+02
0.000000000000000000e+00,1.000000000000000000e+00,0.000000000000000000e+00,5.100000000000000000e+01,2.102200000000000000e+04,2.529060840606689453e-01,1.693406820297241211e+00,4.423800790352471202e-01,0.000000000000000000e+00,1.120000000000000000e+02
1.000000000000000000e+00,1.000000000000000000e+00,1.000000000000000000e+00,5.000000000000000000e+01,2.107200000000000000e+04,2.156448364257812500e-01,1.626508951187133789e+00,4.190119242948325273e-01,0.000000000000000000e+00,1.120000000000000000e+02
1.000000000000000000e+00,1.000000000000000000e+00,1.000000000000000000e+00,5.700000000000000000e+01,2.112900000000000000e+04,3.675198554992675781e-01,1.834976911544799805e+00,4.706491211821520748e-01,0.000000000000000000e+00,1.120000000000000000e+02
0.000000000000000000e+00,1.000000000000000000e+00,0.000000000000000000e+00,5.500000000000000000e+01,2.118400000000000000e+04,2.741670608520507812e-01,1.513404130935668945e+00,2.510247696585148902e-01,0.000000000000000000e+00,1.120000000000000000e+02
0.000000000000000000e+00,0.000000000000000000e+00,1.000000000000000000e+00,3.700000000000000000e+01,2.122100000000000000e+04,3.075590133666992188e-01,1.602720975875854492e+00,3.037472584399978914e-01,1.000000000000000000e+00,1.110000000000000000e+02
1.000000000000000000e+00,1.000000000000000000e+00,1.000000000000000000e+00,6.000000000000000000e+01,2.128100000000000000e+04,3.005900382995605469e-01,1.603620052337646484e+00,3.074541396363587586e-01,0.000000000000000000e+00,1.110000000000000000e+02
0.000000000000000000e+00,1.000000000000000000e+00,0.000000000000000000e+00,5.700000000000000000e+01,2.133800000000000000e+04,2.986171245574951172e-01,1.797721147537231445e+00,5.050063209341264514e-01,0.000000000000000000e+00,1.110000000000000000e+02
0.000000000000000000e+00,1.000000000000000000e+00,0.000000000000000000e+00,6.100000000000000000e+01,2.139900000000000000e+04,3.167119026184082031e-01,1.642627954483032227e+00,3.312408942465084882e-01,0.000000000000000000e+00,1.110000000000000000e+02
1.000000000000000000e+00,1.000000000000000000e+00,1.000000000000000000e+00,5.900000000000000000e+01,2.145800000000000000e+04,2.784409523010253906e-01,1.890158891677856445e+00,6.211582679429088483e-01,0.000000000000000000e+00,1.110000000000000000e+02
1.000000000000000000e+00,1.000000000000000000e+00,1.000000000000000000e+00,6.000000000000000000e+01,2.151800000000000000e+04,3.685209751129150391e-01,1.771069049835205078e+00,4.092171303167615459e-01,0.000000000000000000e+00,1.110000000000000000e+02
0.000000000000000000e+00,1.000000000000000000e+00,0.000000000000000000e+00,6.300000000000000000e+01,2.158100000000000000e+04,3.390219211578369141e-01,1.803971052169799805e+00,4.798581858740407213e-01,0.000000000000000000e+00,1.110000000000000000e+02
0.000000000000000000e+00,1.000000000000000000e+00,0.000000000000000000e+00,6.300000000000000000e+01,2.164400000000000000e+04,2.849919795989990234e-01,1.640355110168457031e+00,3.703917584075702152e-01,0.000000000000000000e+00,1.110000000000000000e+02
0.000000000000000000e+00,1.000000000000000000e+00,0.000000000000000000e+00,5.600000000000000000e+01,2.170000000000000000e+04,2.730460166931152344e-01,1.703151941299438477e+00,4.401915066368693452e-01,0.000000000000000000e+00,1.110000000000000000e+02
1.000000000000000000e+00,1.000000000000000000e+00,1.000000000000000000e+00,6.000000000000000000e+01,2.176000000000000000e+04,3.271369934082031250e-01,1.651257991790771484e+00,3.416349551654770944e-01,0.000000000000000000e+00,1.110000000000000000e+02
0.000000000000000000e+00,1.000000000000000000e+00,0.000000000000000000e+00,5.400000000000000000e+01,2.181400000000000000e+04,2.691371440887451172e-01,1.672847032546997070e+00,4.144839295295822401e-01,0.000000000000000000e+00,1.110000000000000000e+02
1.000000000000000000e+00,1.000000000000000000e+00,1.000000000000000000e+00,6.200000000000000000e+01,2.187600000000000000e+04,2.766199111938476562e-01,1.636423110961914062e+00,3.843204555835834091e-01,0.000000000000000000e+00,1.110000000000000000e+02
0.000000000000000000e+00,0.000000000000000000e+00,1.000000000000000000e+00,4.000000000000000000e+01,2.191600000000000000e+04,3.406109809875488281e-01,1.608304023742675781e+00,2.761512108557464540e-01,0.000000000000000000e+00,1.110000000000000000e+02
1.000000000000000000e+00,1.000000000000000000e+00,1.000000000000000000e+00,5.400000000000000000e+01,2.197000000000000000e+04,2.996079921722412109e-01,1.849727869033813477e+00,5.589823140583543015e-01,0.000000000000000000e+00,1.110000000000000000e+02
1.000000000000000000e+00,1.000000000000000000e+00,1.000000000000000000e+00,6.000000000000000000e+01,2.203000000000000000e+04,3.247270584106445312e-01,1.580659866333007812e+00,2.733426276142347233e-01,0.000000000000000000e+00,1.110000000000000000e+02
