choice, accuracy, solution,  reward, cumulative_reward, rt,  total_trial_time, iti, cp_with_slow_fast, high_val_cue
0.000000000000000000e+00,1.000000000000000000e+00,0.000000000000000000e+00,6.800000000000000000e+01,6.800000000000000000e+01,5.145549774169921875e-01,1.908125162124633789e+00,3.931166541594988684e-01,0.000000000000000000e+00,1.120000000000000000e+02
0.000000000000000000e+00,1.000000000000000000e+00,0.000000000000000000e+00,6.400000000000000000e+01,1.320000000000000000e+02,3.006308078765869141e-01,1.825202941894531250e+00,5.348801791180617382e-01,0.000000000000000000e+00,1.120000000000000000e+02
1.000000000000000000e+00,1.000000000000000000e+00,1.000000000000000000e+00,6.300000000000000000e+01,1.950000000000000000e+02,3.074722290039062500e-01,1.786158084869384766e+00,4.877698474397071937e-01,0.000000000000000000e+00,1.120000000000000000e+02
1.000000000000000000e+00,1.000000000000000000e+00,1.000000000000000000e+00,7.200000000000000000e+01,2.670000000000000000e+02,2.311170101165771484e-01,1.560624122619628906e+00,3.319737947324629679e-01,0.000000000000000000e+00,1.120000000000000000e+02
0.000000000000000000e+00,1.000000000000000000e+00,0.000000000000000000e+00,6.200000000000000000e+01,3.290000000000000000e+02,2.772130966186523438e-01,1.550770998001098633e+00,2.994191290495531454e-01,0.000000000000000000e+00,1.120000000000000000e+02
0.000000000000000000e+00,1.000000000000000000e+00,0.000000000000000000e+00,6.000000000000000000e+01,3.890000000000000000e+02,2.684748172760009766e-01,1.997977018356323242e+00,7.303101452889098066e-01,0.000000000000000000e+00,1.120000000000000000e+02
1.000000000000000000e+00,0.000000000000000000e+00,0.000000000000000000e+00,3.900000000000000000e+01,4.280000000000000000e+02,1.970689296722412109e-01,1.928575992584228516e+00,7.422636896409141594e-01,0.000000000000000000e+00,1.120000000000000000e+02
1.000000000000000000e+00,1.000000000000000000e+00,1.000000000000000000e+00,6.400000000000000000e+01,4.920000000000000000e+02,2.998399734497070312e-01,1.845214128494262695e+00,5.544070710240214250e-01,0.000000000000000000e+00,1.120000000000000000e+02
1.000000000000000000e+00,1.000000000000000000e+00,1.000000000000000000e+00,6.300000000000000000e+01,5.550000000000000000e+02,3.038959503173828125e-01,1.585897922515869141e+00,2.906599086931298537e-01,0.000000000000000000e+00,1.120000000000000000e+02
0.000000000000000000e+00,1.000000000000000000e+00,0.000000000000000000e+00,6.300000000000000000e+01,6.180000000000000000e+02,3.486249446868896484e-01,1.729285001754760742e+00,3.865677562554461488e-01,0.000000000000000000e+00,1.120000000000000000e+02
1.000000000000000000e+00,1.000000000000000000e+00,1.000000000000000000e+00,7.000000000000000000e+01,6.880000000000000000e+02,2.633380889892578125e-01,1.661858081817626953e+00,3.981874046782110654e-01,0.000000000000000000e+00,1.120000000000000000e+02
1.000000000000000000e+00,1.000000000000000000e+00,1.000000000000000000e+00,0.000000000000000000e+00,6.880000000000000000e+02,9.041213989257812500e-02,5.774186134338378906e+00,5.726952043622361987e-01,-2.000000000000000000e+00,1.120000000000000000e+02
1.000000000000000000e+00,1.000000000000000000e+00,1.000000000000000000e+00,6.800000000000000000e+01,7.560000000000000000e+02,3.072690963745117188e-01,1.651199817657470703e+00,3.574974724321039465e-01,0.000000000000000000e+00,1.120000000000000000e+02
0.000000000000000000e+00,1.000000000000000000e+00,0.000000000000000000e+00,6.100000000000000000e+01,8.170000000000000000e+02,3.172919750213623047e-01,1.704359054565429688e+00,3.952052269200000967e-01,0.000000000000000000e+00,1.120000000000000000e+02
1.000000000000000000e+00,1.000000000000000000e+00,1.000000000000000000e+00,6.800000000000000000e+01,8.850000000000000000e+02,2.701308727264404297e-01,1.650598049163818359e+00,3.959003274015343576e-01,0.000000000000000000e+00,1.120000000000000000e+02
0.000000000000000000e+00,1.000000000000000000e+00,0.000000000000000000e+00,6.600000000000000000e+01,9.510000000000000000e+02,2.444860935211181641e-01,1.790981054306030273e+00,5.700676537654434384e-01,0.000000000000000000e+00,1.120000000000000000e+02
0.000000000000000000e+00,1.000000000000000000e+00,0.000000000000000000e+00,6.500000000000000000e+01,1.016000000000000000e+03,2.865409851074218750e-01,1.587973117828369141e+00,3.083746692158332303e-01,0.000000000000000000e+00,1.120000000000000000e+02
1.000000000000000000e+00,1.000000000000000000e+00,1.000000000000000000e+00,6.500000000000000000e+01,1.081000000000000000e+03,2.721941471099853516e-01,1.548530817031860352e+00,2.903225332431339512e-01,0.000000000000000000e+00,1.120000000000000000e+02
0.000000000000000000e+00,0.000000000000000000e+00,1.000000000000000000e+00,3.900000000000000000e+01,1.120000000000000000e+03,2.963769435882568359e-01,1.754526853561401367e+00,4.614253860683549813e-01,0.000000000000000000e+00,1.120000000000000000e+02
1.000000000000000000e+00,1.000000000000000000e+00,1.000000000000000000e+00,6.700000000000000000e+01,1.187000000000000000e+03,3.354401588439941406e-01,1.862804174423217773e+00,5.408951933687171643e-01,0.000000000000000000e+00,1.120000000000000000e+02
0.000000000000000000e+00,1.000000000000000000e+00,0.000000000000000000e+00,6.500000000000000000e+01,1.252000000000000000e+03,3.478238582611083984e-01,1.701544046401977539e+00,3.593806355301201738e-01,0.000000000000000000e+00,1.120000000000000000e+02
0.000000000000000000e+00,1.000000000000000000e+00,0.000000000000000000e+00,6.600000000000000000e+01,1.318000000000000000e+03,3.035728931427001953e-01,1.686673879623413086e+00,3.960428463803538635e-01,0.000000000000000000e+00,1.120000000000000000e+02
0.000000000000000000e+00,1.000000000000000000e+00,0.000000000000000000e+00,6.500000000000000000e+01,1.383000000000000000e+03,3.746180534362792969e-01,1.819679021835327148e+00,4.657095806038206165e-01,0.000000000000000000e+00,1.120000000000000000e+02
1.000000000000000000e+00,1.000000000000000000e+00,1.000000000000000000e+00,6.300000000000000000e+01,1.446000000000000000e+03,3.982939720153808594e-01,2.054458141326904297e+00,6.533899015347514050e-01,0.000000000000000000e+00,1.120000000000000000e+02
0.000000000000000000e+00,1.000000000000000000e+00,0.000000000000000000e+00,6.500000000000000000e+01,1.511000000000000000e+03,3.503639698028564453e-01,1.693161010742187500e+00,3.468781413075663900e-01,0.000000000000000000e+00,1.120000000000000000e+02
1.000000000000000000e+00,1.000000000000000000e+00,1.000000000000000000e+00,6.100000000000000000e+01,1.572000000000000000e+03,3.160891532897949219e-01,1.640645980834960938e+00,3.376002490032928849e-01,0.000000000000000000e+00,1.120000000000000000e+02
1.000000000000000000e+00,1.000000000000000000e+00,1.000000000000000000e+00,6.600000000000000000e+01,1.638000000000000000e+03,2.981290817260742188e-01,1.928941011428833008e+00,6.329888577612927669e-01,0.000000000000000000e+00,1.120000000000000000e+02
0.000000000000000000e+00,1.000000000000000000e+00,0.000000000000000000e+00,6.200000000000000000e+01,1.700000000000000000e+03,3.080320358276367188e-01,1.963961839675903320e+00,6.636419126927340928e-01,0.000000000000000000e+00,1.120000000000000000e+02
0.000000000000000000e+00,1.000000000000000000e+00,0.000000000000000000e+00,6.500000000000000000e+01,1.765000000000000000e+03,3.372490406036376953e-01,1.964334011077880859e+00,6.446932656925985494e-01,0.000000000000000000e+00,1.120000000000000000e+02
0.000000000000000000e+00,1.000000000000000000e+00,0.000000000000000000e+00,6.400000000000000000e+01,1.829000000000000000e+03,3.643510341644287109e-01,1.892855882644653320e+00,5.377781627246822627e-01,0.000000000000000000e+00,1.120000000000000000e+02
0.000000000000000000e+00,1.000000000000000000e+00,0.000000000000000000e+00,6.300000000000000000e+01,1.892000000000000000e+03,2.913780212402343750e-01,1.774340152740478516e+00,4.955804345659028942e-01,0.000000000000000000e+00,1.120000000000000000e+02
1.000000000000000000e+00,1.000000000000000000e+00,1.000000000000000000e+00,6.800000000000000000e+01,1.960000000000000000e+03,3.148522377014160156e-01,2.008849859237670898e+00,7.042857759200824574e-01,0.000000000000000000e+00,1.120000000000000000e+02
1.000000000000000000e+00,1.000000000000000000e+00,1.000000000000000000e+00,6.000000000000000000e+01,2.020000000000000000e+03,3.052189350128173828e-01,1.870835065841674805e+00,5.753060301460217740e-01,0.000000000000000000e+00,1.120000000000000000e+02
0.000000000000000000e+00,1.000000000000000000e+00,0.000000000000000000e+00,6.500000000000000000e+01,2.085000000000000000e+03,3.476359844207763672e-01,1.843429088592529297e+00,5.018936955800578081e-01,0.000000000000000000e+00,1.120000000000000000e+02
1.000000000000000000e+00,1.000000000000000000e+00,1.000000000000000000e+00,6.600000000000000000e+01,2.151000000000000000e+03,3.073790073394775391e-01,1.684551954269409180e+00,3.866549998741179439e-01,0.000000000000000000e+00,1.120000000000000000e+02
0.000000000000000000e+00,1.000000000000000000e+00,0.000000000000000000e+00,6.400000000000000000e+01,2.215000000000000000e+03,4.424159526824951172e-01,1.838976144790649414e+00,4.093057676350412288e-01,0.000000000000000000e+00,1.120000000000000000e+02
0.000000000000000000e+00,1.000000000000000000e+00,0.000000000000000000e+00,6.200000000000000000e+01,2.277000000000000000e+03,4.231750965118408203e-01,1.953049898147583008e+00,5.456079369890374231e-01,0.000000000000000000e+00,1.120000000000000000e+02
0.000000000000000000e+00,0.000000000000000000e+00,1.000000000000000000e+00,4.100000000000000000e+01,2.318000000000000000e+03,3.182120323181152344e-01,1.637453794479370117e+00,3.333620637507607731e-01,1.000000000000000000e+00,1.110000000000000000e+02
0.000000000000000000e+00,1.000000000000000000e+00,0.000000000000000000e+00,6.100000000000000000e+01,2.379000000000000000e+03,2.662789821624755859e-01,1.694717884063720703e+00,4.280419331126241178e-01,0.000000000000000000e+00,1.110000000000000000e+02
1.000000000000000000e+00,1.000000000000000000e+00,1.000000000000000000e+00,5.300000000000000000e+01,2.432000000000000000e+03,2.929978370666503906e-01,1.990123987197875977e+00,7.178999948166199241e-01,0.000000000000000000e+00,1.110000000000000000e+02
0.000000000000000000e+00,1.000000000000000000e+00,0.000000000000000000e+00,6.300000000000000000e+01,2.495000000000000000e+03,2.820770740509033203e-01,1.536082983016967773e+00,2.545607682562521790e-01,0.000000000000000000e+00,1.110000000000000000e+02
1.000000000000000000e+00,1.000000000000000000e+00,1.000000000000000000e+00,5.500000000000000000e+01,2.550000000000000000e+03,3.638560771942138672e-01,1.964756965637207031e+00,6.023614304633253536e-01,0.000000000000000000e+00,1.110000000000000000e+02
1.000000000000000000e+00,1.000000000000000000e+00,1.000000000000000000e+00,6.200000000000000000e+01,2.612000000000000000e+03,3.602168560028076172e-01,1.896317005157470703e+00,5.487531020485536537e-01,0.000000000000000000e+00,1.110000000000000000e+02
1.000000000000000000e+00,1.000000000000000000e+00,1.000000000000000000e+00,6.200000000000000000e+01,2.674000000000000000e+03,4.282920360565185547e-01,1.975913047790527344e+00,5.580852443357933179e-01,0.000000000000000000e+00,1.110000000000000000e+02
0.000000000000000000e+00,1.000000000000000000e+00,0.000000000000000000e+00,6.300000000000000000e+01,2.737000000000000000e+03,3.146491050720214844e-01,1.647572040557861328e+00,3.392697973106392761e-01,0.000000000000000000e+00,1.110000000000000000e+02
1.000000000000000000e+00,1.000000000000000000e+00,1.000000000000000000e+00,5.900000000000000000e+01,2.796000000000000000e+03,3.327219486236572266e-01,1.933978080749511719e+00,6.063850510055344145e-01,0.000000000000000000e+00,1.110000000000000000e+02
0.000000000000000000e+00,1.000000000000000000e+00,0.000000000000000000e+00,6.100000000000000000e+01,2.857000000000000000e+03,3.014280796051025391e-01,1.806955099105834961e+00,5.135068504844362280e-01,0.000000000000000000e+00,1.110000000000000000e+02
1.000000000000000000e+00,1.000000000000000000e+00,1.000000000000000000e+00,5.600000000000000000e+01,2.913000000000000000e+03,2.935240268707275391e-01,1.802423954010009766e+00,5.159985655473146027e-01,0.000000000000000000e+00,1.110000000000000000e+02
1.000000000000000000e+00,1.000000000000000000e+00,1.000000000000000000e+00,6.200000000000000000e+01,2.975000000000000000e+03,3.448951244354248047e-01,1.790331125259399414e+00,4.553303110661317543e-01,0.000000000000000000e+00,1.110000000000000000e+02
1.000000000000000000e+00,1.000000000000000000e+00,1.000000000000000000e+00,6.400000000000000000e+01,3.039000000000000000e+03,3.276069164276123047e-01,1.938920974731445312e+00,6.119123487890604229e-01,0.000000000000000000e+00,1.110000000000000000e+02
1.000000000000000000e+00,1.000000000000000000e+00,1.000000000000000000e+00,6.300000000000000000e+01,3.102000000000000000e+03,4.084410667419433594e-01,2.071711063385009766e+00,6.823103795750484757e-01,0.000000000000000000e+00,1.110000000000000000e+02
0.000000000000000000e+00,1.000000000000000000e+00,0.000000000000000000e+00,6.700000000000000000e+01,3.169000000000000000e+03,3.611531257629394531e-01,1.747785091400146484e+00,3.818237284980348090e-01,0.000000000000000000e+00,1.110000000000000000e+02
1.000000000000000000e+00,1.000000000000000000e+00,1.000000000000000000e+00,6.000000000000000000e+01,3.229000000000000000e+03,2.498121261596679688e-01,1.563845872879028320e+00,3.291192821943665914e-01,0.000000000000000000e+00,1.110000000000000000e+02
1.000000000000000000e+00,1.000000000000000000e+00,1.000000000000000000e+00,6.500000000000000000e+01,3.294000000000000000e+03,2.732307910919189453e-01,1.736522197723388672e+00,4.822247376460402357e-01,0.000000000000000000e+00,1.110000000000000000e+02
0.000000000000000000e+00,1.000000000000000000e+00,0.000000000000000000e+00,6.400000000000000000e+01,3.358000000000000000e+03,2.632520198822021484e-01,1.819954872131347656e+00,5.521471884937572128e-01,0.000000000000000000e+00,1.110000000000000000e+02
0.000000000000000000e+00,1.000000000000000000e+00,0.000000000000000000e+00,6.200000000000000000e+01,3.420000000000000000e+03,2.644131183624267578e-01,1.607628107070922852e+00,3.434165636786606912e-01,0.000000000000000000e+00,1.110000000000000000e+02
1.000000000000000000e+00,1.000000000000000000e+00,1.000000000000000000e+00,6.300000000000000000e+01,3.483000000000000000e+03,2.987320423126220703e-01,1.991174936294555664e+00,7.009455083795693708e-01,0.000000000000000000e+00,1.110000000000000000e+02
0.000000000000000000e+00,1.000000000000000000e+00,0.000000000000000000e+00,5.600000000000000000e+01,3.539000000000000000e+03,2.754731178283691406e-01,1.615271091461181641e+00,3.499726981849570762e-01,0.000000000000000000e+00,1.110000000000000000e+02
0.000000000000000000e+00,1.000000000000000000e+00,0.000000000000000000e+00,6.000000000000000000e+01,3.599000000000000000e+03,2.738900184631347656e-01,1.577291965484619141e+00,3.106934306682176405e-01,0.000000000000000000e+00,1.110000000000000000e+02
0.000000000000000000e+00,1.000000000000000000e+00,0.000000000000000000e+00,6.200000000000000000e+01,3.661000000000000000e+03,2.565720081329345703e-01,1.783501148223876953e+00,5.439918884093341012e-01,0.000000000000000000e+00,1.110000000000000000e+02
1.000000000000000000e+00,1.000000000000000000e+00,1.000000000000000000e+00,6.000000000000000000e+01,3.721000000000000000e+03,2.593150138854980469e-01,1.593144893646240234e+00,3.540853811921363947e-01,0.000000000000000000e+00,1.110000000000000000e+02
0.000000000000000000e+00,1.000000000000000000e+00,0.000000000000000000e+00,6.200000000000000000e+01,3.783000000000000000e+03,3.873739242553710938e-01,1.899724006652832031e+00,5.203530003158223227e-01,0.000000000000000000e+00,1.110000000000000000e+02
1.000000000000000000e+00,1.000000000000000000e+00,1.000000000000000000e+00,6.400000000000000000e+01,3.847000000000000000e+03,3.241059780120849609e-01,1.890985012054443359e+00,5.780106845322285913e-01,0.000000000000000000e+00,1.110000000000000000e+02
0.000000000000000000e+00,1.000000000000000000e+00,0.000000000000000000e+00,5.600000000000000000e+01,3.903000000000000000e+03,2.682280540466308594e-01,1.778225898742675781e+00,5.230488089453517730e-01,0.000000000000000000e+00,1.110000000000000000e+02
0.000000000000000000e+00,1.000000000000000000e+00,0.000000000000000000e+00,5.600000000000000000e+01,3.959000000000000000e+03,2.508811950683593750e-01,1.867586135864257812e+00,6.239203115848588332e-01,0.000000000000000000e+00,1.110000000000000000e+02
1.000000000000000000e+00,1.000000000000000000e+00,1.000000000000000000e+00,6.600000000000000000e+01,4.025000000000000000e+03,2.392830848693847656e-01,1.937509059906005859e+00,7.114026274607881950e-01,0.000000000000000000e+00,1.110000000000000000e+02
0.000000000000000000e+00,1.000000000000000000e+00,0.000000000000000000e+00,6.300000000000000000e+01,4.088000000000000000e+03,3.070230484008789062e-01,1.914089918136596680e+00,6.256707408655335367e-01,0.000000000000000000e+00,1.110000000000000000e+02
0.000000000000000000e+00,1.000000000000000000e+00,0.000000000000000000e+00,6.400000000000000000e+01,4.152000000000000000e+03,3.740489482879638672e-01,1.958183050155639648e+00,6.006091786450358239e-01,0.000000000000000000e+00,1.110000000000000000e+02
1.000000000000000000e+00,1.000000000000000000e+00,1.000000000000000000e+00,5.900000000000000000e+01,4.211000000000000000e+03,3.027391433715820312e-01,1.856219053268432617e+00,5.565844157246243595e-01,0.000000000000000000e+00,1.110000000000000000e+02
0.000000000000000000e+00,1.000000000000000000e+00,0.000000000000000000e+00,6.300000000000000000e+01,4.274000000000000000e+03,2.648539543151855469e-01,1.515200138092041016e+00,2.555578130058564490e-01,0.000000000000000000e+00,1.110000000000000000e+02
0.000000000000000000e+00,1.000000000000000000e+00,0.000000000000000000e+00,5.500000000000000000e+01,4.329000000000000000e+03,3.012139797210693359e-01,1.885816812515258789e+00,5.913573553487883050e-01,0.000000000000000000e+00,1.110000000000000000e+02
0.000000000000000000e+00,0.000000000000000000e+00,1.000000000000000000e+00,4.000000000000000000e+01,4.369000000000000000e+03,3.310029506683349609e-01,1.985944032669067383e+00,6.606445655126786942e-01,1.000000000000000000e+00,1.120000000000000000e+02
1.000000000000000000e+00,1.000000000000000000e+00,1.000000000000000000e+00,5.700000000000000000e+01,4.426000000000000000e+03,2.986948490142822266e-01,1.854256153106689453e+00,5.650697820603455268e-01,0.000000000000000000e+00,1.120000000000000000e+02
0.000000000000000000e+00,1.000000000000000000e+00,0.000000000000000000e+00,6.300000000000000000e+01,4.489000000000000000e+03,2.958209514617919922e-01,1.922689914703369141e+00,6.377521817306056606e-01,0.000000000000000000e+00,1.120000000000000000e+02
1.000000000000000000e+00,1.000000000000000000e+00,1.000000000000000000e+00,6.400000000000000000e+01,4.553000000000000000e+03,2.952818870544433594e-01,1.821295976638793945e+00,5.259162963473111851e-01,0.000000000000000000e+00,1.120000000000000000e+02
0.000000000000000000e+00,1.000000000000000000e+00,0.000000000000000000e+00,5.900000000000000000e+01,4.612000000000000000e+03,3.628969192504882812e-01,1.722430944442749023e+00,3.652530376512547750e-01,0.000000000000000000e+00,1.120000000000000000e+02
0.000000000000000000e+00,1.000000000000000000e+00,0.000000000000000000e+00,5.600000000000000000e+01,4.668000000000000000e+03,2.704298496246337891e-01,1.741317987442016602e+00,4.898395048887574377e-01,0.000000000000000000e+00,1.120000000000000000e+02
0.000000000000000000e+00,1.000000000000000000e+00,0.000000000000000000e+00,5.600000000000000000e+01,4.724000000000000000e+03,2.864050865173339844e-01,1.756118059158325195e+00,4.793618727027325610e-01,0.000000000000000000e+00,1.120000000000000000e+02
0.000000000000000000e+00,1.000000000000000000e+00,0.000000000000000000e+00,5.600000000000000000e+01,4.780000000000000000e+03,2.344639301300048828e-01,1.819548130035400391e+00,5.988491653159002670e-01,0.000000000000000000e+00,1.120000000000000000e+02
1.000000000000000000e+00,1.000000000000000000e+00,1.000000000000000000e+00,6.200000000000000000e+01,4.842000000000000000e+03,3.142118453979492188e-01,1.672299861907958984e+00,3.547978598987407972e-01,0.000000000000000000e+00,1.120000000000000000e+02
0.000000000000000000e+00,1.000000000000000000e+00,0.000000000000000000e+00,6.300000000000000000e+01,4.905000000000000000e+03,2.725589275360107422e-01,1.748393058776855469e+00,4.864489921333386424e-01,0.000000000000000000e+00,1.120000000000000000e+02
0.000000000000000000e+00,1.000000000000000000e+00,0.000000000000000000e+00,6.000000000000000000e+01,4.965000000000000000e+03,2.165620326995849609e-01,1.569878101348876953e+00,3.565197319516787422e-01,0.000000000000000000e+00,1.120000000000000000e+02
1.000000000000000000e+00,1.000000000000000000e+00,1.000000000000000000e+00,6.400000000000000000e+01,5.029000000000000000e+03,3.061058521270751953e-01,1.939060926437377930e+00,6.453588558014923260e-01,0.000000000000000000e+00,1.120000000000000000e+02
0.000000000000000000e+00,1.000000000000000000e+00,0.000000000000000000e+00,5.900000000000000000e+01,5.088000000000000000e+03,2.687320709228515625e-01,1.814337015151977539e+00,5.598019751133878064e-01,0.000000000000000000e+00,1.120000000000000000e+02
0.000000000000000000e+00,1.000000000000000000e+00,0.000000000000000000e+00,5.900000000000000000e+01,5.147000000000000000e+03,2.541329860687255859e-01,1.715367794036865234e+00,4.753273878293918786e-01,0.000000000000000000e+00,1.120000000000000000e+02
1.000000000000000000e+00,1.000000000000000000e+00,1.000000000000000000e+00,6.300000000000000000e+01,5.210000000000000000e+03,3.034830093383789062e-01,2.008517980575561523e+00,7.169868351194015332e-01,0.000000000000000000e+00,1.120000000000000000e+02
1.000000000000000000e+00,1.000000000000000000e+00,1.000000000000000000e+00,6.400000000000000000e+01,5.274000000000000000e+03,2.639839649200439453e-01,2.006983041763305664e+00,7.407048117769825524e-01,0.000000000000000000e+00,1.120000000000000000e+02
0.000000000000000000e+00,1.000000000000000000e+00,0.000000000000000000e+00,5.700000000000000000e+01,5.331000000000000000e+03,2.640750408172607422e-01,1.794106006622314453e+00,5.351123595482062401e-01,0.000000000000000000e+00,1.120000000000000000e+02
1.000000000000000000e+00,1.000000000000000000e+00,1.000000000000000000e+00,6.000000000000000000e+01,5.391000000000000000e+03,2.740240097045898438e-01,1.782815933227539062e+00,5.180053958000805370e-01,0.000000000000000000e+00,1.120000000000000000e+02
0.000000000000000000e+00,1.000000000000000000e+00,0.000000000000000000e+00,6.500000000000000000e+01,5.456000000000000000e+03,3.947651386260986328e-01,1.968793153762817383e+00,5.698530256426149743e-01,0.000000000000000000e+00,1.120000000000000000e+02
1.000000000000000000e+00,1.000000000000000000e+00,1.000000000000000000e+00,6.100000000000000000e+01,5.517000000000000000e+03,3.131248950958251953e-01,1.602804899215698242e+00,2.899933955496438731e-01,0.000000000000000000e+00,1.120000000000000000e+02
1.000000000000000000e+00,1.000000000000000000e+00,1.000000000000000000e+00,6.200000000000000000e+01,5.579000000000000000e+03,3.813130855560302734e-01,1.907025814056396484e+00,5.301513570805449493e-01,0.000000000000000000e+00,1.120000000000000000e+02
0.000000000000000000e+00,1.000000000000000000e+00,0.000000000000000000e+00,6.200000000000000000e+01,5.641000000000000000e+03,3.054461479187011719e-01,1.805365085601806641e+00,5.189028915412928766e-01,0.000000000000000000e+00,1.120000000000000000e+02
0.000000000000000000e+00,1.000000000000000000e+00,0.000000000000000000e+00,6.300000000000000000e+01,5.704000000000000000e+03,2.756419181823730469e-01,1.594080924987792969e+00,3.299207183628690143e-01,0.000000000000000000e+00,1.120000000000000000e+02
0.000000000000000000e+00,1.000000000000000000e+00,0.000000000000000000e+00,5.900000000000000000e+01,5.763000000000000000e+03,2.483530044555664062e-01,1.564563989639282227e+00,3.278714161961645557e-01,0.000000000000000000e+00,1.120000000000000000e+02
1.000000000000000000e+00,1.000000000000000000e+00,1.000000000000000000e+00,6.000000000000000000e+01,5.823000000000000000e+03,2.868399620056152344e-01,1.916772842407226562e+00,6.443856685263329442e-01,0.000000000000000000e+00,1.120000000000000000e+02
1.000000000000000000e+00,1.000000000000000000e+00,1.000000000000000000e+00,6.200000000000000000e+01,5.885000000000000000e+03,2.581310272216796875e-01,1.757959127426147461e+00,5.192031037397800697e-01,0.000000000000000000e+00,1.120000000000000000e+02
1.000000000000000000e+00,1.000000000000000000e+00,1.000000000000000000e+00,6.300000000000000000e+01,5.948000000000000000e+03,2.135879993438720703e-01,1.729042053222656250e+00,5.149880079694779678e-01,0.000000000000000000e+00,1.120000000000000000e+02
1.000000000000000000e+00,1.000000000000000000e+00,1.000000000000000000e+00,6.000000000000000000e+01,6.008000000000000000e+03,2.609579563140869141e-01,1.847173929214477539e+00,6.112115059580915943e-01,0.000000000000000000e+00,1.120000000000000000e+02
1.000000000000000000e+00,1.000000000000000000e+00,1.000000000000000000e+00,5.500000000000000000e+01,6.063000000000000000e+03,2.609999179840087891e-01,1.575208187103271484e+00,3.376938384952320460e-01,0.000000000000000000e+00,1.120000000000000000e+02
0.000000000000000000e+00,1.000000000000000000e+00,0.000000000000000000e+00,6.300000000000000000e+01,6.126000000000000000e+03,3.118319511413574219e-01,1.898576974868774414e+00,5.860820400509566541e-01,0.000000000000000000e+00,1.120000000000000000e+02
0.000000000000000000e+00,0.000000000000000000e+00,1.000000000000000000e+00,3.700000000000000000e+01,6.163000000000000000e+03,3.057868480682373047e-01,2.014353036880493164e+00,7.170704196962449650e-01,1.000000000000000000e+00,1.110000000000000000e+02
1.000000000000000000e+00,1.000000000000000000e+00,1.000000000000000000e+00,6.400000000000000000e+01,6.227000000000000000e+03,3.289880752563476562e-01,1.618566036224365234e+00,2.861418115066986512e-01,0.000000000000000000e+00,1.110000000000000000e+02
1.000000000000000000e+00,1.000000000000000000e+00,1.000000000000000000e+00,6.000000000000000000e+01,6.287000000000000000e+03,3.207039833068847656e-01,1.886462926864624023e+00,5.723763571548341478e-01,0.000000000000000000e+00,1.110000000000000000e+02
0.000000000000000000e+00,1.000000000000000000e+00,0.000000000000000000e+00,6.400000000000000000e+01,6.351000000000000000e+03,2.723720073699951172e-01,1.947599887847900391e+00,6.865941955444107014e-01,0.000000000000000000e+00,1.110000000000000000e+02
0.000000000000000000e+00,1.000000000000000000e+00,0.000000000000000000e+00,5.900000000000000000e+01,6.410000000000000000e+03,2.395060062408447266e-01,1.603564023971557617e+00,3.738379750860456041e-01,0.000000000000000000e+00,1.110000000000000000e+02
0.000000000000000000e+00,1.000000000000000000e+00,0.000000000000000000e+00,5.700000000000000000e+01,6.467000000000000000e+03,2.984189987182617188e-01,1.811500072479248047e+00,5.185840343024976651e-01,0.000000000000000000e+00,1.110000000000000000e+02
1.000000000000000000e+00,1.000000000000000000e+00,1.000000000000000000e+00,6.100000000000000000e+01,6.528000000000000000e+03,2.748210430145263672e-01,1.948740005493164062e+00,6.835795256613172999e-01,0.000000000000000000e+00,1.110000000000000000e+02
1.000000000000000000e+00,1.000000000000000000e+00,1.000000000000000000e+00,6.400000000000000000e+01,6.592000000000000000e+03,3.175601959228515625e-01,2.050215005874633789e+00,7.341067029360572871e-01,0.000000000000000000e+00,1.110000000000000000e+02
0.000000000000000000e+00,1.000000000000000000e+00,0.000000000000000000e+00,6.200000000000000000e+01,6.654000000000000000e+03,2.530457973480224609e-01,1.623387098312377930e+00,3.746274374975752108e-01,0.000000000000000000e+00,1.110000000000000000e+02
1.000000000000000000e+00,1.000000000000000000e+00,1.000000000000000000e+00,5.600000000000000000e+01,6.710000000000000000e+03,2.723219394683837891e-01,1.837424039840698242e+00,5.785657888948800842e-01,0.000000000000000000e+00,1.110000000000000000e+02
0.000000000000000000e+00,1.000000000000000000e+00,0.000000000000000000e+00,5.700000000000000000e+01,6.767000000000000000e+03,2.701609134674072266e-01,1.655071020126342773e+00,4.005830157867837360e-01,0.000000000000000000e+00,1.110000000000000000e+02
0.000000000000000000e+00,1.000000000000000000e+00,0.000000000000000000e+00,5.700000000000000000e+01,6.824000000000000000e+03,2.856180667877197266e-01,1.547367811203002930e+00,2.648030612091281655e-01,0.000000000000000000e+00,1.110000000000000000e+02
1.000000000000000000e+00,1.000000000000000000e+00,1.000000000000000000e+00,6.000000000000000000e+01,6.884000000000000000e+03,3.703010082244873047e-01,1.618964910507202148e+00,2.671675684302416975e-01,0.000000000000000000e+00,1.110000000000000000e+02
1.000000000000000000e+00,1.000000000000000000e+00,1.000000000000000000e+00,6.400000000000000000e+01,6.948000000000000000e+03,3.940279483795166016e-01,2.085086107254028320e+00,7.018480037961334350e-01,0.000000000000000000e+00,1.110000000000000000e+02
1.000000000000000000e+00,1.000000000000000000e+00,1.000000000000000000e+00,6.600000000000000000e+01,7.014000000000000000e+03,3.208060264587402344e-01,1.831427097320556641e+00,5.165609690174680635e-01,0.000000000000000000e+00,1.110000000000000000e+02
1.000000000000000000e+00,1.000000000000000000e+00,1.000000000000000000e+00,5.600000000000000000e+01,7.070000000000000000e+03,2.755129337310791016e-01,1.988952875137329102e+00,7.223596906075635538e-01,0.000000000000000000e+00,1.110000000000000000e+02
1.000000000000000000e+00,1.000000000000000000e+00,1.000000000000000000e+00,6.100000000000000000e+01,7.131000000000000000e+03,2.572879791259765625e-01,1.602200984954833984e+00,3.583624222633731704e-01,0.000000000000000000e+00,1.110000000000000000e+02
1.000000000000000000e+00,1.000000000000000000e+00,1.000000000000000000e+00,5.700000000000000000e+01,7.188000000000000000e+03,2.791779041290283203e-01,1.975380182266235352e+00,7.000947780267319231e-01,0.000000000000000000e+00,1.110000000000000000e+02
0.000000000000000000e+00,1.000000000000000000e+00,0.000000000000000000e+00,6.100000000000000000e+01,7.249000000000000000e+03,2.790198326110839844e-01,1.723320007324218750e+00,4.404134150414475424e-01,0.000000000000000000e+00,1.110000000000000000e+02
1.000000000000000000e+00,1.000000000000000000e+00,1.000000000000000000e+00,6.400000000000000000e+01,7.313000000000000000e+03,3.494160175323486328e-01,1.984959840774536133e+00,6.419450214663868781e-01,0.000000000000000000e+00,1.110000000000000000e+02
0.000000000000000000e+00,1.000000000000000000e+00,0.000000000000000000e+00,6.100000000000000000e+01,7.374000000000000000e+03,2.690808773040771484e-01,1.643560886383056641e+00,3.857977505220643311e-01,0.000000000000000000e+00,1.110000000000000000e+02
0.000000000000000000e+00,1.000000000000000000e+00,0.000000000000000000e+00,6.100000000000000000e+01,7.435000000000000000e+03,2.502491474151611328e-01,1.785310983657836914e+00,5.377009882687195930e-01,0.000000000000000000e+00,1.110000000000000000e+02
0.000000000000000000e+00,1.000000000000000000e+00,0.000000000000000000e+00,6.400000000000000000e+01,7.499000000000000000e+03,2.620110511779785156e-01,1.674909830093383789e+00,4.127887403972984037e-01,0.000000000000000000e+00,1.110000000000000000e+02
0.000000000000000000e+00,1.000000000000000000e+00,0.000000000000000000e+00,5.900000000000000000e+01,7.558000000000000000e+03,3.333361148834228516e-01,1.600582122802734375e+00,2.799367995973681689e-01,0.000000000000000000e+00,1.110000000000000000e+02
0.000000000000000000e+00,0.000000000000000000e+00,1.000000000000000000e+00,4.200000000000000000e+01,7.600000000000000000e+03,2.693459987640380859e-01,1.937736034393310547e+00,6.842859426212034579e-01,0.000000000000000000e+00,1.110000000000000000e+02
0.000000000000000000e+00,1.000000000000000000e+00,0.000000000000000000e+00,5.700000000000000000e+01,7.657000000000000000e+03,2.804629802703857422e-01,1.565790891647338867e+00,2.838729990053001084e-01,0.000000000000000000e+00,1.110000000000000000e+02
1.000000000000000000e+00,1.000000000000000000e+00,1.000000000000000000e+00,5.600000000000000000e+01,7.713000000000000000e+03,2.687990665435791016e-01,1.633338212966918945e+00,3.668927895907539982e-01,0.000000000000000000e+00,1.110000000000000000e+02
1.000000000000000000e+00,1.000000000000000000e+00,1.000000000000000000e+00,6.200000000000000000e+01,7.775000000000000000e+03,2.765100002288818359e-01,1.913228988647460938e+00,6.468819417828919338e-01,0.000000000000000000e+00,1.110000000000000000e+02
1.000000000000000000e+00,1.000000000000000000e+00,1.000000000000000000e+00,6.000000000000000000e+01,7.835000000000000000e+03,2.846190929412841797e-01,1.706516027450561523e+00,4.370058335416441286e-01,0.000000000000000000e+00,1.110000000000000000e+02
1.000000000000000000e+00,1.000000000000000000e+00,1.000000000000000000e+00,5.700000000000000000e+01,7.892000000000000000e+03,3.030669689178466797e-01,1.667909860610961914e+00,3.717049916005008003e-01,0.000000000000000000e+00,1.110000000000000000e+02
1.000000000000000000e+00,1.000000000000000000e+00,1.000000000000000000e+00,6.400000000000000000e+01,7.956000000000000000e+03,2.705061435699462891e-01,1.622650146484375000e+00,3.610865103231960527e-01,0.000000000000000000e+00,1.110000000000000000e+02
1.000000000000000000e+00,1.000000000000000000e+00,1.000000000000000000e+00,6.000000000000000000e+01,8.016000000000000000e+03,2.428591251373291016e-01,1.589034080505371094e+00,3.668635163079993489e-01,0.000000000000000000e+00,1.110000000000000000e+02
0.000000000000000000e+00,1.000000000000000000e+00,0.000000000000000000e+00,6.200000000000000000e+01,8.078000000000000000e+03,3.288269042968750000e-01,1.826318979263305664e+00,4.931021182822269977e-01,0.000000000000000000e+00,1.110000000000000000e+02
0.000000000000000000e+00,1.000000000000000000e+00,0.000000000000000000e+00,5.900000000000000000e+01,8.137000000000000000e+03,3.042080402374267578e-01,1.560099840164184570e+00,2.701301490591634380e-01,0.000000000000000000e+00,1.110000000000000000e+02
1.000000000000000000e+00,1.000000000000000000e+00,1.000000000000000000e+00,6.200000000000000000e+01,8.199000000000000000e+03,3.386352062225341797e-01,1.899008035659790039e+00,5.688687880534681884e-01,0.000000000000000000e+00,1.110000000000000000e+02
1.000000000000000000e+00,1.000000000000000000e+00,1.000000000000000000e+00,6.000000000000000000e+01,8.259000000000000000e+03,2.837419509887695312e-01,1.688174962997436523e+00,4.073089656465025965e-01,0.000000000000000000e+00,1.110000000000000000e+02
1.000000000000000000e+00,1.000000000000000000e+00,1.000000000000000000e+00,6.400000000000000000e+01,8.323000000000000000e+03,3.351168632507324219e-01,1.745805025100708008e+00,4.198057199029078257e-01,0.000000000000000000e+00,1.110000000000000000e+02
0.000000000000000000e+00,1.000000000000000000e+00,0.000000000000000000e+00,6.100000000000000000e+01,8.384000000000000000e+03,3.194828033447265625e-01,1.784363031387329102e+00,4.708472893407201765e-01,0.000000000000000000e+00,1.110000000000000000e+02
0.000000000000000000e+00,0.000000000000000000e+00,1.000000000000000000e+00,3.700000000000000000e+01,8.421000000000000000e+03,2.172100543975830078e-01,1.793015956878662109e+00,5.804665430927747893e-01,1.000000000000000000e+00,1.120000000000000000e+02
1.000000000000000000e+00,1.000000000000000000e+00,1.000000000000000000e+00,6.100000000000000000e+01,8.482000000000000000e+03,2.759070396423339844e-01,1.968201160430908203e+00,7.152788380250036937e-01,0.000000000000000000e+00,1.120000000000000000e+02
1.000000000000000000e+00,1.000000000000000000e+00,1.000000000000000000e+00,6.400000000000000000e+01,8.546000000000000000e+03,3.736510276794433594e-01,1.853391885757446289e+00,4.856555670936629210e-01,0.000000000000000000e+00,1.120000000000000000e+02
0.000000000000000000e+00,1.000000000000000000e+00,0.000000000000000000e+00,6.100000000000000000e+01,8.607000000000000000e+03,2.988841533660888672e-01,2.012641906738281250e+00,7.148140460895451298e-01,0.000000000000000000e+00,1.120000000000000000e+02
1.000000000000000000e+00,1.000000000000000000e+00,1.000000000000000000e+00,6.000000000000000000e+01,8.667000000000000000e+03,2.438018321990966797e-01,1.776989936828613281e+00,5.586815274876729687e-01,0.000000000000000000e+00,1.120000000000000000e+02
1.000000000000000000e+00,1.000000000000000000e+00,1.000000000000000000e+00,6.300000000000000000e+01,8.730000000000000000e+03,2.665038108825683594e-01,1.907500028610229492e+00,6.495083553898194362e-01,0.000000000000000000e+00,1.120000000000000000e+02
0.000000000000000000e+00,1.000000000000000000e+00,0.000000000000000000e+00,6.600000000000000000e+01,8.796000000000000000e+03,2.679059505462646484e-01,1.989578008651733398e+00,7.223475862339776565e-01,0.000000000000000000e+00,1.120000000000000000e+02
0.000000000000000000e+00,1.000000000000000000e+00,0.000000000000000000e+00,5.700000000000000000e+01,8.853000000000000000e+03,3.056371212005615234e-01,1.913169860839843750e+00,6.191009478634650343e-01,0.000000000000000000e+00,1.120000000000000000e+02
1.000000000000000000e+00,1.000000000000000000e+00,1.000000000000000000e+00,7.100000000000000000e+01,8.924000000000000000e+03,3.047730922698974609e-01,1.946687936782836914e+00,6.491381756547214277e-01,0.000000000000000000e+00,1.120000000000000000e+02
1.000000000000000000e+00,1.000000000000000000e+00,1.000000000000000000e+00,6.300000000000000000e+01,8.987000000000000000e+03,3.360359668731689453e-01,2.065679073333740234e+00,7.315014305477204326e-01,0.000000000000000000e+00,1.120000000000000000e+02
1.000000000000000000e+00,1.000000000000000000e+00,1.000000000000000000e+00,6.500000000000000000e+01,9.052000000000000000e+03,2.702109813690185547e-01,1.507010936737060547e+00,2.557178316833463305e-01,0.000000000000000000e+00,1.120000000000000000e+02
0.000000000000000000e+00,1.000000000000000000e+00,0.000000000000000000e+00,6.200000000000000000e+01,9.114000000000000000e+03,3.046119213104248047e-01,1.832798004150390625e+00,5.382910371385676296e-01,0.000000000000000000e+00,1.120000000000000000e+02
1.000000000000000000e+00,1.000000000000000000e+00,1.000000000000000000e+00,6.200000000000000000e+01,9.176000000000000000e+03,2.982749938964843750e-01,1.706994056701660156e+00,4.121354116784385346e-01,0.000000000000000000e+00,1.120000000000000000e+02
0.000000000000000000e+00,1.000000000000000000e+00,0.000000000000000000e+00,6.100000000000000000e+01,9.237000000000000000e+03,3.143219947814941406e-01,1.755132913589477539e+00,4.506239424737730204e-01,0.000000000000000000e+00,1.120000000000000000e+02
0.000000000000000000e+00,1.000000000000000000e+00,0.000000000000000000e+00,6.400000000000000000e+01,9.301000000000000000e+03,2.474739551544189453e-01,1.751675128936767578e+00,5.023039341267308000e-01,0.000000000000000000e+00,1.120000000000000000e+02
0.000000000000000000e+00,1.000000000000000000e+00,0.000000000000000000e+00,6.700000000000000000e+01,9.368000000000000000e+03,2.728672027587890625e-01,1.657233953475952148e+00,3.930346297668335098e-01,0.000000000000000000e+00,1.120000000000000000e+02
0.000000000000000000e+00,1.000000000000000000e+00,0.000000000000000000e+00,6.600000000000000000e+01,9.434000000000000000e+03,2.589020729064941406e-01,1.745101928710937500e+00,5.047756682120980720e-01,0.000000000000000000e+00,1.120000000000000000e+02
1.000000000000000000e+00,1.000000000000000000e+00,1.000000000000000000e+00,6.300000000000000000e+01,9.497000000000000000e+03,2.979319095611572266e-01,1.877048015594482422e+00,5.817960937920281239e-01,0.000000000000000000e+00,1.120000000000000000e+02
1.000000000000000000e+00,1.000000000000000000e+00,1.000000000000000000e+00,6.200000000000000000e+01,9.559000000000000000e+03,3.829679489135742188e-01,1.927455902099609375e+00,5.260505407033966296e-01,0.000000000000000000e+00,1.120000000000000000e+02
0.000000000000000000e+00,1.000000000000000000e+00,0.000000000000000000e+00,5.900000000000000000e+01,9.618000000000000000e+03,3.141059875488281250e-01,1.736561059951782227e+00,4.294456241246892292e-01,0.000000000000000000e+00,1.120000000000000000e+02
0.000000000000000000e+00,1.000000000000000000e+00,0.000000000000000000e+00,6.100000000000000000e+01,9.679000000000000000e+03,3.057911396026611328e-01,1.868319988250732422e+00,5.810534895517467380e-01,0.000000000000000000e+00,1.120000000000000000e+02
1.000000000000000000e+00,1.000000000000000000e+00,1.000000000000000000e+00,6.300000000000000000e+01,9.742000000000000000e+03,3.302409648895263672e-01,2.018273115158081055e+00,6.992564270609796795e-01,0.000000000000000000e+00,1.120000000000000000e+02
1.000000000000000000e+00,1.000000000000000000e+00,1.000000000000000000e+00,6.000000000000000000e+01,9.802000000000000000e+03,2.796130180358886719e-01,2.032387018203735352e+00,7.483218966095147584e-01,0.000000000000000000e+00,1.120000000000000000e+02
0.000000000000000000e+00,1.000000000000000000e+00,0.000000000000000000e+00,6.600000000000000000e+01,9.868000000000000000e+03,2.817587852478027344e-01,1.609745025634765625e+00,3.252675244204309979e-01,0.000000000000000000e+00,1.120000000000000000e+02
1.000000000000000000e+00,1.000000000000000000e+00,1.000000000000000000e+00,6.700000000000000000e+01,9.935000000000000000e+03,2.928249835968017578e-01,1.905992984771728516e+00,6.309745633480943194e-01,0.000000000000000000e+00,1.120000000000000000e+02
1.000000000000000000e+00,1.000000000000000000e+00,1.000000000000000000e+00,6.300000000000000000e+01,9.998000000000000000e+03,2.638471126556396484e-01,1.816491127014160156e+00,5.642891334341676446e-01,0.000000000000000000e+00,1.120000000000000000e+02
1.000000000000000000e+00,1.000000000000000000e+00,1.000000000000000000e+00,6.200000000000000000e+01,1.006000000000000000e+04,2.492320537567138672e-01,1.868893861770629883e+00,6.331448662929408666e-01,0.000000000000000000e+00,1.120000000000000000e+02
0.000000000000000000e+00,1.000000000000000000e+00,0.000000000000000000e+00,6.700000000000000000e+01,1.012700000000000000e+04,2.779541015625000000e-01,1.669872999191284180e+00,3.867035084549450552e-01,0.000000000000000000e+00,1.120000000000000000e+02
0.000000000000000000e+00,1.000000000000000000e+00,0.000000000000000000e+00,6.300000000000000000e+01,1.019000000000000000e+04,3.153159618377685547e-01,1.619775056838989258e+00,3.066192446601219146e-01,0.000000000000000000e+00,1.120000000000000000e+02
1.000000000000000000e+00,1.000000000000000000e+00,1.000000000000000000e+00,6.500000000000000000e+01,1.025500000000000000e+04,3.697118759155273438e-01,1.974005937576293945e+00,6.136778188036282611e-01,0.000000000000000000e+00,1.120000000000000000e+02
1.000000000000000000e+00,1.000000000000000000e+00,1.000000000000000000e+00,6.200000000000000000e+01,1.031700000000000000e+04,2.511229515075683594e-01,1.768425941467285156e+00,5.322172604997458256e-01,0.000000000000000000e+00,1.120000000000000000e+02
1.000000000000000000e+00,1.000000000000000000e+00,1.000000000000000000e+00,6.400000000000000000e+01,1.038100000000000000e+04,2.718610763549804688e-01,1.776149034500122070e+00,5.085186192599229216e-01,0.000000000000000000e+00,1.120000000000000000e+02
1.000000000000000000e+00,1.000000000000000000e+00,1.000000000000000000e+00,6.000000000000000000e+01,1.044100000000000000e+04,3.039548397064208984e-01,1.776268005371093750e+00,4.848535198184039663e-01,0.000000000000000000e+00,1.120000000000000000e+02
1.000000000000000000e+00,0.000000000000000000e+00,0.000000000000000000e+00,3.300000000000000000e+01,1.047400000000000000e+04,2.799777984619140625e-01,1.927989959716796875e+00,6.460692022251387501e-01,1.000000000000000000e+00,1.110000000000000000e+02
1.000000000000000000e+00,1.000000000000000000e+00,1.000000000000000000e+00,5.500000000000000000e+01,1.052900000000000000e+04,2.912681102752685547e-01,1.731442213058471680e+00,4.611043874290430278e-01,0.000000000000000000e+00,1.110000000000000000e+02
1.000000000000000000e+00,1.000000000000000000e+00,1.000000000000000000e+00,6.400000000000000000e+01,1.059300000000000000e+04,3.581190109252929688e-01,1.745045900344848633e+00,4.063005372142919902e-01,0.000000000000000000e+00,1.110000000000000000e+02
0.000000000000000000e+00,1.000000000000000000e+00,0.000000000000000000e+00,6.000000000000000000e+01,1.065300000000000000e+04,3.132250308990478516e-01,1.577762126922607422e+00,2.673017174657910666e-01,0.000000000000000000e+00,1.110000000000000000e+02
1.000000000000000000e+00,1.000000000000000000e+00,1.000000000000000000e+00,6.500000000000000000e+01,1.071800000000000000e+04,2.898919582366943359e-01,1.904608964920043945e+00,6.219043452389236837e-01,0.000000000000000000e+00,1.110000000000000000e+02
1.000000000000000000e+00,1.000000000000000000e+00,1.000000000000000000e+00,6.100000000000000000e+01,1.077900000000000000e+04,2.990667819976806641e-01,1.885682106018066406e+00,5.910259516424303250e-01,0.000000000000000000e+00,1.110000000000000000e+02
0.000000000000000000e+00,1.000000000000000000e+00,0.000000000000000000e+00,5.600000000000000000e+01,1.083500000000000000e+04,2.957389354705810547e-01,1.755398988723754883e+00,4.632718708370458516e-01,0.000000000000000000e+00,1.110000000000000000e+02
1.000000000000000000e+00,1.000000000000000000e+00,1.000000000000000000e+00,6.700000000000000000e+01,1.090200000000000000e+04,3.857929706573486328e-01,1.728195905685424805e+00,3.583336939152413914e-01,0.000000000000000000e+00,1.110000000000000000e+02
1.000000000000000000e+00,1.000000000000000000e+00,1.000000000000000000e+00,6.400000000000000000e+01,1.096600000000000000e+04,3.562290668487548828e-01,1.874042987823486328e+00,5.322575757601086810e-01,0.000000000000000000e+00,1.110000000000000000e+02
1.000000000000000000e+00,1.000000000000000000e+00,1.000000000000000000e+00,6.800000000000000000e+01,1.103400000000000000e+04,3.162460327148437500e-01,1.890262126922607422e+00,5.725485393391784861e-01,0.000000000000000000e+00,1.110000000000000000e+02
0.000000000000000000e+00,1.000000000000000000e+00,0.000000000000000000e+00,6.400000000000000000e+01,1.109800000000000000e+04,3.729798793792724609e-01,1.678539991378784180e+00,3.180692514088158118e-01,0.000000000000000000e+00,1.110000000000000000e+02
0.000000000000000000e+00,1.000000000000000000e+00,0.000000000000000000e+00,6.200000000000000000e+01,1.116000000000000000e+04,4.387049674987792969e-01,2.134777069091796875e+00,7.022277132096710339e-01,0.000000000000000000e+00,1.110000000000000000e+02
1.000000000000000000e+00,1.000000000000000000e+00,1.000000000000000000e+00,6.400000000000000000e+01,1.122400000000000000e+04,2.880868911743164062e-01,1.963483095169067383e+00,6.824759681088582441e-01,0.000000000000000000e+00,1.110000000000000000e+02
1.000000000000000000e+00,1.000000000000000000e+00,1.000000000000000000e+00,6.600000000000000000e+01,1.129000000000000000e+04,2.773649692535400391e-01,1.697275876998901367e+00,4.137219569867147118e-01,0.000000000000000000e+00,1.110000000000000000e+02
1.000000000000000000e+00,1.000000000000000000e+00,1.000000000000000000e+00,6.200000000000000000e+01,1.135200000000000000e+04,4.904601573944091797e-01,1.942168951034545898e+00,4.725696040537681886e-01,0.000000000000000000e+00,1.110000000000000000e+02
0.000000000000000000e+00,1.000000000000000000e+00,0.000000000000000000e+00,6.500000000000000000e+01,1.141700000000000000e+04,2.875180244445800781e-01,2.018672943115234375e+00,7.410591963762364065e-01,0.000000000000000000e+00,1.110000000000000000e+02
1.000000000000000000e+00,1.000000000000000000e+00,1.000000000000000000e+00,6.100000000000000000e+01,1.147800000000000000e+04,2.749300003051757812e-01,1.909084081649780273e+00,6.502944847446836540e-01,0.000000000000000000e+00,1.110000000000000000e+02
1.000000000000000000e+00,1.000000000000000000e+00,1.000000000000000000e+00,6.700000000000000000e+01,1.154500000000000000e+04,2.880010604858398438e-01,1.533437013626098633e+00,2.509055306242495287e-01,0.000000000000000000e+00,1.110000000000000000e+02
0.000000000000000000e+00,1.000000000000000000e+00,0.000000000000000000e+00,6.200000000000000000e+01,1.160700000000000000e+04,3.270678520202636719e-01,1.675861835479736328e+00,3.599979682084682442e-01,0.000000000000000000e+00,1.110000000000000000e+02
1.000000000000000000e+00,1.000000000000000000e+00,1.000000000000000000e+00,6.600000000000000000e+01,1.167300000000000000e+04,2.824330329895019531e-01,1.612895965576171875e+00,3.396390443284079685e-01,0.000000000000000000e+00,1.110000000000000000e+02
0.000000000000000000e+00,1.000000000000000000e+00,0.000000000000000000e+00,6.400000000000000000e+01,1.173700000000000000e+04,3.029391765594482422e-01,2.043004035949707031e+00,7.489775150273429993e-01,0.000000000000000000e+00,1.110000000000000000e+02
1.000000000000000000e+00,1.000000000000000000e+00,1.000000000000000000e+00,7.000000000000000000e+01,1.180700000000000000e+04,2.596609592437744141e-01,1.997497081756591797e+00,7.465212454393396202e-01,0.000000000000000000e+00,1.110000000000000000e+02
0.000000000000000000e+00,1.000000000000000000e+00,0.000000000000000000e+00,7.000000000000000000e+01,1.187700000000000000e+04,2.693240642547607422e-01,1.846726894378662109e+00,5.934981726120335255e-01,0.000000000000000000e+00,1.110000000000000000e+02
1.000000000000000000e+00,1.000000000000000000e+00,1.000000000000000000e+00,5.600000000000000000e+01,1.193300000000000000e+04,2.388699054718017578e-01,1.636267900466918945e+00,4.120098698184714858e-01,0.000000000000000000e+00,1.110000000000000000e+02
1.000000000000000000e+00,1.000000000000000000e+00,1.000000000000000000e+00,6.400000000000000000e+01,1.199700000000000000e+04,2.585217952728271484e-01,1.821576118469238281e+00,5.848426964961771501e-01,0.000000000000000000e+00,1.110000000000000000e+02
0.000000000000000000e+00,1.000000000000000000e+00,0.000000000000000000e+00,6.200000000000000000e+01,1.205900000000000000e+04,2.901611328125000000e-01,2.007278919219970703e+00,7.253557547497719860e-01,0.000000000000000000e+00,1.110000000000000000e+02
0.000000000000000000e+00,1.000000000000000000e+00,0.000000000000000000e+00,6.000000000000000000e+01,1.211900000000000000e+04,3.123600482940673828e-01,1.692591190338134766e+00,3.850180200071028902e-01,0.000000000000000000e+00,1.110000000000000000e+02
1.000000000000000000e+00,1.000000000000000000e+00,1.000000000000000000e+00,6.500000000000000000e+01,1.218400000000000000e+04,2.824418544769287109e-01,1.683399915695190430e+00,4.015159749249107013e-01,0.000000000000000000e+00,1.110000000000000000e+02
1.000000000000000000e+00,1.000000000000000000e+00,1.000000000000000000e+00,6.600000000000000000e+01,1.225000000000000000e+04,3.101000785827636719e-01,2.012706995010375977e+00,6.975785006157368962e-01,0.000000000000000000e+00,1.110000000000000000e+02
0.000000000000000000e+00,1.000000000000000000e+00,0.000000000000000000e+00,5.900000000000000000e+01,1.230900000000000000e+04,2.570710182189941406e-01,1.803522109985351562e+00,5.679911963938724107e-01,0.000000000000000000e+00,1.110000000000000000e+02
1.000000000000000000e+00,1.000000000000000000e+00,1.000000000000000000e+00,6.100000000000000000e+01,1.237000000000000000e+04,2.495958805084228516e-01,1.575691938400268555e+00,3.273526814377633043e-01,0.000000000000000000e+00,1.110000000000000000e+02
1.000000000000000000e+00,1.000000000000000000e+00,1.000000000000000000e+00,6.200000000000000000e+01,1.243200000000000000e+04,2.849738597869873047e-01,1.816385984420776367e+00,5.435410472989368191e-01,0.000000000000000000e+00,1.110000000000000000e+02
0.000000000000000000e+00,1.000000000000000000e+00,0.000000000000000000e+00,6.100000000000000000e+01,1.249300000000000000e+04,2.693259716033935547e-01,1.585676908493041992e+00,3.295134957823259159e-01,0.000000000000000000e+00,1.110000000000000000e+02
0.000000000000000000e+00,0.000000000000000000e+00,1.000000000000000000e+00,4.100000000000000000e+01,1.253400000000000000e+04,2.681150436401367188e-01,1.848014116287231445e+00,5.936825693399370163e-01,1.000000000000000000e+00,1.120000000000000000e+02
1.000000000000000000e+00,1.000000000000000000e+00,1.000000000000000000e+00,6.500000000000000000e+01,1.259900000000000000e+04,2.830889225006103516e-01,1.586638927459716797e+00,3.143234304806929447e-01,0.000000000000000000e+00,1.120000000000000000e+02
0.000000000000000000e+00,1.000000000000000000e+00,0.000000000000000000e+00,6.200000000000000000e+01,1.266100000000000000e+04,2.847979068756103516e-01,1.835822105407714844e+00,5.666104373583118470e-01,0.000000000000000000e+00,1.120000000000000000e+02
0.000000000000000000e+00,1.000000000000000000e+00,0.000000000000000000e+00,6.200000000000000000e+01,1.272300000000000000e+04,2.628719806671142578e-01,1.797369003295898438e+00,5.307517415050341247e-01,0.000000000000000000e+00,1.120000000000000000e+02
1.000000000000000000e+00,1.000000000000000000e+00,1.000000000000000000e+00,5.900000000000000000e+01,1.278200000000000000e+04,3.045761585235595703e-01,1.858630180358886719e+00,5.727803275297653762e-01,0.000000000000000000e+00,1.120000000000000000e+02
1.000000000000000000e+00,1.000000000000000000e+00,1.000000000000000000e+00,6.000000000000000000e+01,1.284200000000000000e+04,3.280730247497558594e-01,1.793752908706665039e+00,4.666547856482068379e-01,0.000000000000000000e+00,1.120000000000000000e+02
1.000000000000000000e+00,1.000000000000000000e+00,1.000000000000000000e+00,6.200000000000000000e+01,1.290400000000000000e+04,2.980940341949462891e-01,1.778084039688110352e+00,4.781267404047425673e-01,0.000000000000000000e+00,1.120000000000000000e+02
0.000000000000000000e+00,1.000000000000000000e+00,0.000000000000000000e+00,6.100000000000000000e+01,1.296500000000000000e+04,2.884130477905273438e-01,1.947761058807373047e+00,6.757788629556793492e-01,0.000000000000000000e+00,1.120000000000000000e+02
1.000000000000000000e+00,1.000000000000000000e+00,1.000000000000000000e+00,6.200000000000000000e+01,1.302700000000000000e+04,3.096129894256591797e-01,1.775500059127807617e+00,4.848981368739244679e-01,0.000000000000000000e+00,1.120000000000000000e+02
0.000000000000000000e+00,1.000000000000000000e+00,0.000000000000000000e+00,6.400000000000000000e+01,1.309100000000000000e+04,2.802751064300537109e-01,1.762743949890136719e+00,4.810227955261858757e-01,0.000000000000000000e+00,1.120000000000000000e+02
0.000000000000000000e+00,1.000000000000000000e+00,0.000000000000000000e+00,5.200000000000000000e+01,1.314300000000000000e+04,2.783930301666259766e-01,1.737576007843017578e+00,4.686702886127873668e-01,0.000000000000000000e+00,1.120000000000000000e+02
1.000000000000000000e+00,1.000000000000000000e+00,1.000000000000000000e+00,6.300000000000000000e+01,1.320600000000000000e+04,2.894489765167236328e-01,1.783344984054565430e+00,5.020309117414480937e-01,0.000000000000000000e+00,1.120000000000000000e+02
1.000000000000000000e+00,1.000000000000000000e+00,1.000000000000000000e+00,6.400000000000000000e+01,1.327000000000000000e+04,2.721521854400634766e-01,1.742161989212036133e+00,4.776609924502726034e-01,0.000000000000000000e+00,1.120000000000000000e+02
1.000000000000000000e+00,1.000000000000000000e+00,1.000000000000000000e+00,6.000000000000000000e+01,1.333000000000000000e+04,2.828960418701171875e-01,1.916626930236816406e+00,6.441276819196092296e-01,0.000000000000000000e+00,1.120000000000000000e+02
1.000000000000000000e+00,1.000000000000000000e+00,1.000000000000000000e+00,5.700000000000000000e+01,1.338700000000000000e+04,3.282880783081054688e-01,1.649673223495483398e+00,3.272359612694387132e-01,0.000000000000000000e+00,1.120000000000000000e+02
1.000000000000000000e+00,1.000000000000000000e+00,1.000000000000000000e+00,6.200000000000000000e+01,1.344900000000000000e+04,2.833211421966552734e-01,1.945024967193603516e+00,6.722613631545070190e-01,0.000000000000000000e+00,1.120000000000000000e+02
0.000000000000000000e+00,1.000000000000000000e+00,0.000000000000000000e+00,5.900000000000000000e+01,1.350800000000000000e+04,2.974181175231933594e-01,1.720537900924682617e+00,4.264374118932012236e-01,0.000000000000000000e+00,1.120000000000000000e+02
0.000000000000000000e+00,1.000000000000000000e+00,0.000000000000000000e+00,6.300000000000000000e+01,1.357100000000000000e+04,2.818319797515869141e-01,1.564113855361938477e+00,2.907785108709657895e-01,0.000000000000000000e+00,1.120000000000000000e+02
1.000000000000000000e+00,1.000000000000000000e+00,1.000000000000000000e+00,5.900000000000000000e+01,1.363000000000000000e+04,3.171110153198242188e-01,1.726696014404296875e+00,4.174450786301844851e-01,0.000000000000000000e+00,1.120000000000000000e+02
0.000000000000000000e+00,1.000000000000000000e+00,0.000000000000000000e+00,6.000000000000000000e+01,1.369000000000000000e+04,2.948799133300781250e-01,1.766628026962280273e+00,4.673763636241644037e-01,0.000000000000000000e+00,1.120000000000000000e+02
0.000000000000000000e+00,1.000000000000000000e+00,0.000000000000000000e+00,6.400000000000000000e+01,1.375400000000000000e+04,2.613849639892578125e-01,1.593877077102661133e+00,3.281513776393770732e-01,0.000000000000000000e+00,1.120000000000000000e+02
1.000000000000000000e+00,1.000000000000000000e+00,1.000000000000000000e+00,5.500000000000000000e+01,1.380900000000000000e+04,2.911009788513183594e-01,1.869199991226196289e+00,5.970906632450341256e-01,0.000000000000000000e+00,1.120000000000000000e+02
0.000000000000000000e+00,1.000000000000000000e+00,0.000000000000000000e+00,5.900000000000000000e+01,1.386800000000000000e+04,2.635099887847900391e-01,1.918122053146362305e+00,6.652106993641447863e-01,0.000000000000000000e+00,1.120000000000000000e+02
0.000000000000000000e+00,1.000000000000000000e+00,0.000000000000000000e+00,7.000000000000000000e+01,1.393800000000000000e+04,2.861487865447998047e-01,1.805377006530761719e+00,5.208486646816996579e-01,0.000000000000000000e+00,1.120000000000000000e+02
0.000000000000000000e+00,1.000000000000000000e+00,0.000000000000000000e+00,6.000000000000000000e+01,1.399800000000000000e+04,2.682459354400634766e-01,1.544553041458129883e+00,2.823553951598786749e-01,0.000000000000000000e+00,1.120000000000000000e+02
0.000000000000000000e+00,1.000000000000000000e+00,0.000000000000000000e+00,6.400000000000000000e+01,1.406200000000000000e+04,2.783699035644531250e-01,1.593729019165039062e+00,3.094542029473159039e-01,0.000000000000000000e+00,1.120000000000000000e+02
0.000000000000000000e+00,0.000000000000000000e+00,1.000000000000000000e+00,3.900000000000000000e+01,1.410100000000000000e+04,2.379908561706542969e-01,1.682095050811767578e+00,4.580987355253891558e-01,1.000000000000000000e+00,1.110000000000000000e+02
0.000000000000000000e+00,1.000000000000000000e+00,0.000000000000000000e+00,6.300000000000000000e+01,1.416400000000000000e+04,2.589159011840820312e-01,1.927380084991455078e+00,6.853249984376799109e-01,0.000000000000000000e+00,1.110000000000000000e+02
0.000000000000000000e+00,1.000000000000000000e+00,0.000000000000000000e+00,6.000000000000000000e+01,1.422400000000000000e+04,2.464611530303955078e-01,1.953329086303710938e+00,7.053836834006805834e-01,0.000000000000000000e+00,1.110000000000000000e+02
0.000000000000000000e+00,1.000000000000000000e+00,0.000000000000000000e+00,6.200000000000000000e+01,1.428600000000000000e+04,2.855257987976074219e-01,1.532591104507446289e+00,2.551748636077786903e-01,0.000000000000000000e+00,1.110000000000000000e+02
1.000000000000000000e+00,1.000000000000000000e+00,1.000000000000000000e+00,6.200000000000000000e+01,1.434800000000000000e+04,3.930292129516601562e-01,2.115844964981079102e+00,7.372182732419294560e-01,0.000000000000000000e+00,1.110000000000000000e+02
1.000000000000000000e+00,0.000000000000000000e+00,0.000000000000000000e+00,4.200000000000000000e+01,1.439000000000000000e+04,3.998160362243652344e-01,2.077660083770751953e+00,6.816875012424159497e-01,0.000000000000000000e+00,1.110000000000000000e+02
1.000000000000000000e+00,1.000000000000000000e+00,1.000000000000000000e+00,6.400000000000000000e+01,1.445400000000000000e+04,2.764291763305664062e-01,1.928562879562377930e+00,6.603399627030007712e-01,0.000000000000000000e+00,1.110000000000000000e+02
1.000000000000000000e+00,1.000000000000000000e+00,1.000000000000000000e+00,6.500000000000000000e+01,1.451900000000000000e+04,2.668120861053466797e-01,1.669442176818847656e+00,4.134751590721074677e-01,0.000000000000000000e+00,1.110000000000000000e+02
1.000000000000000000e+00,1.000000000000000000e+00,1.000000000000000000e+00,6.300000000000000000e+01,1.458200000000000000e+04,3.183670043945312500e-01,1.940270900726318359e+00,6.370944749826963349e-01,0.000000000000000000e+00,1.110000000000000000e+02
0.000000000000000000e+00,1.000000000000000000e+00,0.000000000000000000e+00,6.000000000000000000e+01,1.464200000000000000e+04,2.829821109771728516e-01,1.537356138229370117e+00,2.580751787663251307e-01,0.000000000000000000e+00,1.110000000000000000e+02
0.000000000000000000e+00,1.000000000000000000e+00,0.000000000000000000e+00,6.600000000000000000e+01,1.470800000000000000e+04,3.880031108856201172e-01,1.808008909225463867e+00,4.323085145327500434e-01,0.000000000000000000e+00,1.110000000000000000e+02
1.000000000000000000e+00,1.000000000000000000e+00,1.000000000000000000e+00,5.900000000000000000e+01,1.476700000000000000e+04,3.095939159393310547e-01,1.626322031021118164e+00,3.257926264654470438e-01,0.000000000000000000e+00,1.110000000000000000e+02
1.000000000000000000e+00,1.000000000000000000e+00,1.000000000000000000e+00,5.900000000000000000e+01,1.482600000000000000e+04,3.308038711547851562e-01,2.032226800918579102e+00,7.076879731611245283e-01,0.000000000000000000e+00,1.110000000000000000e+02
1.000000000000000000e+00,1.000000000000000000e+00,1.000000000000000000e+00,6.200000000000000000e+01,1.488800000000000000e+04,2.564330101013183594e-01,1.589598178863525391e+00,3.477137213140633065e-01,0.000000000000000000e+00,1.110000000000000000e+02
0.000000000000000000e+00,1.000000000000000000e+00,0.000000000000000000e+00,6.300000000000000000e+01,1.495100000000000000e+04,3.152260780334472656e-01,1.927922964096069336e+00,6.254223493980866078e-01,0.000000000000000000e+00,1.110000000000000000e+02
1.000000000000000000e+00,1.000000000000000000e+00,1.000000000000000000e+00,5.600000000000000000e+01,1.500700000000000000e+04,2.929871082305908203e-01,1.755414009094238281e+00,4.810425363099251617e-01,0.000000000000000000e+00,1.110000000000000000e+02
1.000000000000000000e+00,1.000000000000000000e+00,1.000000000000000000e+00,6.100000000000000000e+01,1.506800000000000000e+04,2.630598545074462891e-01,1.939026117324829102e+00,6.865773472280741752e-01,0.000000000000000000e+00,1.110000000000000000e+02
1.000000000000000000e+00,1.000000000000000000e+00,1.000000000000000000e+00,6.000000000000000000e+01,1.512800000000000000e+04,2.951459884643554688e-01,1.748342990875244141e+00,4.519100038347362847e-01,0.000000000000000000e+00,1.110000000000000000e+02
0.000000000000000000e+00,1.000000000000000000e+00,0.000000000000000000e+00,6.100000000000000000e+01,1.518900000000000000e+04,3.091118335723876953e-01,1.991868019104003906e+00,6.935859853402672748e-01,0.000000000000000000e+00,1.110000000000000000e+02
0.000000000000000000e+00,1.000000000000000000e+00,0.000000000000000000e+00,6.300000000000000000e+01,1.525200000000000000e+04,2.738358974456787109e-01,1.801110029220581055e+00,5.449361595376168710e-01,0.000000000000000000e+00,1.110000000000000000e+02
1.000000000000000000e+00,1.000000000000000000e+00,1.000000000000000000e+00,6.400000000000000000e+01,1.531600000000000000e+04,3.079638481140136719e-01,1.909693956375122070e+00,6.212948208637119052e-01,0.000000000000000000e+00,1.110000000000000000e+02
0.000000000000000000e+00,1.000000000000000000e+00,0.000000000000000000e+00,6.200000000000000000e+01,1.537800000000000000e+04,2.463648319244384766e-01,1.966304063796997070e+00,7.203290235788732954e-01,0.000000000000000000e+00,1.110000000000000000e+02
1.000000000000000000e+00,1.000000000000000000e+00,1.000000000000000000e+00,5.900000000000000000e+01,1.543700000000000000e+04,2.327651977539062500e-01,1.521331071853637695e+00,2.927557368259905424e-01,0.000000000000000000e+00,1.110000000000000000e+02
1.000000000000000000e+00,1.000000000000000000e+00,1.000000000000000000e+00,6.000000000000000000e+01,1.549700000000000000e+04,3.051960468292236328e-01,1.751345872879028320e+00,4.606326138644722401e-01,0.000000000000000000e+00,1.110000000000000000e+02
0.000000000000000000e+00,1.000000000000000000e+00,0.000000000000000000e+00,6.400000000000000000e+01,1.556100000000000000e+04,2.901458740234375000e-01,1.996193170547485352e+00,7.232884812192275081e-01,0.000000000000000000e+00,1.110000000000000000e+02
0.000000000000000000e+00,1.000000000000000000e+00,0.000000000000000000e+00,6.600000000000000000e+01,1.562700000000000000e+04,2.642929553985595703e-01,1.662071943283081055e+00,4.024160171237893824e-01,0.000000000000000000e+00,1.110000000000000000e+02
0.000000000000000000e+00,1.000000000000000000e+00,0.000000000000000000e+00,6.200000000000000000e+01,1.568900000000000000e+04,2.636740207672119141e-01,1.843813180923461914e+00,5.794702239377848008e-01,0.000000000000000000e+00,1.110000000000000000e+02
0.000000000000000000e+00,1.000000000000000000e+00,0.000000000000000000e+00,6.500000000000000000e+01,1.575400000000000000e+04,2.494049072265625000e-01,1.969445943832397461e+00,7.321169474255315723e-01,0.000000000000000000e+00,1.110000000000000000e+02
1.000000000000000000e+00,1.000000000000000000e+00,1.000000000000000000e+00,5.500000000000000000e+01,1.580900000000000000e+04,2.771878242492675781e-01,1.802758932113647461e+00,5.187325694879987292e-01,0.000000000000000000e+00,1.110000000000000000e+02
0.000000000000000000e+00,1.000000000000000000e+00,0.000000000000000000e+00,6.200000000000000000e+01,1.587100000000000000e+04,3.203251361846923828e-01,1.729161024093627930e+00,4.145289534759716843e-01,0.000000000000000000e+00,1.110000000000000000e+02
0.000000000000000000e+00,1.000000000000000000e+00,0.000000000000000000e+00,6.100000000000000000e+01,1.593200000000000000e+04,2.746779918670654297e-01,1.539408922195434570e+00,2.874641371473983797e-01,0.000000000000000000e+00,1.110000000000000000e+02
1.000000000000000000e+00,1.000000000000000000e+00,1.000000000000000000e+00,6.000000000000000000e+01,1.599200000000000000e+04,3.456480503082275391e-01,1.911278963088989258e+00,5.651712252714236051e-01,0.000000000000000000e+00,1.110000000000000000e+02
0.000000000000000000e+00,1.000000000000000000e+00,0.000000000000000000e+00,6.100000000000000000e+01,1.605300000000000000e+04,2.680730819702148438e-01,1.622286081314086914e+00,3.544073363182012604e-01,0.000000000000000000e+00,1.110000000000000000e+02
0.000000000000000000e+00,1.000000000000000000e+00,0.000000000000000000e+00,5.600000000000000000e+01,1.610900000000000000e+04,2.864549160003662109e-01,1.998510122299194336e+00,7.193102854328352613e-01,0.000000000000000000e+00,1.110000000000000000e+02
1.000000000000000000e+00,0.000000000000000000e+00,0.000000000000000000e+00,3.800000000000000000e+01,1.614700000000000000e+04,2.715408802032470703e-01,1.514158010482788086e+00,2.507032987132366553e-01,1.000000000000000000e+00,1.120000000000000000e+02
0.000000000000000000e+00,1.000000000000000000e+00,0.000000000000000000e+00,6.400000000000000000e+01,1.621100000000000000e+04,3.346381187438964844e-01,1.834084033966064453e+00,5.012267129934584453e-01,0.000000000000000000e+00,1.120000000000000000e+02
1.000000000000000000e+00,1.000000000000000000e+00,1.000000000000000000e+00,6.000000000000000000e+01,1.627100000000000000e+04,2.966301441192626953e-01,1.913441896438598633e+00,6.145801535007704430e-01,0.000000000000000000e+00,1.120000000000000000e+02
1.000000000000000000e+00,1.000000000000000000e+00,1.000000000000000000e+00,6.500000000000000000e+01,1.633600000000000000e+04,3.087728023529052734e-01,1.915615081787109375e+00,6.302258517020242756e-01,0.000000000000000000e+00,1.120000000000000000e+02
1.000000000000000000e+00,1.000000000000000000e+00,1.000000000000000000e+00,6.700000000000000000e+01,1.640300000000000000e+04,3.231408596038818359e-01,1.612750053405761719e+00,3.100805054580476061e-01,0.000000000000000000e+00,1.120000000000000000e+02
0.000000000000000000e+00,1.000000000000000000e+00,0.000000000000000000e+00,6.100000000000000000e+01,1.646400000000000000e+04,4.324910640716552734e-01,2.009039163589477539e+00,5.855896037169127100e-01,0.000000000000000000e+00,1.120000000000000000e+02
0.000000000000000000e+00,1.000000000000000000e+00,0.000000000000000000e+00,6.000000000000000000e+01,1.652400000000000000e+04,3.368899822235107422e-01,1.753515958786010742e+00,4.226729392850026579e-01,0.000000000000000000e+00,1.120000000000000000e+02
1.000000000000000000e+00,1.000000000000000000e+00,1.000000000000000000e+00,6.600000000000000000e+01,1.659000000000000000e+04,3.539609909057617188e-01,1.814359903335571289e+00,4.703788028993968195e-01,0.000000000000000000e+00,1.120000000000000000e+02
1.000000000000000000e+00,1.000000000000000000e+00,1.000000000000000000e+00,6.600000000000000000e+01,1.665600000000000000e+04,2.693758010864257812e-01,1.704239845275878906e+00,4.413523981487000314e-01,0.000000000000000000e+00,1.120000000000000000e+02
1.000000000000000000e+00,1.000000000000000000e+00,1.000000000000000000e+00,6.100000000000000000e+01,1.671700000000000000e+04,2.884070873260498047e-01,1.721946001052856445e+00,4.467061076315443358e-01,0.000000000000000000e+00,1.120000000000000000e+02
0.000000000000000000e+00,1.000000000000000000e+00,0.000000000000000000e+00,6.300000000000000000e+01,1.678000000000000000e+04,3.287909030914306641e-01,1.850874900817871094e+00,5.308949538208010965e-01,0.000000000000000000e+00,1.120000000000000000e+02
1.000000000000000000e+00,1.000000000000000000e+00,1.000000000000000000e+00,6.600000000000000000e+01,1.684600000000000000e+04,2.848699092864990234e-01,1.912433147430419922e+00,6.433187185641658923e-01,0.000000000000000000e+00,1.120000000000000000e+02
0.000000000000000000e+00,1.000000000000000000e+00,0.000000000000000000e+00,6.100000000000000000e+01,1.690700000000000000e+04,2.552828788757324219e-01,1.733464956283569336e+00,4.935928138353515293e-01,0.000000000000000000e+00,1.120000000000000000e+02
1.000000000000000000e+00,1.000000000000000000e+00,1.000000000000000000e+00,6.000000000000000000e+01,1.696700000000000000e+04,3.270580768585205078e-01,1.967467069625854492e+00,6.610108810756234465e-01,0.000000000000000000e+00,1.120000000000000000e+02
1.000000000000000000e+00,1.000000000000000000e+00,1.000000000000000000e+00,5.900000000000000000e+01,1.702600000000000000e+04,2.684888839721679688e-01,1.852366924285888672e+00,5.968205569286086920e-01,0.000000000000000000e+00,1.120000000000000000e+02
0.000000000000000000e+00,1.000000000000000000e+00,0.000000000000000000e+00,6.700000000000000000e+01,1.709300000000000000e+04,2.681248188018798828e-01,1.885969161987304688e+00,6.328259796926336556e-01,0.000000000000000000e+00,1.120000000000000000e+02
1.000000000000000000e+00,1.000000000000000000e+00,1.000000000000000000e+00,6.100000000000000000e+01,1.715400000000000000e+04,2.715110778808593750e-01,1.678143024444580078e+00,4.112801495798589224e-01,0.000000000000000000e+00,1.120000000000000000e+02
1.000000000000000000e+00,1.000000000000000000e+00,1.000000000000000000e+00,6.300000000000000000e+01,1.721700000000000000e+04,3.330061435699462891e-01,1.911587953567504883e+00,5.891122256602359109e-01,0.000000000000000000e+00,1.120000000000000000e+02
0.000000000000000000e+00,1.000000000000000000e+00,0.000000000000000000e+00,6.100000000000000000e+01,1.727800000000000000e+04,2.573118209838867188e-01,1.544239997863769531e+00,3.006879594406405842e-01,0.000000000000000000e+00,1.120000000000000000e+02
0.000000000000000000e+00,1.000000000000000000e+00,0.000000000000000000e+00,5.900000000000000000e+01,1.733700000000000000e+04,3.760900497436523438e-01,1.871173143386840820e+00,5.050291976250822490e-01,0.000000000000000000e+00,1.120000000000000000e+02
1.000000000000000000e+00,1.000000000000000000e+00,1.000000000000000000e+00,6.700000000000000000e+01,1.740400000000000000e+04,3.347890377044677734e-01,1.973685979843139648e+00,6.450785826119651567e-01,0.000000000000000000e+00,1.120000000000000000e+02
0.000000000000000000e+00,1.000000000000000000e+00,0.000000000000000000e+00,6.600000000000000000e+01,1.747000000000000000e+04,3.472301959991455078e-01,2.019167900085449219e+00,6.812634943746260774e-01,0.000000000000000000e+00,1.120000000000000000e+02
1.000000000000000000e+00,1.000000000000000000e+00,1.000000000000000000e+00,6.300000000000000000e+01,1.753300000000000000e+04,2.735869884490966797e-01,1.654167175292968750e+00,4.024093035120259731e-01,0.000000000000000000e+00,1.120000000000000000e+02
1.000000000000000000e+00,1.000000000000000000e+00,1.000000000000000000e+00,6.400000000000000000e+01,1.759700000000000000e+04,3.080790042877197266e-01,1.930127859115600586e+00,6.323823404732252795e-01,0.000000000000000000e+00,1.120000000000000000e+02
0.000000000000000000e+00,1.000000000000000000e+00,0.000000000000000000e+00,6.600000000000000000e+01,1.766300000000000000e+04,2.426719665527343750e-01,1.761950016021728516e+00,5.278019435246262825e-01,0.000000000000000000e+00,1.120000000000000000e+02
1.000000000000000000e+00,1.000000000000000000e+00,1.000000000000000000e+00,6.200000000000000000e+01,1.772500000000000000e+04,2.818341255187988281e-01,1.754937887191772461e+00,4.828221965552963457e-01,0.000000000000000000e+00,1.120000000000000000e+02
0.000000000000000000e+00,1.000000000000000000e+00,0.000000000000000000e+00,6.200000000000000000e+01,1.778700000000000000e+04,3.161010742187500000e-01,1.869361162185668945e+00,5.522067778861663445e-01,0.000000000000000000e+00,1.120000000000000000e+02
1.000000000000000000e+00,1.000000000000000000e+00,1.000000000000000000e+00,6.800000000000000000e+01,1.785500000000000000e+04,2.105147838592529297e-01,1.889953851699829102e+00,6.920869273143972489e-01,1.000000000000000000e+00,1.110000000000000000e+02
0.000000000000000000e+00,1.000000000000000000e+00,0.000000000000000000e+00,6.300000000000000000e+01,1.791800000000000000e+04,2.682211399078369141e-01,1.824081897735595703e+00,5.663418792546612845e-01,0.000000000000000000e+00,1.110000000000000000e+02
1.000000000000000000e+00,1.000000000000000000e+00,1.000000000000000000e+00,6.300000000000000000e+01,1.798100000000000000e+04,2.900118827819824219e-01,1.691859006881713867e+00,4.084387880455055964e-01,0.000000000000000000e+00,1.110000000000000000e+02
0.000000000000000000e+00,1.000000000000000000e+00,0.000000000000000000e+00,7.100000000000000000e+01,1.805200000000000000e+04,2.848060131072998047e-01,1.968954086303710938e+00,6.938018183872882716e-01,0.000000000000000000e+00,1.110000000000000000e+02
1.000000000000000000e+00,1.000000000000000000e+00,1.000000000000000000e+00,6.600000000000000000e+01,1.811800000000000000e+04,3.081169128417968750e-01,1.794028043746948242e+00,5.048412029508547727e-01,0.000000000000000000e+00,1.110000000000000000e+02
1.000000000000000000e+00,1.000000000000000000e+00,1.000000000000000000e+00,6.700000000000000000e+01,1.818500000000000000e+04,3.462190628051757812e-01,1.638717889785766602e+00,2.938000658470916182e-01,0.000000000000000000e+00,1.110000000000000000e+02
0.000000000000000000e+00,1.000000000000000000e+00,0.000000000000000000e+00,6.200000000000000000e+01,1.824700000000000000e+04,3.479180335998535156e-01,1.623879194259643555e+00,2.844094965338363479e-01,0.000000000000000000e+00,1.110000000000000000e+02
0.000000000000000000e+00,1.000000000000000000e+00,0.000000000000000000e+00,6.300000000000000000e+01,1.831000000000000000e+04,4.166879653930664062e-01,2.035774946212768555e+00,6.188065172283884197e-01,0.000000000000000000e+00,1.110000000000000000e+02
0.000000000000000000e+00,1.000000000000000000e+00,0.000000000000000000e+00,6.900000000000000000e+01,1.837900000000000000e+04,3.123950958251953125e-01,1.589535951614379883e+00,2.765391206600881224e-01,0.000000000000000000e+00,1.110000000000000000e+02
1.000000000000000000e+00,1.000000000000000000e+00,1.000000000000000000e+00,6.600000000000000000e+01,1.844500000000000000e+04,4.001560211181640625e-01,2.077328205108642578e+00,6.868448347698496992e-01,0.000000000000000000e+00,1.110000000000000000e+02
0.000000000000000000e+00,1.000000000000000000e+00,0.000000000000000000e+00,6.900000000000000000e+01,1.851400000000000000e+04,2.839200496673583984e-01,1.616308927536010742e+00,3.368845682977059663e-01,0.000000000000000000e+00,1.110000000000000000e+02
1.000000000000000000e+00,1.000000000000000000e+00,1.000000000000000000e+00,6.400000000000000000e+01,1.857800000000000000e+04,3.022501468658447266e-01,1.953646183013916016e+00,6.569509502499136788e-01,0.000000000000000000e+00,1.110000000000000000e+02
1.000000000000000000e+00,1.000000000000000000e+00,1.000000000000000000e+00,6.600000000000000000e+01,1.864400000000000000e+04,3.422529697418212891e-01,2.002821922302246094e+00,6.764647505721378407e-01,0.000000000000000000e+00,1.110000000000000000e+02
0.000000000000000000e+00,1.000000000000000000e+00,0.000000000000000000e+00,6.900000000000000000e+01,1.871300000000000000e+04,2.804188728332519531e-01,1.729779005050659180e+00,4.565803477005497824e-01,0.000000000000000000e+00,1.110000000000000000e+02
0.000000000000000000e+00,1.000000000000000000e+00,0.000000000000000000e+00,6.800000000000000000e+01,1.878100000000000000e+04,2.771260738372802734e-01,2.004916191101074219e+00,7.445670935590187334e-01,0.000000000000000000e+00,1.110000000000000000e+02
0.000000000000000000e+00,1.000000000000000000e+00,0.000000000000000000e+00,6.300000000000000000e+01,1.884400000000000000e+04,2.771799564361572266e-01,1.934926033020019531e+00,6.629753459770497681e-01,0.000000000000000000e+00,1.110000000000000000e+02
0.000000000000000000e+00,1.000000000000000000e+00,0.000000000000000000e+00,6.400000000000000000e+01,1.890800000000000000e+04,2.669570446014404297e-01,1.690363883972167969e+00,4.370068848337944623e-01,0.000000000000000000e+00,1.110000000000000000e+02
1.000000000000000000e+00,1.000000000000000000e+00,1.000000000000000000e+00,6.500000000000000000e+01,1.897300000000000000e+04,3.159871101379394531e-01,1.680994987487792969e+00,3.681473604568232805e-01,0.000000000000000000e+00,1.110000000000000000e+02
0.000000000000000000e+00,1.000000000000000000e+00,0.000000000000000000e+00,6.800000000000000000e+01,1.904100000000000000e+04,3.214120864868164062e-01,1.948441028594970703e+00,6.330059346912284557e-01,0.000000000000000000e+00,1.110000000000000000e+02
1.000000000000000000e+00,1.000000000000000000e+00,1.000000000000000000e+00,6.700000000000000000e+01,1.910800000000000000e+04,2.888231277465820312e-01,1.691445112228393555e+00,4.081177925942093276e-01,0.000000000000000000e+00,1.110000000000000000e+02
1.000000000000000000e+00,1.000000000000000000e+00,1.000000000000000000e+00,6.500000000000000000e+01,1.917300000000000000e+04,3.435089588165283203e-01,1.916527986526489258e+00,5.745100385566207501e-01,0.000000000000000000e+00,1.110000000000000000e+02
1.000000000000000000e+00,1.000000000000000000e+00,1.000000000000000000e+00,6.400000000000000000e+01,1.923700000000000000e+04,2.979199886322021484e-01,1.620120048522949219e+00,3.283098980612999540e-01,0.000000000000000000e+00,1.110000000000000000e+02
0.000000000000000000e+00,1.000000000000000000e+00,0.000000000000000000e+00,6.400000000000000000e+01,1.930100000000000000e+04,2.994170188903808594e-01,1.570006847381591797e+00,2.817498317270555885e-01,0.000000000000000000e+00,1.110000000000000000e+02
0.000000000000000000e+00,1.000000000000000000e+00,0.000000000000000000e+00,6.200000000000000000e+01,1.936300000000000000e+04,3.310379981994628906e-01,1.780203819274902344e+00,4.618375647961954211e-01,0.000000000000000000e+00,1.110000000000000000e+02
0.000000000000000000e+00,1.000000000000000000e+00,0.000000000000000000e+00,6.800000000000000000e+01,1.943100000000000000e+04,3.137891292572021484e-01,1.976637840270996094e+00,6.716618227359918425e-01,0.000000000000000000e+00,1.110000000000000000e+02
1.000000000000000000e+00,1.000000000000000000e+00,1.000000000000000000e+00,6.500000000000000000e+01,1.949600000000000000e+04,2.372159957885742188e-01,1.969764232635498047e+00,7.411288127099495693e-01,0.000000000000000000e+00,1.110000000000000000e+02
0.000000000000000000e+00,1.000000000000000000e+00,0.000000000000000000e+00,6.700000000000000000e+01,1.956300000000000000e+04,2.945880889892578125e-01,1.552003860473632812e+00,2.606635313273242271e-01,0.000000000000000000e+00,1.110000000000000000e+02
1.000000000000000000e+00,1.000000000000000000e+00,1.000000000000000000e+00,6.200000000000000000e+01,1.962500000000000000e+04,3.805911540985107422e-01,1.963140010833740234e+00,5.902135855724894853e-01,0.000000000000000000e+00,1.110000000000000000e+02
0.000000000000000000e+00,1.000000000000000000e+00,0.000000000000000000e+00,6.300000000000000000e+01,1.968800000000000000e+04,2.639529705047607422e-01,1.760727167129516602e+00,5.010744504535283861e-01,0.000000000000000000e+00,1.110000000000000000e+02
1.000000000000000000e+00,1.000000000000000000e+00,1.000000000000000000e+00,6.400000000000000000e+01,1.975200000000000000e+04,2.874181270599365234e-01,1.656637907028198242e+00,3.745739434553425617e-01,0.000000000000000000e+00,1.110000000000000000e+02
1.000000000000000000e+00,1.000000000000000000e+00,1.000000000000000000e+00,6.500000000000000000e+01,1.981700000000000000e+04,2.704341411590576172e-01,1.698944091796875000e+00,4.401793546827609260e-01,0.000000000000000000e+00,1.110000000000000000e+02
0.000000000000000000e+00,1.000000000000000000e+00,0.000000000000000000e+00,7.200000000000000000e+01,1.988900000000000000e+04,3.025419712066650391e-01,1.551980972290039062e+00,2.590759386308750800e-01,0.000000000000000000e+00,1.110000000000000000e+02
1.000000000000000000e+00,1.000000000000000000e+00,1.000000000000000000e+00,6.700000000000000000e+01,1.995600000000000000e+04,3.446021080017089844e-01,1.943024158477783203e+00,6.018326007780872011e-01,0.000000000000000000e+00,1.110000000000000000e+02
1.000000000000000000e+00,1.000000000000000000e+00,1.000000000000000000e+00,6.400000000000000000e+01,2.002000000000000000e+04,2.856638431549072266e-01,1.773134946823120117e+00,4.918043291651067461e-01,0.000000000000000000e+00,1.110000000000000000e+02
1.000000000000000000e+00,1.000000000000000000e+00,1.000000000000000000e+00,6.200000000000000000e+01,2.008200000000000000e+04,3.130569458007812500e-01,1.680552005767822266e+00,3.725440557340882197e-01,0.000000000000000000e+00,1.110000000000000000e+02
0.000000000000000000e+00,0.000000000000000000e+00,1.000000000000000000e+00,3.500000000000000000e+01,2.011700000000000000e+04,3.067939281463623047e-01,1.681868076324462891e+00,3.877537373047910130e-01,1.000000000000000000e+00,1.120000000000000000e+02
1.000000000000000000e+00,1.000000000000000000e+00,1.000000000000000000e+00,6.600000000000000000e+01,2.018300000000000000e+04,4.405097961425781250e-01,2.065283060073852539e+00,6.361963152672978072e-01,0.000000000000000000e+00,1.120000000000000000e+02
0.000000000000000000e+00,1.000000000000000000e+00,0.000000000000000000e+00,6.600000000000000000e+01,2.024900000000000000e+04,2.828519344329833984e-01,1.941701889038085938e+00,6.612713406948538264e-01,0.000000000000000000e+00,1.120000000000000000e+02
1.000000000000000000e+00,1.000000000000000000e+00,1.000000000000000000e+00,6.400000000000000000e+01,2.031300000000000000e+04,2.636210918426513672e-01,1.773571014404296875e+00,5.183876582160249491e-01,0.000000000000000000e+00,1.120000000000000000e+02
0.000000000000000000e+00,1.000000000000000000e+00,0.000000000000000000e+00,6.300000000000000000e+01,2.037600000000000000e+04,3.364782333374023438e-01,1.845139980316162109e+00,5.136073724558085640e-01,0.000000000000000000e+00,1.120000000000000000e+02
0.000000000000000000e+00,1.000000000000000000e+00,0.000000000000000000e+00,7.000000000000000000e+01,2.044600000000000000e+04,2.771449089050292969e-01,1.838324069976806641e+00,5.685972835554101712e-01,0.000000000000000000e+00,1.120000000000000000e+02
1.000000000000000000e+00,1.000000000000000000e+00,1.000000000000000000e+00,7.000000000000000000e+01,2.051600000000000000e+04,3.321409225463867188e-01,1.715460062026977539e+00,3.843395510905632806e-01,0.000000000000000000e+00,1.120000000000000000e+02
0.000000000000000000e+00,1.000000000000000000e+00,0.000000000000000000e+00,7.200000000000000000e+01,2.058800000000000000e+04,3.645381927490234375e-01,1.807763099670410156e+00,4.421212760736529246e-01,0.000000000000000000e+00,1.120000000000000000e+02
1.000000000000000000e+00,1.000000000000000000e+00,1.000000000000000000e+00,6.600000000000000000e+01,2.065400000000000000e+04,3.686180114746093750e-01,1.953269958496093750e+00,5.952753728335897776e-01,0.000000000000000000e+00,1.120000000000000000e+02
0.000000000000000000e+00,1.000000000000000000e+00,0.000000000000000000e+00,6.600000000000000000e+01,2.072000000000000000e+04,2.575948238372802734e-01,1.556489944458007812e+00,3.187998979963571067e-01,0.000000000000000000e+00,1.120000000000000000e+02
1.000000000000000000e+00,1.000000000000000000e+00,1.000000000000000000e+00,6.700000000000000000e+01,2.078700000000000000e+04,3.210518360137939453e-01,1.982593059539794922e+00,6.677651501813370860e-01,0.000000000000000000e+00,1.120000000000000000e+02
1.000000000000000000e+00,1.000000000000000000e+00,1.000000000000000000e+00,6.500000000000000000e+01,2.085200000000000000e+04,2.997739315032958984e-01,1.794111013412475586e+00,4.954567513301206816e-01,0.000000000000000000e+00,1.120000000000000000e+02
1.000000000000000000e+00,1.000000000000000000e+00,1.000000000000000000e+00,6.900000000000000000e+01,2.092100000000000000e+04,3.175258636474609375e-01,2.006594181060791016e+00,7.019229663825048426e-01,0.000000000000000000e+00,1.120000000000000000e+02
1.000000000000000000e+00,1.000000000000000000e+00,1.000000000000000000e+00,6.600000000000000000e+01,2.098700000000000000e+04,3.379359245300292969e-01,1.667716026306152344e+00,3.367548884980102186e-01,0.000000000000000000e+00,1.120000000000000000e+02
0.000000000000000000e+00,1.000000000000000000e+00,0.000000000000000000e+00,6.700000000000000000e+01,2.105400000000000000e+04,4.470131397247314453e-01,1.863212108612060547e+00,4.166056945524690414e-01,0.000000000000000000e+00,1.120000000000000000e+02
1.000000000000000000e+00,1.000000000000000000e+00,1.000000000000000000e+00,7.000000000000000000e+01,2.112400000000000000e+04,2.477879524230957031e-01,1.554211854934692383e+00,3.043789183034463774e-01,0.000000000000000000e+00,1.120000000000000000e+02
0.000000000000000000e+00,1.000000000000000000e+00,0.000000000000000000e+00,6.900000000000000000e+01,2.119300000000000000e+04,3.297979831695556641e-01,1.848623991012573242e+00,5.194715398419252894e-01,0.000000000000000000e+00,1.120000000000000000e+02
1.000000000000000000e+00,1.000000000000000000e+00,1.000000000000000000e+00,6.500000000000000000e+01,2.125800000000000000e+04,2.978160381317138672e-01,1.865437984466552734e+00,5.682545452480818327e-01,0.000000000000000000e+00,1.120000000000000000e+02
1.000000000000000000e+00,1.000000000000000000e+00,1.000000000000000000e+00,6.900000000000000000e+01,2.132700000000000000e+04,3.002700805664062500e-01,2.027619123458862305e+00,7.291191151784118807e-01,0.000000000000000000e+00,1.120000000000000000e+02
1.000000000000000000e+00,1.000000000000000000e+00,1.000000000000000000e+00,6.800000000000000000e+01,2.139500000000000000e+04,3.067340850830078125e-01,1.602197885513305664e+00,3.151838421935932444e-01,0.000000000000000000e+00,1.120000000000000000e+02
1.000000000000000000e+00,1.000000000000000000e+00,1.000000000000000000e+00,6.500000000000000000e+01,2.146000000000000000e+04,3.137049674987792969e-01,1.571391105651855469e+00,2.699738097922344537e-01,0.000000000000000000e+00,1.120000000000000000e+02
0.000000000000000000e+00,1.000000000000000000e+00,0.000000000000000000e+00,6.300000000000000000e+01,2.152300000000000000e+04,3.374350070953369141e-01,1.944933891296386719e+00,6.146127282117161972e-01,0.000000000000000000e+00,1.120000000000000000e+02
0.000000000000000000e+00,1.000000000000000000e+00,0.000000000000000000e+00,7.100000000000000000e+01,2.159400000000000000e+04,3.311769962310791016e-01,1.972766160964965820e+00,6.540639205753330243e-01,0.000000000000000000e+00,1.120000000000000000e+02
1.000000000000000000e+00,1.000000000000000000e+00,1.000000000000000000e+00,6.400000000000000000e+01,2.165800000000000000e+04,2.958691120147705078e-01,1.912216901779174805e+00,6.163094221216307567e-01,0.000000000000000000e+00,1.120000000000000000e+02
0.000000000000000000e+00,1.000000000000000000e+00,0.000000000000000000e+00,6.700000000000000000e+01,2.172500000000000000e+04,3.053140640258789062e-01,1.803994178771972656e+00,5.038886675564896445e-01,0.000000000000000000e+00,1.120000000000000000e+02
0.000000000000000000e+00,1.000000000000000000e+00,0.000000000000000000e+00,6.100000000000000000e+01,2.178600000000000000e+04,3.013899326324462891e-01,1.629596948623657227e+00,3.337532762162439548e-01,0.000000000000000000e+00,1.120000000000000000e+02
1.000000000000000000e+00,1.000000000000000000e+00,1.000000000000000000e+00,7.000000000000000000e+01,2.185600000000000000e+04,3.440279960632324219e-01,1.991145133972167969e+00,6.412930012373616595e-01,0.000000000000000000e+00,1.120000000000000000e+02
1.000000000000000000e+00,1.000000000000000000e+00,1.000000000000000000e+00,6.400000000000000000e+01,2.192000000000000000e+04,3.378260135650634766e-01,1.618661880493164062e+00,2.934215359825426694e-01,0.000000000000000000e+00,1.120000000000000000e+02
0.000000000000000000e+00,1.000000000000000000e+00,0.000000000000000000e+00,6.400000000000000000e+01,2.198400000000000000e+04,3.952150344848632812e-01,1.704680919647216797e+00,3.318111920738229803e-01,0.000000000000000000e+00,1.120000000000000000e+02
1.000000000000000000e+00,1.000000000000000000e+00,1.000000000000000000e+00,6.600000000000000000e+01,2.205000000000000000e+04,3.072009086608886719e-01,1.561615943908691406e+00,2.768509504345496031e-01,0.000000000000000000e+00,1.120000000000000000e+02
0.000000000000000000e+00,1.000000000000000000e+00,0.000000000000000000e+00,6.400000000000000000e+01,2.211400000000000000e+04,4.187028408050537109e-01,1.883771181106567383e+00,4.771265252988478034e-01,0.000000000000000000e+00,1.120000000000000000e+02
0.000000000000000000e+00,1.000000000000000000e+00,0.000000000000000000e+00,6.600000000000000000e+01,2.218000000000000000e+04,2.874629497528076172e-01,1.764305830001831055e+00,4.914622597788217973e-01,0.000000000000000000e+00,1.120000000000000000e+02
0.000000000000000000e+00,1.000000000000000000e+00,0.000000000000000000e+00,6.900000000000000000e+01,2.224900000000000000e+04,2.638130187988281250e-01,1.892149209976196289e+00,6.332269173210562929e-01,0.000000000000000000e+00,1.120000000000000000e+02
0.000000000000000000e+00,1.000000000000000000e+00,0.000000000000000000e+00,6.600000000000000000e+01,2.231500000000000000e+04,2.949168682098388672e-01,1.595282793045043945e+00,2.959250641220541600e-01,0.000000000000000000e+00,1.120000000000000000e+02
1.000000000000000000e+00,1.000000000000000000e+00,1.000000000000000000e+00,6.500000000000000000e+01,2.238000000000000000e+04,4.036779403686523438e-01,1.781522989273071289e+00,3.940729599118305559e-01,0.000000000000000000e+00,1.120000000000000000e+02
1.000000000000000000e+00,1.000000000000000000e+00,1.000000000000000000e+00,6.800000000000000000e+01,2.244800000000000000e+04,3.063201904296875000e-01,1.722872972488403320e+00,4.336301447149993882e-01,0.000000000000000000e+00,1.120000000000000000e+02
0.000000000000000000e+00,1.000000000000000000e+00,0.000000000000000000e+00,7.200000000000000000e+01,2.252000000000000000e+04,2.457280158996582031e-01,1.593873977661132812e+00,3.443357600469771906e-01,0.000000000000000000e+00,1.120000000000000000e+02
1.000000000000000000e+00,1.000000000000000000e+00,1.000000000000000000e+00,6.400000000000000000e+01,2.258400000000000000e+04,2.607340812683105469e-01,1.894813060760498047e+00,6.555434084855544796e-01,0.000000000000000000e+00,1.120000000000000000e+02
1.000000000000000000e+00,1.000000000000000000e+00,1.000000000000000000e+00,6.600000000000000000e+01,2.265000000000000000e+04,2.868170738220214844e-01,1.884866952896118164e+00,6.072000956100969127e-01,0.000000000000000000e+00,1.120000000000000000e+02
1.000000000000000000e+00,0.000000000000000000e+00,0.000000000000000000e+00,3.700000000000000000e+01,2.268700000000000000e+04,2.815620899200439453e-01,1.805803060531616211e+00,5.298691408353255472e-01,1.000000000000000000e+00,1.110000000000000000e+02
1.000000000000000000e+00,1.000000000000000000e+00,1.000000000000000000e+00,6.500000000000000000e+01,2.275200000000000000e+04,2.926528453826904297e-01,1.596323966979980469e+00,3.264090117347285269e-01,0.000000000000000000e+00,1.110000000000000000e+02
1.000000000000000000e+00,1.000000000000000000e+00,1.000000000000000000e+00,6.000000000000000000e+01,2.281200000000000000e+04,2.976970672607421875e-01,1.741576910018920898e+00,4.512646055599419115e-01,0.000000000000000000e+00,1.110000000000000000e+02
0.000000000000000000e+00,1.000000000000000000e+00,0.000000000000000000e+00,6.300000000000000000e+01,2.287500000000000000e+04,3.487558364868164062e-01,1.978405952453613281e+00,6.295684538280941211e-01,0.000000000000000000e+00,1.110000000000000000e+02
1.000000000000000000e+00,1.000000000000000000e+00,1.000000000000000000e+00,6.000000000000000000e+01,2.293500000000000000e+04,2.381861209869384766e-01,1.919275999069213867e+00,6.988479745765943107e-01,0.000000000000000000e+00,1.110000000000000000e+02
1.000000000000000000e+00,1.000000000000000000e+00,1.000000000000000000e+00,6.300000000000000000e+01,2.299800000000000000e+04,3.476209640502929688e-01,1.763168096542358398e+00,4.123789896535349775e-01,0.000000000000000000e+00,1.110000000000000000e+02
0.000000000000000000e+00,1.000000000000000000e+00,0.000000000000000000e+00,6.600000000000000000e+01,2.306400000000000000e+04,4.399387836456298828e-01,2.071038007736206055e+00,6.499283438745446784e-01,0.000000000000000000e+00,1.110000000000000000e+02
1.000000000000000000e+00,1.000000000000000000e+00,1.000000000000000000e+00,6.100000000000000000e+01,2.312500000000000000e+04,3.006570339202880859e-01,1.857197046279907227e+00,5.572488536513429125e-01,0.000000000000000000e+00,1.110000000000000000e+02
1.000000000000000000e+00,1.000000000000000000e+00,1.000000000000000000e+00,6.100000000000000000e+01,2.318600000000000000e+04,2.747459411621093750e-01,1.985377073287963867e+00,7.259017299008700963e-01,0.000000000000000000e+00,1.110000000000000000e+02
1.000000000000000000e+00,1.000000000000000000e+00,1.000000000000000000e+00,6.100000000000000000e+01,2.324700000000000000e+04,2.346031665802001953e-01,1.749171972274780273e+00,5.253146679662699103e-01,0.000000000000000000e+00,1.110000000000000000e+02
1.000000000000000000e+00,1.000000000000000000e+00,1.000000000000000000e+00,6.100000000000000000e+01,2.330800000000000000e+04,3.225238323211669922e-01,1.607200860977172852e+00,2.995207577120775344e-01,0.000000000000000000e+00,1.110000000000000000e+02
0.000000000000000000e+00,1.000000000000000000e+00,0.000000000000000000e+00,5.900000000000000000e+01,2.336700000000000000e+04,4.128959178924560547e-01,1.705370187759399414e+00,2.882656570557571851e-01,0.000000000000000000e+00,1.110000000000000000e+02
0.000000000000000000e+00,1.000000000000000000e+00,0.000000000000000000e+00,6.500000000000000000e+01,2.343200000000000000e+04,3.259470462799072266e-01,1.862955808639526367e+00,5.509996393967029338e-01,0.000000000000000000e+00,1.110000000000000000e+02
1.000000000000000000e+00,1.000000000000000000e+00,1.000000000000000000e+00,6.300000000000000000e+01,2.349500000000000000e+04,2.730510234832763672e-01,1.987221002578735352e+00,7.214302877221451249e-01,0.000000000000000000e+00,1.110000000000000000e+02
0.000000000000000000e+00,1.000000000000000000e+00,0.000000000000000000e+00,6.200000000000000000e+01,2.355700000000000000e+04,3.247730731964111328e-01,1.694088935852050781e+00,3.826397287043872830e-01,0.000000000000000000e+00,1.110000000000000000e+02
1.000000000000000000e+00,1.000000000000000000e+00,1.000000000000000000e+00,5.600000000000000000e+01,2.361300000000000000e+04,2.551798820495605469e-01,1.985802173614501953e+00,7.348026349056488993e-01,0.000000000000000000e+00,1.110000000000000000e+02
0.000000000000000000e+00,1.000000000000000000e+00,0.000000000000000000e+00,6.200000000000000000e+01,2.367500000000000000e+04,2.509150505065917969e-01,1.548272848129272461e+00,3.002658109517932217e-01,0.000000000000000000e+00,1.110000000000000000e+02
1.000000000000000000e+00,1.000000000000000000e+00,1.000000000000000000e+00,6.700000000000000000e+01,2.374200000000000000e+04,2.666828632354736328e-01,1.547696828842163086e+00,2.813714014327804436e-01,0.000000000000000000e+00,1.110000000000000000e+02
0.000000000000000000e+00,1.000000000000000000e+00,0.000000000000000000e+00,6.500000000000000000e+01,2.380700000000000000e+04,4.317810535430908203e-01,1.786257982254028320e+00,3.675967449325591163e-01,0.000000000000000000e+00,1.110000000000000000e+02
0.000000000000000000e+00,1.000000000000000000e+00,0.000000000000000000e+00,5.700000000000000000e+01,2.386400000000000000e+04,3.047649860382080078e-01,1.861292123794555664e+00,5.620807910852716471e-01,0.000000000000000000e+00,1.110000000000000000e+02
0.000000000000000000e+00,1.000000000000000000e+00,0.000000000000000000e+00,6.400000000000000000e+01,2.392800000000000000e+04,3.048520088195800781e-01,1.981921911239624023e+00,6.939367017741810972e-01,0.000000000000000000e+00,1.110000000000000000e+02
1.000000000000000000e+00,1.000000000000000000e+00,1.000000000000000000e+00,6.100000000000000000e+01,2.398900000000000000e+04,2.125818729400634766e-01,1.666802167892456055e+00,4.610452275254789400e-01,0.000000000000000000e+00,1.110000000000000000e+02
0.000000000000000000e+00,1.000000000000000000e+00,0.000000000000000000e+00,6.200000000000000000e+01,2.405100000000000000e+04,2.486379146575927734e-01,1.591945886611938477e+00,3.532007831273584197e-01,0.000000000000000000e+00,1.110000000000000000e+02
0.000000000000000000e+00,1.000000000000000000e+00,0.000000000000000000e+00,6.400000000000000000e+01,2.411500000000000000e+04,2.650249004364013672e-01,1.870576858520507812e+00,6.068544748049745641e-01,0.000000000000000000e+00,1.110000000000000000e+02
0.000000000000000000e+00,0.000000000000000000e+00,1.000000000000000000e+00,4.100000000000000000e+01,2.415600000000000000e+04,2.704408168792724609e-01,1.596219062805175781e+00,3.367952000421228775e-01,1.000000000000000000e+00,1.120000000000000000e+02
1.000000000000000000e+00,1.000000000000000000e+00,1.000000000000000000e+00,6.200000000000000000e+01,2.421800000000000000e+04,2.884891033172607422e-01,1.890619993209838867e+00,6.105226026229116920e-01,0.000000000000000000e+00,1.120000000000000000e+02
1.000000000000000000e+00,1.000000000000000000e+00,1.000000000000000000e+00,6.200000000000000000e+01,2.428000000000000000e+04,3.312640190124511719e-01,1.935343027114868164e+00,6.126203674150900724e-01,0.000000000000000000e+00,1.120000000000000000e+02
0.000000000000000000e+00,1.000000000000000000e+00,0.000000000000000000e+00,6.400000000000000000e+01,2.434400000000000000e+04,3.009698390960693359e-01,1.911652088165283203e+00,6.243286271186641034e-01,0.000000000000000000e+00,1.120000000000000000e+02
0.000000000000000000e+00,1.000000000000000000e+00,0.000000000000000000e+00,5.700000000000000000e+01,2.440100000000000000e+04,2.989780902862548828e-01,1.587368965148925781e+00,2.951304247499501598e-01,0.000000000000000000e+00,1.120000000000000000e+02
1.000000000000000000e+00,1.000000000000000000e+00,1.000000000000000000e+00,6.000000000000000000e+01,2.446100000000000000e+04,3.531160354614257812e-01,2.024286031723022461e+00,6.856548033515090790e-01,0.000000000000000000e+00,1.120000000000000000e+02
1.000000000000000000e+00,1.000000000000000000e+00,1.000000000000000000e+00,6.100000000000000000e+01,2.452200000000000000e+04,2.775359153747558594e-01,2.015141010284423828e+00,7.340209009447449251e-01,0.000000000000000000e+00,1.120000000000000000e+02
0.000000000000000000e+00,1.000000000000000000e+00,0.000000000000000000e+00,5.500000000000000000e+01,2.457700000000000000e+04,2.962579727172851562e-01,1.910302877426147461e+00,6.116912514124018818e-01,0.000000000000000000e+00,1.120000000000000000e+02
1.000000000000000000e+00,1.000000000000000000e+00,1.000000000000000000e+00,5.700000000000000000e+01,2.463400000000000000e+04,3.183999061584472656e-01,1.757461071014404297e+00,4.527363878038328515e-01,0.000000000000000000e+00,1.120000000000000000e+02
