choice, accuracy, solution,  reward, cumulative_reward, rt,  total_trial_time, iti, cp_with_slow_fast, high_val_cue
0.000000000000000000e+00,0.000000000000000000e+00,1.000000000000000000e+00,4.100000000000000000e+01,4.100000000000000000e+01,5.322191715240478516e-01,1.821991205215454102e+00,2.904238265461394630e-01,0.000000000000000000e+00,1.120000000000000000e+02
0.000000000000000000e+00,1.000000000000000000e+00,0.000000000000000000e+00,5.600000000000000000e+01,9.700000000000000000e+01,3.456988334655761719e-01,1.959694862365722656e+00,6.165198869332433329e-01,0.000000000000000000e+00,1.120000000000000000e+02
0.000000000000000000e+00,1.000000000000000000e+00,0.000000000000000000e+00,5.400000000000000000e+01,1.510000000000000000e+02,2.550830841064453125e-01,1.620841979980468750e+00,3.710089988904334835e-01,0.000000000000000000e+00,1.120000000000000000e+02
0.000000000000000000e+00,1.000000000000000000e+00,0.000000000000000000e+00,5.500000000000000000e+01,2.060000000000000000e+02,2.735321521759033203e-01,1.519426107406616211e+00,2.572961243351719607e-01,0.000000000000000000e+00,1.120000000000000000e+02
0.000000000000000000e+00,0.000000000000000000e+00,1.000000000000000000e+00,3.900000000000000000e+01,2.450000000000000000e+02,3.230328559875488281e-01,1.700252056121826172e+00,3.907694934141209275e-01,0.000000000000000000e+00,1.120000000000000000e+02
1.000000000000000000e+00,1.000000000000000000e+00,1.000000000000000000e+00,5.600000000000000000e+01,3.010000000000000000e+02,2.880098819732666016e-01,1.985693931579589844e+00,7.095521687669557043e-01,0.000000000000000000e+00,1.120000000000000000e+02
0.000000000000000000e+00,1.000000000000000000e+00,0.000000000000000000e+00,5.600000000000000000e+01,3.570000000000000000e+02,2.467489242553710938e-01,1.522367954254150391e+00,2.824207180664430328e-01,0.000000000000000000e+00,1.120000000000000000e+02
1.000000000000000000e+00,1.000000000000000000e+00,1.000000000000000000e+00,5.600000000000000000e+01,4.130000000000000000e+02,2.615380287170410156e-01,1.971285104751586914e+00,7.199857707699410803e-01,0.000000000000000000e+00,1.120000000000000000e+02
1.000000000000000000e+00,0.000000000000000000e+00,0.000000000000000000e+00,4.000000000000000000e+01,4.530000000000000000e+02,2.567889690399169922e-01,1.743137121200561523e+00,4.967351577507139182e-01,0.000000000000000000e+00,1.120000000000000000e+02
0.000000000000000000e+00,1.000000000000000000e+00,0.000000000000000000e+00,6.100000000000000000e+01,5.140000000000000000e+02,2.395119667053222656e-01,1.512017011642456055e+00,2.923874748142432645e-01,0.000000000000000000e+00,1.120000000000000000e+02
0.000000000000000000e+00,1.000000000000000000e+00,0.000000000000000000e+00,6.000000000000000000e+01,5.740000000000000000e+02,2.519371509552001953e-01,1.785837888717651367e+00,5.446325808761260934e-01,0.000000000000000000e+00,1.120000000000000000e+02
1.000000000000000000e+00,1.000000000000000000e+00,1.000000000000000000e+00,5.700000000000000000e+01,6.310000000000000000e+02,4.936370849609375000e-01,2.204594135284423828e+00,7.324631962557984766e-01,0.000000000000000000e+00,1.120000000000000000e+02
0.000000000000000000e+00,1.000000000000000000e+00,0.000000000000000000e+00,5.500000000000000000e+01,6.860000000000000000e+02,2.880499362945556641e-01,1.829950094223022461e+00,5.459771026752597844e-01,0.000000000000000000e+00,1.120000000000000000e+02
1.000000000000000000e+00,1.000000000000000000e+00,1.000000000000000000e+00,5.900000000000000000e+01,7.450000000000000000e+02,2.964830398559570312e-01,1.806450843811035156e+00,5.191553466025370378e-01,0.000000000000000000e+00,1.120000000000000000e+02
1.000000000000000000e+00,1.000000000000000000e+00,1.000000000000000000e+00,6.400000000000000000e+01,8.090000000000000000e+02,2.808489799499511719e-01,1.859937906265258789e+00,5.790855297865120654e-01,0.000000000000000000e+00,1.120000000000000000e+02
1.000000000000000000e+00,1.000000000000000000e+00,1.000000000000000000e+00,5.600000000000000000e+01,8.650000000000000000e+02,2.090380191802978516e-01,1.757282018661499023e+00,5.697747581038281606e-01,0.000000000000000000e+00,1.120000000000000000e+02
1.000000000000000000e+00,1.000000000000000000e+00,1.000000000000000000e+00,5.300000000000000000e+01,9.180000000000000000e+02,2.182221412658691406e-01,1.726078987121582031e+00,5.126684285741907043e-01,0.000000000000000000e+00,1.120000000000000000e+02
0.000000000000000000e+00,1.000000000000000000e+00,0.000000000000000000e+00,5.200000000000000000e+01,9.700000000000000000e+02,2.997081279754638672e-01,1.631946802139282227e+00,3.447895501762292536e-01,0.000000000000000000e+00,1.120000000000000000e+02
0.000000000000000000e+00,1.000000000000000000e+00,0.000000000000000000e+00,5.700000000000000000e+01,1.027000000000000000e+03,2.603480815887451172e-01,1.739113807678222656e+00,5.005221691194050582e-01,0.000000000000000000e+00,1.120000000000000000e+02
0.000000000000000000e+00,1.000000000000000000e+00,0.000000000000000000e+00,5.000000000000000000e+01,1.077000000000000000e+03,2.355229854583740234e-01,1.691465854644775391e+00,4.587426472790956944e-01,0.000000000000000000e+00,1.120000000000000000e+02
0.000000000000000000e+00,1.000000000000000000e+00,0.000000000000000000e+00,5.400000000000000000e+01,1.131000000000000000e+03,2.452130317687988281e-01,1.853193998336791992e+00,6.118493249883308893e-01,0.000000000000000000e+00,1.120000000000000000e+02
0.000000000000000000e+00,0.000000000000000000e+00,1.000000000000000000e+00,4.600000000000000000e+01,1.177000000000000000e+03,2.763609886169433594e-01,1.793605804443359375e+00,5.388961385514593472e-01,0.000000000000000000e+00,1.120000000000000000e+02
1.000000000000000000e+00,1.000000000000000000e+00,1.000000000000000000e+00,5.600000000000000000e+01,1.233000000000000000e+03,2.763469219207763672e-01,1.802279949188232422e+00,5.412508981362122995e-01,0.000000000000000000e+00,1.120000000000000000e+02
0.000000000000000000e+00,1.000000000000000000e+00,0.000000000000000000e+00,6.000000000000000000e+01,1.293000000000000000e+03,2.884609699249267578e-01,2.013998031616210938e+00,7.384159034490481721e-01,0.000000000000000000e+00,1.120000000000000000e+02
1.000000000000000000e+00,1.000000000000000000e+00,1.000000000000000000e+00,5.900000000000000000e+01,1.352000000000000000e+03,3.287370204925537109e-01,1.652564048767089844e+00,3.248475510292183066e-01,0.000000000000000000e+00,1.120000000000000000e+02
0.000000000000000000e+00,1.000000000000000000e+00,0.000000000000000000e+00,5.600000000000000000e+01,1.408000000000000000e+03,2.878630161285400391e-01,1.628230810165405273e+00,3.530918010280622021e-01,0.000000000000000000e+00,1.120000000000000000e+02
1.000000000000000000e+00,1.000000000000000000e+00,1.000000000000000000e+00,5.900000000000000000e+01,1.467000000000000000e+03,2.496068477630615234e-01,1.804940938949584961e+00,5.579047958150329389e-01,0.000000000000000000e+00,1.120000000000000000e+02
0.000000000000000000e+00,1.000000000000000000e+00,0.000000000000000000e+00,5.900000000000000000e+01,1.526000000000000000e+03,2.566211223602294922e-01,1.978159904479980469e+00,7.359334282560689999e-01,0.000000000000000000e+00,1.120000000000000000e+02
1.000000000000000000e+00,1.000000000000000000e+00,1.000000000000000000e+00,5.600000000000000000e+01,1.582000000000000000e+03,2.593910694122314453e-01,1.728048086166381836e+00,4.809877861789091935e-01,0.000000000000000000e+00,1.120000000000000000e+02
1.000000000000000000e+00,1.000000000000000000e+00,1.000000000000000000e+00,5.900000000000000000e+01,1.641000000000000000e+03,2.886610031127929688e-01,2.010153055191040039e+00,7.409064346734127726e-01,0.000000000000000000e+00,1.120000000000000000e+02
1.000000000000000000e+00,1.000000000000000000e+00,1.000000000000000000e+00,5.600000000000000000e+01,1.697000000000000000e+03,2.341718673706054688e-01,1.588208913803100586e+00,3.628887279250121445e-01,0.000000000000000000e+00,1.120000000000000000e+02
1.000000000000000000e+00,1.000000000000000000e+00,1.000000000000000000e+00,5.900000000000000000e+01,1.756000000000000000e+03,2.889649868011474609e-01,1.566023111343383789e+00,2.957459303438125797e-01,0.000000000000000000e+00,1.120000000000000000e+02
1.000000000000000000e+00,0.000000000000000000e+00,0.000000000000000000e+00,4.200000000000000000e+01,1.798000000000000000e+03,3.563048839569091797e-01,2.038506031036376953e+00,7.005529576763080968e-01,0.000000000000000000e+00,1.120000000000000000e+02
1.000000000000000000e+00,1.000000000000000000e+00,1.000000000000000000e+00,5.600000000000000000e+01,1.854000000000000000e+03,2.643778324127197266e-01,1.519484043121337891e+00,2.538928221342753311e-01,0.000000000000000000e+00,1.120000000000000000e+02
1.000000000000000000e+00,1.000000000000000000e+00,1.000000000000000000e+00,5.400000000000000000e+01,1.908000000000000000e+03,3.517439365386962891e-01,1.716089963912963867e+00,3.699002780992348138e-01,0.000000000000000000e+00,1.120000000000000000e+02
1.000000000000000000e+00,1.000000000000000000e+00,1.000000000000000000e+00,5.600000000000000000e+01,1.964000000000000000e+03,2.491281032562255859e-01,1.523074150085449219e+00,2.764461888524057387e-01,0.000000000000000000e+00,1.120000000000000000e+02
0.000000000000000000e+00,0.000000000000000000e+00,1.000000000000000000e+00,5.000000000000000000e+01,2.014000000000000000e+03,3.145160675048828125e-01,1.727653980255126953e+00,4.206937717046221326e-01,1.000000000000000000e+00,1.110000000000000000e+02
1.000000000000000000e+00,0.000000000000000000e+00,0.000000000000000000e+00,4.400000000000000000e+01,2.058000000000000000e+03,2.762749195098876953e-01,1.844692945480346680e+00,5.819581045376072126e-01,0.000000000000000000e+00,1.110000000000000000e+02
0.000000000000000000e+00,1.000000000000000000e+00,0.000000000000000000e+00,5.200000000000000000e+01,2.110000000000000000e+03,5.183148384094238281e-01,1.924610137939453125e+00,4.068084833236741416e-01,0.000000000000000000e+00,1.110000000000000000e+02
1.000000000000000000e+00,1.000000000000000000e+00,1.000000000000000000e+00,5.600000000000000000e+01,2.166000000000000000e+03,2.747008800506591797e-01,1.980113983154296875e+00,7.200028926115646932e-01,0.000000000000000000e+00,1.110000000000000000e+02
0.000000000000000000e+00,1.000000000000000000e+00,0.000000000000000000e+00,5.600000000000000000e+01,2.222000000000000000e+03,3.004689216613769531e-01,1.980940103530883789e+00,6.843832817286379377e-01,0.000000000000000000e+00,1.110000000000000000e+02
0.000000000000000000e+00,1.000000000000000000e+00,0.000000000000000000e+00,5.400000000000000000e+01,2.276000000000000000e+03,3.162949085235595703e-01,1.985187053680419922e+00,6.696472852402022280e-01,0.000000000000000000e+00,1.110000000000000000e+02
0.000000000000000000e+00,1.000000000000000000e+00,0.000000000000000000e+00,6.000000000000000000e+01,2.336000000000000000e+03,3.319120407104492188e-01,2.063375949859619141e+00,7.330610579318280751e-01,0.000000000000000000e+00,1.110000000000000000e+02
1.000000000000000000e+00,1.000000000000000000e+00,1.000000000000000000e+00,5.400000000000000000e+01,2.390000000000000000e+03,3.093039989471435547e-01,1.917081832885742188e+00,6.169604651984332833e-01,0.000000000000000000e+00,1.110000000000000000e+02
0.000000000000000000e+00,1.000000000000000000e+00,0.000000000000000000e+00,5.600000000000000000e+01,2.446000000000000000e+03,2.457449436187744141e-01,1.707673072814941406e+00,4.581947703159943153e-01,0.000000000000000000e+00,1.110000000000000000e+02
1.000000000000000000e+00,1.000000000000000000e+00,1.000000000000000000e+00,5.100000000000000000e+01,2.497000000000000000e+03,2.538099288940429688e-01,1.796100139617919922e+00,5.542555401546938043e-01,0.000000000000000000e+00,1.110000000000000000e+02
1.000000000000000000e+00,1.000000000000000000e+00,1.000000000000000000e+00,5.200000000000000000e+01,2.549000000000000000e+03,3.098800182342529297e-01,1.930563926696777344e+00,6.181515308670542108e-01,0.000000000000000000e+00,1.110000000000000000e+02
0.000000000000000000e+00,1.000000000000000000e+00,0.000000000000000000e+00,5.000000000000000000e+01,2.599000000000000000e+03,2.815620899200439453e-01,1.709915876388549805e+00,4.282951415284677044e-01,0.000000000000000000e+00,1.110000000000000000e+02
0.000000000000000000e+00,1.000000000000000000e+00,0.000000000000000000e+00,5.600000000000000000e+01,2.655000000000000000e+03,3.215570449829101562e-01,2.013036012649536133e+00,7.078024660753439168e-01,0.000000000000000000e+00,1.110000000000000000e+02
1.000000000000000000e+00,1.000000000000000000e+00,1.000000000000000000e+00,5.600000000000000000e+01,2.711000000000000000e+03,2.490229606628417969e-01,1.590767145156860352e+00,3.489878483741208348e-01,0.000000000000000000e+00,1.110000000000000000e+02
0.000000000000000000e+00,1.000000000000000000e+00,0.000000000000000000e+00,6.100000000000000000e+01,2.772000000000000000e+03,2.840769290924072266e-01,1.587082862854003906e+00,3.028258760742141287e-01,0.000000000000000000e+00,1.110000000000000000e+02
1.000000000000000000e+00,1.000000000000000000e+00,1.000000000000000000e+00,5.400000000000000000e+01,2.826000000000000000e+03,3.128190040588378906e-01,1.603547096252441406e+00,2.897877700493057818e-01,0.000000000000000000e+00,1.110000000000000000e+02
0.000000000000000000e+00,1.000000000000000000e+00,0.000000000000000000e+00,5.300000000000000000e+01,2.879000000000000000e+03,3.118948936462402344e-01,1.955748081207275391e+00,6.452144338922920497e-01,0.000000000000000000e+00,1.110000000000000000e+02
1.000000000000000000e+00,1.000000000000000000e+00,1.000000000000000000e+00,5.000000000000000000e+01,2.929000000000000000e+03,3.170340061187744141e-01,1.808089017868041992e+00,5.035150163218338193e-01,0.000000000000000000e+00,1.110000000000000000e+02
0.000000000000000000e+00,1.000000000000000000e+00,0.000000000000000000e+00,5.400000000000000000e+01,2.983000000000000000e+03,2.951900959014892578e-01,1.771605968475341797e+00,4.752358778935684702e-01,0.000000000000000000e+00,1.110000000000000000e+02
0.000000000000000000e+00,1.000000000000000000e+00,0.000000000000000000e+00,5.300000000000000000e+01,3.036000000000000000e+03,3.407168388366699219e-01,1.634171009063720703e+00,3.096309376177832084e-01,0.000000000000000000e+00,1.110000000000000000e+02
1.000000000000000000e+00,1.000000000000000000e+00,1.000000000000000000e+00,5.200000000000000000e+01,3.088000000000000000e+03,4.265267848968505859e-01,1.665884017944335938e+00,2.589728499971062359e-01,0.000000000000000000e+00,1.110000000000000000e+02
1.000000000000000000e+00,1.000000000000000000e+00,1.000000000000000000e+00,5.600000000000000000e+01,3.144000000000000000e+03,4.788591861724853516e-01,2.194316864013671875e+00,7.200325473527194875e-01,0.000000000000000000e+00,1.110000000000000000e+02
1.000000000000000000e+00,1.000000000000000000e+00,1.000000000000000000e+00,5.300000000000000000e+01,3.197000000000000000e+03,3.639171123504638672e-01,1.971962213516235352e+00,6.083572620251542773e-01,0.000000000000000000e+00,1.110000000000000000e+02
1.000000000000000000e+00,1.000000000000000000e+00,1.000000000000000000e+00,5.000000000000000000e+01,3.247000000000000000e+03,3.503201007843017578e-01,1.814710855484008789e+00,4.732678174575661312e-01,0.000000000000000000e+00,1.110000000000000000e+02
1.000000000000000000e+00,1.000000000000000000e+00,1.000000000000000000e+00,5.400000000000000000e+01,3.301000000000000000e+03,3.457369804382324219e-01,1.683003187179565430e+00,3.398082265751627418e-01,0.000000000000000000e+00,1.110000000000000000e+02
0.000000000000000000e+00,1.000000000000000000e+00,0.000000000000000000e+00,5.600000000000000000e+01,3.357000000000000000e+03,3.974370956420898438e-01,2.053628921508789062e+00,6.598486577184943247e-01,0.000000000000000000e+00,1.110000000000000000e+02
1.000000000000000000e+00,1.000000000000000000e+00,1.000000000000000000e+00,5.400000000000000000e+01,3.411000000000000000e+03,3.334529399871826172e-01,2.006380081176757812e+00,6.829246092155026870e-01,0.000000000000000000e+00,1.110000000000000000e+02
1.000000000000000000e+00,1.000000000000000000e+00,1.000000000000000000e+00,5.400000000000000000e+01,3.465000000000000000e+03,3.250131607055664062e-01,1.600305795669555664e+00,2.836872037398665558e-01,0.000000000000000000e+00,1.110000000000000000e+02
0.000000000000000000e+00,1.000000000000000000e+00,0.000000000000000000e+00,5.200000000000000000e+01,3.517000000000000000e+03,5.280280113220214844e-01,2.118323802947998047e+00,5.851233828741674303e-01,0.000000000000000000e+00,1.110000000000000000e+02
0.000000000000000000e+00,1.000000000000000000e+00,0.000000000000000000e+00,6.000000000000000000e+01,3.577000000000000000e+03,3.514080047607421875e-01,1.761163949966430664e+00,4.132044884546686725e-01,0.000000000000000000e+00,1.110000000000000000e+02
0.000000000000000000e+00,1.000000000000000000e+00,0.000000000000000000e+00,5.600000000000000000e+01,3.633000000000000000e+03,3.184850215911865234e-01,1.720191955566406250e+00,4.167748537894073735e-01,0.000000000000000000e+00,1.110000000000000000e+02
1.000000000000000000e+00,0.000000000000000000e+00,0.000000000000000000e+00,4.300000000000000000e+01,3.676000000000000000e+03,2.792041301727294922e-01,1.998699903488159180e+00,7.152442399524747696e-01,1.000000000000000000e+00,1.120000000000000000e+02
1.000000000000000000e+00,1.000000000000000000e+00,1.000000000000000000e+00,5.300000000000000000e+01,3.729000000000000000e+03,2.842721939086914062e-01,1.674542903900146484e+00,3.901965135621724423e-01,0.000000000000000000e+00,1.120000000000000000e+02
0.000000000000000000e+00,1.000000000000000000e+00,0.000000000000000000e+00,5.200000000000000000e+01,3.781000000000000000e+03,2.976911067962646484e-01,1.629089117050170898e+00,3.360194579785094060e-01,0.000000000000000000e+00,1.120000000000000000e+02
0.000000000000000000e+00,1.000000000000000000e+00,0.000000000000000000e+00,5.600000000000000000e+01,3.837000000000000000e+03,3.443748950958251953e-01,1.686130046844482422e+00,3.388986216104591387e-01,0.000000000000000000e+00,1.120000000000000000e+02
1.000000000000000000e+00,1.000000000000000000e+00,1.000000000000000000e+00,5.600000000000000000e+01,3.893000000000000000e+03,3.011741638183593750e-01,1.859894990921020508e+00,5.652823555389028254e-01,0.000000000000000000e+00,1.120000000000000000e+02
0.000000000000000000e+00,1.000000000000000000e+00,0.000000000000000000e+00,5.700000000000000000e+01,3.950000000000000000e+03,3.204951286315917969e-01,1.870820045471191406e+00,5.528379701318725248e-01,0.000000000000000000e+00,1.120000000000000000e+02
0.000000000000000000e+00,1.000000000000000000e+00,0.000000000000000000e+00,5.600000000000000000e+01,4.006000000000000000e+03,3.059110641479492188e-01,1.795706987380981445e+00,4.986747400498340310e-01,0.000000000000000000e+00,1.120000000000000000e+02
0.000000000000000000e+00,1.000000000000000000e+00,0.000000000000000000e+00,6.200000000000000000e+01,4.068000000000000000e+03,2.946209907531738281e-01,1.683987855911254883e+00,4.161373314392426970e-01,0.000000000000000000e+00,1.120000000000000000e+02
0.000000000000000000e+00,1.000000000000000000e+00,0.000000000000000000e+00,5.700000000000000000e+01,4.125000000000000000e+03,2.916440963745117188e-01,1.586542844772338867e+00,3.028537560150801888e-01,0.000000000000000000e+00,1.120000000000000000e+02
0.000000000000000000e+00,1.000000000000000000e+00,0.000000000000000000e+00,5.300000000000000000e+01,4.178000000000000000e+03,3.564062118530273438e-01,2.023055076599121094e+00,6.755878773160302053e-01,0.000000000000000000e+00,1.120000000000000000e+02
0.000000000000000000e+00,1.000000000000000000e+00,0.000000000000000000e+00,5.500000000000000000e+01,4.233000000000000000e+03,3.248050212860107422e-01,2.007977008819580078e+00,7.003100945002691535e-01,0.000000000000000000e+00,1.120000000000000000e+02
1.000000000000000000e+00,1.000000000000000000e+00,1.000000000000000000e+00,6.000000000000000000e+01,4.293000000000000000e+03,2.982511520385742188e-01,1.876189231872558594e+00,5.766906862834026981e-01,0.000000000000000000e+00,1.120000000000000000e+02
0.000000000000000000e+00,1.000000000000000000e+00,0.000000000000000000e+00,5.600000000000000000e+01,4.349000000000000000e+03,2.957248687744140625e-01,1.725543975830078125e+00,4.357631055030959377e-01,0.000000000000000000e+00,1.120000000000000000e+02
1.000000000000000000e+00,1.000000000000000000e+00,1.000000000000000000e+00,6.400000000000000000e+01,4.413000000000000000e+03,3.573729991912841797e-01,2.085811853408813477e+00,7.380006697889405221e-01,0.000000000000000000e+00,1.120000000000000000e+02
1.000000000000000000e+00,1.000000000000000000e+00,1.000000000000000000e+00,5.400000000000000000e+01,4.467000000000000000e+03,2.571418285369873047e-01,1.921064853668212891e+00,6.758588674395593632e-01,0.000000000000000000e+00,1.120000000000000000e+02
0.000000000000000000e+00,1.000000000000000000e+00,0.000000000000000000e+00,5.600000000000000000e+01,4.523000000000000000e+03,3.015840053558349609e-01,1.969634056091308594e+00,6.789038610881976687e-01,0.000000000000000000e+00,1.120000000000000000e+02
0.000000000000000000e+00,1.000000000000000000e+00,0.000000000000000000e+00,5.300000000000000000e+01,4.576000000000000000e+03,3.920052051544189453e-01,1.681353092193603516e+00,3.107018489719936549e-01,0.000000000000000000e+00,1.120000000000000000e+02
1.000000000000000000e+00,1.000000000000000000e+00,1.000000000000000000e+00,5.600000000000000000e+01,4.632000000000000000e+03,4.026458263397216797e-01,2.075066089630126953e+00,6.854457641398805645e-01,0.000000000000000000e+00,1.120000000000000000e+02
1.000000000000000000e+00,1.000000000000000000e+00,1.000000000000000000e+00,5.100000000000000000e+01,4.683000000000000000e+03,2.764611244201660156e-01,1.705647945404052734e+00,4.414220391141971400e-01,0.000000000000000000e+00,1.120000000000000000e+02
1.000000000000000000e+00,1.000000000000000000e+00,1.000000000000000000e+00,5.400000000000000000e+01,4.737000000000000000e+03,3.124618530273437500e-01,1.597151994705200195e+00,2.887315964129416046e-01,0.000000000000000000e+00,1.120000000000000000e+02
1.000000000000000000e+00,1.000000000000000000e+00,1.000000000000000000e+00,6.100000000000000000e+01,4.798000000000000000e+03,3.043830394744873047e-01,1.687122106552124023e+00,3.924521198136191602e-01,0.000000000000000000e+00,1.120000000000000000e+02
1.000000000000000000e+00,1.000000000000000000e+00,1.000000000000000000e+00,5.600000000000000000e+01,4.854000000000000000e+03,3.332669734954833984e-01,1.847625017166137695e+00,5.233185573622809450e-01,0.000000000000000000e+00,1.120000000000000000e+02
1.000000000000000000e+00,1.000000000000000000e+00,1.000000000000000000e+00,5.900000000000000000e+01,4.913000000000000000e+03,2.862579822540283203e-01,1.740024089813232422e+00,4.634821491227149592e-01,0.000000000000000000e+00,1.120000000000000000e+02
1.000000000000000000e+00,1.000000000000000000e+00,1.000000000000000000e+00,5.700000000000000000e+01,4.970000000000000000e+03,2.649998664855957031e-01,1.894947052001953125e+00,6.416421731896373437e-01,0.000000000000000000e+00,1.120000000000000000e+02
1.000000000000000000e+00,1.000000000000000000e+00,1.000000000000000000e+00,5.400000000000000000e+01,5.024000000000000000e+03,2.420711517333984375e-01,1.679411888122558594e+00,4.546293996118934699e-01,0.000000000000000000e+00,1.120000000000000000e+02
0.000000000000000000e+00,0.000000000000000000e+00,1.000000000000000000e+00,4.700000000000000000e+01,5.071000000000000000e+03,3.466989994049072266e-01,2.054292917251586914e+00,7.087215740835156597e-01,1.000000000000000000e+00,1.110000000000000000e+02
0.000000000000000000e+00,0.000000000000000000e+00,1.000000000000000000e+00,4.400000000000000000e+01,5.115000000000000000e+03,3.008530139923095703e-01,1.751000881195068359e+00,4.600572394600547788e-01,0.000000000000000000e+00,1.110000000000000000e+02
1.000000000000000000e+00,1.000000000000000000e+00,1.000000000000000000e+00,5.500000000000000000e+01,5.170000000000000000e+03,3.500220775604248047e-01,1.691342830657958984e+00,3.515786985140236798e-01,0.000000000000000000e+00,1.110000000000000000e+02
1.000000000000000000e+00,1.000000000000000000e+00,1.000000000000000000e+00,5.200000000000000000e+01,5.222000000000000000e+03,3.349628448486328125e-01,2.064143896102905273e+00,7.320622978941564440e-01,0.000000000000000000e+00,1.110000000000000000e+02
1.000000000000000000e+00,1.000000000000000000e+00,1.000000000000000000e+00,5.300000000000000000e+01,5.275000000000000000e+03,2.494590282440185547e-01,1.750765085220336914e+00,4.998094561718118833e-01,0.000000000000000000e+00,1.110000000000000000e+02
1.000000000000000000e+00,1.000000000000000000e+00,1.000000000000000000e+00,5.600000000000000000e+01,5.331000000000000000e+03,2.515008449554443359e-01,1.607599020004272461e+00,3.575888070319207523e-01,0.000000000000000000e+00,1.110000000000000000e+02
1.000000000000000000e+00,1.000000000000000000e+00,1.000000000000000000e+00,5.500000000000000000e+01,5.386000000000000000e+03,2.385230064392089844e-01,1.863545894622802734e+00,6.375835973384120781e-01,0.000000000000000000e+00,1.110000000000000000e+02
1.000000000000000000e+00,1.000000000000000000e+00,1.000000000000000000e+00,5.400000000000000000e+01,5.440000000000000000e+03,2.989058494567871094e-01,1.669696092605590820e+00,3.742408269992442138e-01,0.000000000000000000e+00,1.110000000000000000e+02
0.000000000000000000e+00,1.000000000000000000e+00,0.000000000000000000e+00,5.100000000000000000e+01,5.491000000000000000e+03,3.892288208007812500e-01,2.044709920883178711e+00,6.687493076028672156e-01,0.000000000000000000e+00,1.110000000000000000e+02
1.000000000000000000e+00,1.000000000000000000e+00,1.000000000000000000e+00,5.600000000000000000e+01,5.547000000000000000e+03,2.523450851440429688e-01,1.544268846511840820e+00,2.967972578609322509e-01,0.000000000000000000e+00,1.110000000000000000e+02
0.000000000000000000e+00,1.000000000000000000e+00,0.000000000000000000e+00,5.600000000000000000e+01,5.603000000000000000e+03,5.111548900604248047e-01,1.976690769195556641e+00,4.900175385547961282e-01,0.000000000000000000e+00,1.110000000000000000e+02
1.000000000000000000e+00,1.000000000000000000e+00,1.000000000000000000e+00,5.300000000000000000e+01,5.656000000000000000e+03,2.868239879608154297e-01,1.894472837448120117e+00,6.177430413300470935e-01,0.000000000000000000e+00,1.110000000000000000e+02
0.000000000000000000e+00,1.000000000000000000e+00,0.000000000000000000e+00,5.500000000000000000e+01,5.711000000000000000e+03,3.218939304351806641e-01,1.769680976867675781e+00,4.543145891117822965e-01,0.000000000000000000e+00,1.110000000000000000e+02
0.000000000000000000e+00,1.000000000000000000e+00,0.000000000000000000e+00,5.200000000000000000e+01,5.763000000000000000e+03,4.243118762969970703e-01,1.948529958724975586e+00,5.361757203659009985e-01,0.000000000000000000e+00,1.110000000000000000e+02
0.000000000000000000e+00,1.000000000000000000e+00,0.000000000000000000e+00,5.600000000000000000e+01,5.819000000000000000e+03,3.533489704132080078e-01,1.917539119720458984e+00,5.704200560630525718e-01,0.000000000000000000e+00,1.110000000000000000e+02
1.000000000000000000e+00,1.000000000000000000e+00,1.000000000000000000e+00,5.600000000000000000e+01,5.875000000000000000e+03,2.867970466613769531e-01,1.823324918746948242e+00,5.438714607296173398e-01,0.000000000000000000e+00,1.110000000000000000e+02
0.000000000000000000e+00,1.000000000000000000e+00,0.000000000000000000e+00,6.100000000000000000e+01,5.936000000000000000e+03,2.991781234741210938e-01,2.000862121582031250e+00,7.112856967395867480e-01,0.000000000000000000e+00,1.110000000000000000e+02
0.000000000000000000e+00,1.000000000000000000e+00,0.000000000000000000e+00,5.300000000000000000e+01,5.989000000000000000e+03,3.332362174987792969e-01,1.805435895919799805e+00,4.836744441991654431e-01,0.000000000000000000e+00,1.110000000000000000e+02
1.000000000000000000e+00,1.000000000000000000e+00,1.000000000000000000e+00,6.100000000000000000e+01,6.050000000000000000e+03,3.116328716278076172e-01,2.000607013702392578e+00,6.841097190417166907e-01,0.000000000000000000e+00,1.110000000000000000e+02
0.000000000000000000e+00,1.000000000000000000e+00,0.000000000000000000e+00,5.600000000000000000e+01,6.106000000000000000e+03,2.937669754028320312e-01,1.714699983596801758e+00,4.158584167049564906e-01,0.000000000000000000e+00,1.110000000000000000e+02
0.000000000000000000e+00,1.000000000000000000e+00,0.000000000000000000e+00,5.600000000000000000e+01,6.162000000000000000e+03,3.129770755767822266e-01,1.646634101867675781e+00,3.293162259503445433e-01,0.000000000000000000e+00,1.110000000000000000e+02
1.000000000000000000e+00,1.000000000000000000e+00,1.000000000000000000e+00,5.600000000000000000e+01,6.218000000000000000e+03,3.887388706207275391e-01,1.923062086105346680e+00,5.521995225145198694e-01,0.000000000000000000e+00,1.110000000000000000e+02
0.000000000000000000e+00,1.000000000000000000e+00,0.000000000000000000e+00,0.000000000000000000e+00,6.218000000000000000e+03,6.346702575683593750e-02,5.721775054931640625e+00,5.408337451637046378e-01,-2.000000000000000000e+00,1.110000000000000000e+02
0.000000000000000000e+00,1.000000000000000000e+00,0.000000000000000000e+00,5.600000000000000000e+01,6.274000000000000000e+03,3.110771179199218750e-01,1.713799953460693359e+00,4.215013512808450935e-01,0.000000000000000000e+00,1.110000000000000000e+02
1.000000000000000000e+00,1.000000000000000000e+00,1.000000000000000000e+00,5.600000000000000000e+01,6.330000000000000000e+03,3.424880504608154297e-01,2.028846025466918945e+00,7.001161870215882876e-01,0.000000000000000000e+00,1.110000000000000000e+02
1.000000000000000000e+00,1.000000000000000000e+00,1.000000000000000000e+00,5.700000000000000000e+01,6.387000000000000000e+03,3.972330093383789062e-01,2.085345029830932617e+00,6.855357214614563599e-01,0.000000000000000000e+00,1.110000000000000000e+02
0.000000000000000000e+00,1.000000000000000000e+00,0.000000000000000000e+00,5.500000000000000000e+01,6.442000000000000000e+03,2.949190139770507812e-01,1.733434915542602539e+00,4.359810399754918131e-01,0.000000000000000000e+00,1.110000000000000000e+02
0.000000000000000000e+00,1.000000000000000000e+00,0.000000000000000000e+00,5.900000000000000000e+01,6.501000000000000000e+03,3.647398948669433594e-01,1.834544181823730469e+00,4.705008031181751593e-01,0.000000000000000000e+00,1.110000000000000000e+02
1.000000000000000000e+00,1.000000000000000000e+00,1.000000000000000000e+00,6.400000000000000000e+01,6.565000000000000000e+03,3.153529167175292969e-01,1.602945089340209961e+00,2.903786485004667961e-01,0.000000000000000000e+00,1.110000000000000000e+02
1.000000000000000000e+00,1.000000000000000000e+00,1.000000000000000000e+00,5.400000000000000000e+01,6.619000000000000000e+03,3.553779125213623047e-01,2.053066968917846680e+00,7.097431012080808177e-01,0.000000000000000000e+00,1.110000000000000000e+02
1.000000000000000000e+00,1.000000000000000000e+00,1.000000000000000000e+00,6.000000000000000000e+01,6.679000000000000000e+03,3.684349060058593750e-01,1.972313880920410156e+00,6.155615564568033271e-01,0.000000000000000000e+00,1.110000000000000000e+02
1.000000000000000000e+00,1.000000000000000000e+00,1.000000000000000000e+00,5.400000000000000000e+01,6.733000000000000000e+03,3.421461582183837891e-01,1.910760164260864258e+00,5.764260330718953274e-01,0.000000000000000000e+00,1.110000000000000000e+02
0.000000000000000000e+00,1.000000000000000000e+00,0.000000000000000000e+00,5.100000000000000000e+01,6.784000000000000000e+03,3.431928157806396484e-01,1.624844074249267578e+00,3.016065011485972724e-01,0.000000000000000000e+00,1.110000000000000000e+02
1.000000000000000000e+00,0.000000000000000000e+00,0.000000000000000000e+00,4.900000000000000000e+01,6.833000000000000000e+03,3.249349594116210938e-01,1.808574914932250977e+00,4.933684840561137763e-01,1.000000000000000000e+00,1.120000000000000000e+02
0.000000000000000000e+00,1.000000000000000000e+00,0.000000000000000000e+00,6.300000000000000000e+01,6.896000000000000000e+03,3.110568523406982422e-01,1.993572950363159180e+00,7.034994267501140097e-01,0.000000000000000000e+00,1.120000000000000000e+02
1.000000000000000000e+00,1.000000000000000000e+00,1.000000000000000000e+00,5.400000000000000000e+01,6.950000000000000000e+03,3.411409854888916016e-01,1.932792186737060547e+00,6.030839343451928070e-01,0.000000000000000000e+00,1.120000000000000000e+02
1.000000000000000000e+00,1.000000000000000000e+00,1.000000000000000000e+00,5.400000000000000000e+01,7.004000000000000000e+03,3.739020824432373047e-01,2.048320055007934570e+00,6.847772759628811823e-01,0.000000000000000000e+00,1.120000000000000000e+02
1.000000000000000000e+00,1.000000000000000000e+00,1.000000000000000000e+00,5.600000000000000000e+01,7.060000000000000000e+03,3.159420490264892578e-01,1.837021827697753906e+00,5.220091650825851026e-01,0.000000000000000000e+00,1.120000000000000000e+02
1.000000000000000000e+00,1.000000000000000000e+00,1.000000000000000000e+00,5.500000000000000000e+01,7.115000000000000000e+03,2.896749973297119141e-01,1.798641204833984375e+00,5.206975201070629389e-01,0.000000000000000000e+00,1.120000000000000000e+02
0.000000000000000000e+00,1.000000000000000000e+00,0.000000000000000000e+00,5.200000000000000000e+01,7.167000000000000000e+03,3.576898574829101562e-01,1.807169914245605469e+00,4.612924713977095692e-01,0.000000000000000000e+00,1.120000000000000000e+02
0.000000000000000000e+00,1.000000000000000000e+00,0.000000000000000000e+00,5.300000000000000000e+01,7.220000000000000000e+03,3.829469680786132812e-01,2.076106071472167969e+00,7.043098329281127779e-01,0.000000000000000000e+00,1.120000000000000000e+02
0.000000000000000000e+00,1.000000000000000000e+00,0.000000000000000000e+00,5.200000000000000000e+01,7.272000000000000000e+03,3.774919509887695312e-01,1.782043933868408203e+00,4.030115544341804079e-01,0.000000000000000000e+00,1.120000000000000000e+02
1.000000000000000000e+00,1.000000000000000000e+00,1.000000000000000000e+00,5.200000000000000000e+01,7.324000000000000000e+03,2.783610820770263672e-01,1.645934820175170898e+00,3.657016485562549213e-01,0.000000000000000000e+00,1.120000000000000000e+02
0.000000000000000000e+00,1.000000000000000000e+00,0.000000000000000000e+00,6.000000000000000000e+01,7.384000000000000000e+03,3.373048305511474609e-01,1.868993997573852539e+00,5.345769826227315669e-01,0.000000000000000000e+00,1.120000000000000000e+02
0.000000000000000000e+00,1.000000000000000000e+00,0.000000000000000000e+00,5.500000000000000000e+01,7.439000000000000000e+03,3.277609348297119141e-01,1.802872896194458008e+00,4.875826387909859561e-01,0.000000000000000000e+00,1.120000000000000000e+02
1.000000000000000000e+00,1.000000000000000000e+00,1.000000000000000000e+00,5.200000000000000000e+01,7.491000000000000000e+03,3.437809944152832031e-01,1.862173080444335938e+00,5.330914814679750258e-01,0.000000000000000000e+00,1.120000000000000000e+02
1.000000000000000000e+00,1.000000000000000000e+00,1.000000000000000000e+00,5.300000000000000000e+01,7.544000000000000000e+03,3.961908817291259766e-01,2.082863092422485352e+00,6.824939093920863176e-01,0.000000000000000000e+00,1.120000000000000000e+02
0.000000000000000000e+00,1.000000000000000000e+00,0.000000000000000000e+00,6.000000000000000000e+01,7.604000000000000000e+03,2.649059295654296875e-01,1.861537933349609375e+00,5.942203945145952959e-01,0.000000000000000000e+00,1.120000000000000000e+02
0.000000000000000000e+00,1.000000000000000000e+00,0.000000000000000000e+00,5.500000000000000000e+01,7.659000000000000000e+03,3.119788169860839844e-01,1.939872980117797852e+00,6.341236316066440892e-01,0.000000000000000000e+00,1.120000000000000000e+02
0.000000000000000000e+00,1.000000000000000000e+00,0.000000000000000000e+00,5.300000000000000000e+01,7.712000000000000000e+03,3.361148834228515625e-01,1.745069980621337891e+00,4.128103342979833612e-01,0.000000000000000000e+00,1.120000000000000000e+02
0.000000000000000000e+00,0.000000000000000000e+00,1.000000000000000000e+00,4.600000000000000000e+01,7.758000000000000000e+03,3.398141860961914062e-01,1.896403074264526367e+00,5.757702036286475034e-01,0.000000000000000000e+00,1.120000000000000000e+02
1.000000000000000000e+00,1.000000000000000000e+00,1.000000000000000000e+00,5.300000000000000000e+01,7.811000000000000000e+03,3.078670501708984375e-01,1.686052083969116211e+00,3.954482541833055920e-01,0.000000000000000000e+00,1.120000000000000000e+02
1.000000000000000000e+00,1.000000000000000000e+00,1.000000000000000000e+00,5.300000000000000000e+01,7.864000000000000000e+03,3.526389598846435547e-01,2.058383941650390625e+00,7.202007014791269590e-01,0.000000000000000000e+00,1.120000000000000000e+02
0.000000000000000000e+00,1.000000000000000000e+00,0.000000000000000000e+00,5.400000000000000000e+01,7.918000000000000000e+03,5.309569835662841797e-01,1.915377140045166016e+00,3.859706985432340143e-01,0.000000000000000000e+00,1.120000000000000000e+02
1.000000000000000000e+00,1.000000000000000000e+00,1.000000000000000000e+00,5.300000000000000000e+01,7.971000000000000000e+03,2.983119487762451172e-01,1.994028091430664062e+00,6.964320700279964527e-01,0.000000000000000000e+00,1.120000000000000000e+02
1.000000000000000000e+00,1.000000000000000000e+00,1.000000000000000000e+00,5.400000000000000000e+01,8.025000000000000000e+03,3.470630645751953125e-01,1.792177915573120117e+00,4.555707005729518477e-01,0.000000000000000000e+00,1.120000000000000000e+02
1.000000000000000000e+00,1.000000000000000000e+00,1.000000000000000000e+00,5.200000000000000000e+01,8.077000000000000000e+03,4.241981506347656250e-01,1.715796947479248047e+00,3.049329693408519004e-01,0.000000000000000000e+00,1.120000000000000000e+02
0.000000000000000000e+00,1.000000000000000000e+00,0.000000000000000000e+00,5.500000000000000000e+01,8.132000000000000000e+03,5.065550804138183594e-01,1.827345848083496094e+00,3.323113816190795267e-01,0.000000000000000000e+00,1.120000000000000000e+02
0.000000000000000000e+00,1.000000000000000000e+00,0.000000000000000000e+00,5.500000000000000000e+01,8.187000000000000000e+03,5.393378734588623047e-01,2.066346168518066406e+00,5.318411048026447929e-01,0.000000000000000000e+00,1.120000000000000000e+02
1.000000000000000000e+00,1.000000000000000000e+00,1.000000000000000000e+00,5.600000000000000000e+01,8.243000000000000000e+03,3.034069538116455078e-01,1.665827035903930664e+00,3.812259127374179046e-01,0.000000000000000000e+00,1.120000000000000000e+02
1.000000000000000000e+00,1.000000000000000000e+00,1.000000000000000000e+00,6.000000000000000000e+01,8.303000000000000000e+03,3.457729816436767578e-01,1.732702970504760742e+00,3.973014203108639064e-01,0.000000000000000000e+00,1.120000000000000000e+02
1.000000000000000000e+00,1.000000000000000000e+00,1.000000000000000000e+00,5.000000000000000000e+01,8.353000000000000000e+03,3.175010681152343750e-01,1.806614160537719727e+00,5.038698103198362421e-01,0.000000000000000000e+00,1.120000000000000000e+02
1.000000000000000000e+00,0.000000000000000000e+00,0.000000000000000000e+00,4.700000000000000000e+01,8.400000000000000000e+03,6.289091110229492188e-01,2.369405031204223633e+00,7.397886443528594036e-01,0.000000000000000000e+00,1.120000000000000000e+02
1.000000000000000000e+00,1.000000000000000000e+00,1.000000000000000000e+00,5.200000000000000000e+01,8.452000000000000000e+03,3.664181232452392578e-01,1.682316780090332031e+00,3.225690363117518777e-01,0.000000000000000000e+00,1.120000000000000000e+02
1.000000000000000000e+00,1.000000000000000000e+00,1.000000000000000000e+00,5.200000000000000000e+01,8.504000000000000000e+03,3.250908851623535156e-01,2.027363061904907227e+00,7.162906837143738770e-01,0.000000000000000000e+00,1.120000000000000000e+02
1.000000000000000000e+00,1.000000000000000000e+00,1.000000000000000000e+00,5.400000000000000000e+01,8.558000000000000000e+03,2.928051948547363281e-01,1.938529014587402344e+00,6.549221247368881560e-01,0.000000000000000000e+00,1.120000000000000000e+02
0.000000000000000000e+00,1.000000000000000000e+00,0.000000000000000000e+00,5.900000000000000000e+01,8.617000000000000000e+03,3.194839954376220703e-01,1.778855800628662109e+00,4.673306068254314827e-01,0.000000000000000000e+00,1.120000000000000000e+02
1.000000000000000000e+00,1.000000000000000000e+00,1.000000000000000000e+00,6.000000000000000000e+01,8.677000000000000000e+03,2.742581367492675781e-01,1.953133821487426758e+00,6.869786227051284389e-01,0.000000000000000000e+00,1.120000000000000000e+02
1.000000000000000000e+00,1.000000000000000000e+00,1.000000000000000000e+00,5.400000000000000000e+01,8.731000000000000000e+03,2.581899166107177734e-01,1.684314012527465820e+00,4.380371613948759735e-01,0.000000000000000000e+00,1.120000000000000000e+02
1.000000000000000000e+00,1.000000000000000000e+00,1.000000000000000000e+00,5.100000000000000000e+01,8.782000000000000000e+03,2.899250984191894531e-01,1.599651098251342773e+00,3.214609085326771698e-01,0.000000000000000000e+00,1.120000000000000000e+02
0.000000000000000000e+00,1.000000000000000000e+00,0.000000000000000000e+00,5.200000000000000000e+01,8.834000000000000000e+03,3.720190525054931641e-01,1.949894905090332031e+00,5.878568472495595554e-01,0.000000000000000000e+00,1.120000000000000000e+02
1.000000000000000000e+00,1.000000000000000000e+00,1.000000000000000000e+00,5.500000000000000000e+01,8.889000000000000000e+03,2.710559368133544922e-01,1.738331079483032227e+00,4.763268452268267783e-01,0.000000000000000000e+00,1.120000000000000000e+02
1.000000000000000000e+00,1.000000000000000000e+00,1.000000000000000000e+00,5.600000000000000000e+01,8.945000000000000000e+03,3.137750625610351562e-01,1.613163948059082031e+00,3.064003018296459491e-01,0.000000000000000000e+00,1.120000000000000000e+02
0.000000000000000000e+00,1.000000000000000000e+00,0.000000000000000000e+00,5.600000000000000000e+01,9.001000000000000000e+03,3.742370605468750000e-01,2.093006849288940430e+00,7.323613457920072900e-01,0.000000000000000000e+00,1.120000000000000000e+02
0.000000000000000000e+00,1.000000000000000000e+00,0.000000000000000000e+00,5.100000000000000000e+01,9.052000000000000000e+03,3.072907924652099609e-01,1.905532121658325195e+00,6.047577345329520071e-01,0.000000000000000000e+00,1.120000000000000000e+02
0.000000000000000000e+00,1.000000000000000000e+00,0.000000000000000000e+00,5.400000000000000000e+01,9.106000000000000000e+03,2.754118442535400391e-01,1.747154951095581055e+00,4.854333623787308594e-01,0.000000000000000000e+00,1.120000000000000000e+02
1.000000000000000000e+00,1.000000000000000000e+00,1.000000000000000000e+00,5.600000000000000000e+01,9.162000000000000000e+03,3.043611049652099609e-01,1.947555065155029297e+00,6.495228238362806827e-01,0.000000000000000000e+00,1.120000000000000000e+02
0.000000000000000000e+00,1.000000000000000000e+00,0.000000000000000000e+00,5.100000000000000000e+01,9.213000000000000000e+03,3.325979709625244141e-01,1.612407922744750977e+00,2.790486025030438633e-01,0.000000000000000000e+00,1.120000000000000000e+02
0.000000000000000000e+00,1.000000000000000000e+00,0.000000000000000000e+00,5.300000000000000000e+01,9.266000000000000000e+03,3.187048435211181641e-01,1.683467864990234375e+00,3.791323541040969025e-01,0.000000000000000000e+00,1.120000000000000000e+02
0.000000000000000000e+00,0.000000000000000000e+00,1.000000000000000000e+00,4.300000000000000000e+01,9.309000000000000000e+03,2.812089920043945312e-01,1.675834178924560547e+00,4.050228820997592849e-01,1.000000000000000000e+00,1.110000000000000000e+02
1.000000000000000000e+00,1.000000000000000000e+00,1.000000000000000000e+00,6.200000000000000000e+01,9.371000000000000000e+03,2.649328708648681641e-01,1.599742889404296875e+00,3.382211186736707176e-01,0.000000000000000000e+00,1.110000000000000000e+02
0.000000000000000000e+00,1.000000000000000000e+00,0.000000000000000000e+00,5.700000000000000000e+01,9.428000000000000000e+03,3.440351486206054688e-01,1.899946928024291992e+00,5.713096992730581913e-01,0.000000000000000000e+00,1.110000000000000000e+02
1.000000000000000000e+00,1.000000000000000000e+00,1.000000000000000000e+00,5.500000000000000000e+01,9.483000000000000000e+03,2.660558223724365234e-01,1.536382913589477539e+00,2.747252538504751374e-01,0.000000000000000000e+00,1.110000000000000000e+02
1.000000000000000000e+00,1.000000000000000000e+00,1.000000000000000000e+00,5.600000000000000000e+01,9.539000000000000000e+03,4.567720890045166016e-01,1.870342016220092773e+00,4.283279519506895672e-01,0.000000000000000000e+00,1.110000000000000000e+02
0.000000000000000000e+00,1.000000000000000000e+00,0.000000000000000000e+00,5.500000000000000000e+01,9.594000000000000000e+03,3.942279815673828125e-01,2.072756052017211914e+00,7.008124644359201572e-01,0.000000000000000000e+00,1.110000000000000000e+02
1.000000000000000000e+00,1.000000000000000000e+00,1.000000000000000000e+00,5.600000000000000000e+01,9.650000000000000000e+03,3.269228935241699219e-01,1.809807062149047852e+00,4.942362217321586426e-01,0.000000000000000000e+00,1.110000000000000000e+02
0.000000000000000000e+00,1.000000000000000000e+00,0.000000000000000000e+00,6.400000000000000000e+01,9.714000000000000000e+03,6.429789066314697266e-01,1.878300905227661133e+00,2.562183580926742366e-01,0.000000000000000000e+00,1.110000000000000000e+02
1.000000000000000000e+00,1.000000000000000000e+00,1.000000000000000000e+00,6.300000000000000000e+01,9.777000000000000000e+03,2.676990032196044922e-01,1.721321105957031250e+00,4.607242052876293070e-01,0.000000000000000000e+00,1.110000000000000000e+02
0.000000000000000000e+00,1.000000000000000000e+00,0.000000000000000000e+00,6.200000000000000000e+01,9.839000000000000000e+03,2.501940727233886719e-01,1.857001066207885742e+00,6.176188405362350586e-01,0.000000000000000000e+00,1.110000000000000000e+02
1.000000000000000000e+00,1.000000000000000000e+00,1.000000000000000000e+00,6.100000000000000000e+01,9.900000000000000000e+03,2.736418247222900391e-01,1.668056964874267578e+00,4.026414831650176329e-01,0.000000000000000000e+00,1.110000000000000000e+02
1.000000000000000000e+00,1.000000000000000000e+00,1.000000000000000000e+00,5.600000000000000000e+01,9.956000000000000000e+03,2.869892120361328125e-01,1.782289028167724609e+00,5.015341519426159689e-01,0.000000000000000000e+00,1.110000000000000000e+02
0.000000000000000000e+00,1.000000000000000000e+00,0.000000000000000000e+00,6.800000000000000000e+01,1.002400000000000000e+04,3.457291126251220703e-01,1.665132045745849609e+00,3.169343476085307865e-01,0.000000000000000000e+00,1.110000000000000000e+02
1.000000000000000000e+00,1.000000000000000000e+00,1.000000000000000000e+00,5.500000000000000000e+01,1.007900000000000000e+04,2.851319313049316406e-01,1.918238878250122070e+00,6.349319003753863822e-01,0.000000000000000000e+00,1.110000000000000000e+02
1.000000000000000000e+00,1.000000000000000000e+00,1.000000000000000000e+00,5.400000000000000000e+01,1.013300000000000000e+04,2.744829654693603516e-01,1.984439134597778320e+00,7.193279849946238036e-01,0.000000000000000000e+00,1.110000000000000000e+02
1.000000000000000000e+00,1.000000000000000000e+00,1.000000000000000000e+00,6.100000000000000000e+01,1.019400000000000000e+04,2.392730712890625000e-01,1.750715017318725586e+00,5.205578647110732371e-01,0.000000000000000000e+00,1.110000000000000000e+02
1.000000000000000000e+00,1.000000000000000000e+00,1.000000000000000000e+00,5.700000000000000000e+01,1.025100000000000000e+04,2.792901992797851562e-01,1.785144090652465820e+00,5.055210882294753905e-01,0.000000000000000000e+00,1.110000000000000000e+02
0.000000000000000000e+00,1.000000000000000000e+00,0.000000000000000000e+00,6.100000000000000000e+01,1.031200000000000000e+04,3.621649742126464844e-01,1.635706901550292969e+00,2.748425494641619227e-01,0.000000000000000000e+00,1.110000000000000000e+02
0.000000000000000000e+00,1.000000000000000000e+00,0.000000000000000000e+00,5.500000000000000000e+01,1.036700000000000000e+04,3.848459720611572266e-01,2.084813117980957031e+00,7.092942319912780569e-01,0.000000000000000000e+00,1.110000000000000000e+02
0.000000000000000000e+00,1.000000000000000000e+00,0.000000000000000000e+00,5.600000000000000000e+01,1.042300000000000000e+04,3.084979057312011719e-01,1.814955949783325195e+00,5.244915489274752929e-01,0.000000000000000000e+00,1.110000000000000000e+02
0.000000000000000000e+00,1.000000000000000000e+00,0.000000000000000000e+00,6.300000000000000000e+01,1.048600000000000000e+04,2.970042228698730469e-01,1.565376996994018555e+00,2.735177785369846126e-01,0.000000000000000000e+00,1.110000000000000000e+02
0.000000000000000000e+00,1.000000000000000000e+00,0.000000000000000000e+00,5.600000000000000000e+01,1.054200000000000000e+04,3.202831745147705078e-01,1.968734025955200195e+00,6.585896750780935172e-01,0.000000000000000000e+00,1.110000000000000000e+02
1.000000000000000000e+00,1.000000000000000000e+00,1.000000000000000000e+00,5.900000000000000000e+01,1.060100000000000000e+04,3.496870994567871094e-01,1.719927072525024414e+00,3.788945423870596629e-01,0.000000000000000000e+00,1.110000000000000000e+02
0.000000000000000000e+00,1.000000000000000000e+00,0.000000000000000000e+00,6.100000000000000000e+01,1.066200000000000000e+04,2.980861663818359375e-01,1.917901992797851562e+00,6.301683129510127213e-01,0.000000000000000000e+00,1.110000000000000000e+02
0.000000000000000000e+00,1.000000000000000000e+00,0.000000000000000000e+00,6.500000000000000000e+01,1.072700000000000000e+04,3.144481182098388672e-01,1.903140068054199219e+00,5.997758621493088915e-01,0.000000000000000000e+00,1.110000000000000000e+02
0.000000000000000000e+00,1.000000000000000000e+00,0.000000000000000000e+00,6.000000000000000000e+01,1.078700000000000000e+04,3.278729915618896484e-01,1.775686979293823242e+00,4.423754560215060194e-01,0.000000000000000000e+00,1.110000000000000000e+02
0.000000000000000000e+00,0.000000000000000000e+00,1.000000000000000000e+00,4.600000000000000000e+01,1.083300000000000000e+04,2.772219181060791016e-01,1.610459089279174805e+00,3.530328007428252257e-01,1.000000000000000000e+00,1.120000000000000000e+02
1.000000000000000000e+00,1.000000000000000000e+00,1.000000000000000000e+00,5.200000000000000000e+01,1.088500000000000000e+04,2.717189788818359375e-01,1.586631059646606445e+00,3.230685436029505642e-01,0.000000000000000000e+00,1.120000000000000000e+02
1.000000000000000000e+00,1.000000000000000000e+00,1.000000000000000000e+00,6.100000000000000000e+01,1.094600000000000000e+04,3.533179759979248047e-01,1.875749826431274414e+00,5.321930733163351412e-01,0.000000000000000000e+00,1.120000000000000000e+02
1.000000000000000000e+00,1.000000000000000000e+00,1.000000000000000000e+00,5.600000000000000000e+01,1.100200000000000000e+04,2.858090400695800781e-01,1.899100065231323242e+00,6.310083137737384495e-01,0.000000000000000000e+00,1.120000000000000000e+02
0.000000000000000000e+00,1.000000000000000000e+00,0.000000000000000000e+00,5.100000000000000000e+01,1.105300000000000000e+04,4.308700561523437500e-01,2.010465145111083984e+00,5.915930697873855726e-01,0.000000000000000000e+00,1.120000000000000000e+02
0.000000000000000000e+00,1.000000000000000000e+00,0.000000000000000000e+00,6.000000000000000000e+01,1.111300000000000000e+04,3.081400394439697266e-01,1.656126976013183594e+00,3.646935208281271712e-01,0.000000000000000000e+00,1.120000000000000000e+02
1.000000000000000000e+00,1.000000000000000000e+00,1.000000000000000000e+00,6.000000000000000000e+01,1.117300000000000000e+04,4.121980667114257812e-01,1.713780879974365234e+00,3.119398833161697859e-01,0.000000000000000000e+00,1.120000000000000000e+02
1.000000000000000000e+00,1.000000000000000000e+00,1.000000000000000000e+00,5.600000000000000000e+01,1.122900000000000000e+04,3.136091232299804688e-01,1.981361865997314453e+00,6.763115709619542670e-01,0.000000000000000000e+00,1.120000000000000000e+02
1.000000000000000000e+00,1.000000000000000000e+00,1.000000000000000000e+00,6.000000000000000000e+01,1.128900000000000000e+04,2.863349914550781250e-01,1.559636116027832031e+00,2.864107236757212349e-01,0.000000000000000000e+00,1.120000000000000000e+02
1.000000000000000000e+00,1.000000000000000000e+00,1.000000000000000000e+00,6.400000000000000000e+01,1.135300000000000000e+04,3.306970596313476562e-01,1.646359920501708984e+00,3.161233646913949036e-01,0.000000000000000000e+00,1.120000000000000000e+02
1.000000000000000000e+00,1.000000000000000000e+00,1.000000000000000000e+00,5.600000000000000000e+01,1.140900000000000000e+04,2.819070816040039062e-01,2.016914129257202148e+00,7.326371954337935755e-01,0.000000000000000000e+00,1.120000000000000000e+02
1.000000000000000000e+00,1.000000000000000000e+00,1.000000000000000000e+00,5.500000000000000000e+01,1.146400000000000000e+04,3.281590938568115234e-01,1.699316978454589844e+00,3.657654265950434636e-01,0.000000000000000000e+00,1.120000000000000000e+02
0.000000000000000000e+00,1.000000000000000000e+00,0.000000000000000000e+00,5.900000000000000000e+01,1.152300000000000000e+04,3.222420215606689453e-01,1.655332088470458984e+00,3.378520986284098693e-01,0.000000000000000000e+00,1.120000000000000000e+02
0.000000000000000000e+00,1.000000000000000000e+00,0.000000000000000000e+00,6.100000000000000000e+01,1.158400000000000000e+04,4.473760128021240234e-01,1.839461803436279297e+00,3.939697161954188176e-01,0.000000000000000000e+00,1.120000000000000000e+02
0.000000000000000000e+00,1.000000000000000000e+00,0.000000000000000000e+00,6.300000000000000000e+01,1.164700000000000000e+04,3.260829448699951172e-01,1.604964017868041992e+00,2.990803009642210020e-01,0.000000000000000000e+00,1.120000000000000000e+02
0.000000000000000000e+00,1.000000000000000000e+00,0.000000000000000000e+00,5.700000000000000000e+01,1.170400000000000000e+04,3.073990345001220703e-01,1.854604959487915039e+00,5.535058670426673544e-01,0.000000000000000000e+00,1.120000000000000000e+02
0.000000000000000000e+00,1.000000000000000000e+00,0.000000000000000000e+00,5.300000000000000000e+01,1.175700000000000000e+04,3.324830532073974609e-01,1.643712043762207031e+00,3.141762148391179510e-01,0.000000000000000000e+00,1.120000000000000000e+02
0.000000000000000000e+00,1.000000000000000000e+00,0.000000000000000000e+00,5.600000000000000000e+01,1.181300000000000000e+04,3.242259025573730469e-01,1.768263816833496094e+00,4.656831470451885946e-01,0.000000000000000000e+00,1.120000000000000000e+02
1.000000000000000000e+00,1.000000000000000000e+00,1.000000000000000000e+00,5.900000000000000000e+01,1.187200000000000000e+04,3.510551452636718750e-01,1.798892974853515625e+00,4.479975651128232372e-01,0.000000000000000000e+00,1.120000000000000000e+02
1.000000000000000000e+00,1.000000000000000000e+00,1.000000000000000000e+00,6.100000000000000000e+01,1.193300000000000000e+04,3.017830848693847656e-01,1.891445875167846680e+00,6.061303004085469848e-01,0.000000000000000000e+00,1.120000000000000000e+02
1.000000000000000000e+00,1.000000000000000000e+00,1.000000000000000000e+00,5.700000000000000000e+01,1.199000000000000000e+04,2.659361362457275391e-01,1.700817108154296875e+00,4.403885007808946428e-01,0.000000000000000000e+00,1.120000000000000000e+02
0.000000000000000000e+00,1.000000000000000000e+00,0.000000000000000000e+00,5.600000000000000000e+01,1.204600000000000000e+04,3.259110450744628906e-01,2.015182971954345703e+00,7.054633473328701943e-01,0.000000000000000000e+00,1.120000000000000000e+02
0.000000000000000000e+00,1.000000000000000000e+00,0.000000000000000000e+00,5.300000000000000000e+01,1.209900000000000000e+04,3.143191337585449219e-01,1.661625146865844727e+00,3.507554622994933924e-01,0.000000000000000000e+00,1.120000000000000000e+02
1.000000000000000000e+00,1.000000000000000000e+00,1.000000000000000000e+00,5.600000000000000000e+01,1.215500000000000000e+04,2.786870002746582031e-01,1.799242973327636719e+00,5.165352496571162799e-01,0.000000000000000000e+00,1.120000000000000000e+02
1.000000000000000000e+00,1.000000000000000000e+00,1.000000000000000000e+00,5.200000000000000000e+01,1.220700000000000000e+04,3.127801418304443359e-01,2.028070926666259766e+00,7.111458580442960864e-01,0.000000000000000000e+00,1.120000000000000000e+02
0.000000000000000000e+00,1.000000000000000000e+00,0.000000000000000000e+00,5.600000000000000000e+01,1.226300000000000000e+04,3.101830482482910156e-01,2.002892971038818359e+00,7.138230832817777927e-01,0.000000000000000000e+00,1.120000000000000000e+02
0.000000000000000000e+00,1.000000000000000000e+00,0.000000000000000000e+00,6.000000000000000000e+01,1.232300000000000000e+04,2.972230911254882812e-01,1.720067977905273438e+00,4.345267890623735751e-01,0.000000000000000000e+00,1.120000000000000000e+02
0.000000000000000000e+00,1.000000000000000000e+00,0.000000000000000000e+00,5.500000000000000000e+01,1.237800000000000000e+04,2.889678478240966797e-01,1.653216838836669922e+00,3.712161192952734834e-01,0.000000000000000000e+00,1.120000000000000000e+02
0.000000000000000000e+00,1.000000000000000000e+00,0.000000000000000000e+00,5.600000000000000000e+01,1.243400000000000000e+04,2.980210781097412109e-01,1.702568054199218750e+00,4.067806882162005588e-01,0.000000000000000000e+00,1.120000000000000000e+02
0.000000000000000000e+00,0.000000000000000000e+00,1.000000000000000000e+00,4.500000000000000000e+01,1.247900000000000000e+04,3.129599094390869141e-01,2.045572042465209961e+00,7.357569159212915544e-01,1.000000000000000000e+00,1.110000000000000000e+02
1.000000000000000000e+00,1.000000000000000000e+00,1.000000000000000000e+00,5.300000000000000000e+01,1.253200000000000000e+04,3.050279617309570312e-01,1.836902141571044922e+00,5.395816884250796974e-01,0.000000000000000000e+00,1.110000000000000000e+02
0.000000000000000000e+00,1.000000000000000000e+00,0.000000000000000000e+00,5.600000000000000000e+01,1.258800000000000000e+04,3.107349872589111328e-01,1.683275938034057617e+00,3.730832633106693219e-01,0.000000000000000000e+00,1.110000000000000000e+02
1.000000000000000000e+00,1.000000000000000000e+00,1.000000000000000000e+00,5.600000000000000000e+01,1.264400000000000000e+04,3.056280612945556641e-01,1.724661111831665039e+00,4.311047518703798320e-01,0.000000000000000000e+00,1.110000000000000000e+02
1.000000000000000000e+00,1.000000000000000000e+00,1.000000000000000000e+00,5.900000000000000000e+01,1.270300000000000000e+04,5.338969230651855469e-01,1.923635959625244141e+00,4.048160059945689060e-01,0.000000000000000000e+00,1.110000000000000000e+02
0.000000000000000000e+00,1.000000000000000000e+00,0.000000000000000000e+00,5.600000000000000000e+01,1.275900000000000000e+04,2.895879745483398438e-01,1.948009967803955078e+00,6.693028160742106047e-01,0.000000000000000000e+00,1.110000000000000000e+02
1.000000000000000000e+00,1.000000000000000000e+00,1.000000000000000000e+00,6.000000000000000000e+01,1.281900000000000000e+04,3.086819648742675781e-01,1.821559190750122070e+00,5.244061085351321427e-01,0.000000000000000000e+00,1.110000000000000000e+02
0.000000000000000000e+00,1.000000000000000000e+00,0.000000000000000000e+00,5.400000000000000000e+01,1.287300000000000000e+04,4.060699939727783203e-01,1.878807067871093750e+00,4.866046722052707607e-01,0.000000000000000000e+00,1.110000000000000000e+02
0.000000000000000000e+00,1.000000000000000000e+00,0.000000000000000000e+00,5.200000000000000000e+01,1.292500000000000000e+04,3.439340591430664062e-01,2.068438053131103516e+00,7.212675011401430414e-01,0.000000000000000000e+00,1.110000000000000000e+02
0.000000000000000000e+00,1.000000000000000000e+00,0.000000000000000000e+00,6.000000000000000000e+01,1.298500000000000000e+04,4.013471603393554688e-01,2.004788875579833984e+00,6.098665243717201756e-01,0.000000000000000000e+00,1.110000000000000000e+02
0.000000000000000000e+00,1.000000000000000000e+00,0.000000000000000000e+00,5.600000000000000000e+01,1.304100000000000000e+04,3.394229412078857422e-01,2.002356052398681641e+00,6.788520194719422918e-01,0.000000000000000000e+00,1.110000000000000000e+02
1.000000000000000000e+00,1.000000000000000000e+00,1.000000000000000000e+00,6.400000000000000000e+01,1.310500000000000000e+04,2.874970436096191406e-01,1.998887062072753906e+00,7.277633356102708451e-01,0.000000000000000000e+00,1.110000000000000000e+02
1.000000000000000000e+00,1.000000000000000000e+00,1.000000000000000000e+00,5.600000000000000000e+01,1.316100000000000000e+04,3.825638294219970703e-01,2.010548114776611328e+00,6.384770242261440520e-01,0.000000000000000000e+00,1.110000000000000000e+02
0.000000000000000000e+00,1.000000000000000000e+00,0.000000000000000000e+00,5.300000000000000000e+01,1.321400000000000000e+04,3.559560775756835938e-01,1.695198059082031250e+00,3.507076337693703638e-01,0.000000000000000000e+00,1.110000000000000000e+02
0.000000000000000000e+00,1.000000000000000000e+00,0.000000000000000000e+00,5.500000000000000000e+01,1.326900000000000000e+04,4.150059223175048828e-01,1.795745849609375000e+00,3.798323181735622778e-01,0.000000000000000000e+00,1.110000000000000000e+02
0.000000000000000000e+00,1.000000000000000000e+00,0.000000000000000000e+00,6.000000000000000000e+01,1.332900000000000000e+04,3.307869434356689453e-01,1.784545183181762695e+00,4.643245433811236667e-01,0.000000000000000000e+00,1.110000000000000000e+02
1.000000000000000000e+00,1.000000000000000000e+00,1.000000000000000000e+00,5.500000000000000000e+01,1.338400000000000000e+04,3.474760055541992188e-01,1.987190008163452148e+00,6.514093828299866162e-01,0.000000000000000000e+00,1.110000000000000000e+02
1.000000000000000000e+00,1.000000000000000000e+00,1.000000000000000000e+00,5.300000000000000000e+01,1.343700000000000000e+04,2.965190410614013672e-01,1.880032062530517578e+00,5.815592043872809258e-01,0.000000000000000000e+00,1.110000000000000000e+02
1.000000000000000000e+00,1.000000000000000000e+00,1.000000000000000000e+00,6.700000000000000000e+01,1.350400000000000000e+04,2.729589939117431641e-01,1.795623064041137695e+00,5.439652856269661108e-01,0.000000000000000000e+00,1.110000000000000000e+02
1.000000000000000000e+00,1.000000000000000000e+00,1.000000000000000000e+00,5.200000000000000000e+01,1.355600000000000000e+04,5.650069713592529297e-01,1.899250030517578125e+00,3.434939697754726406e-01,0.000000000000000000e+00,1.110000000000000000e+02
0.000000000000000000e+00,1.000000000000000000e+00,0.000000000000000000e+00,5.900000000000000000e+01,1.361500000000000000e+04,3.650970458984375000e-01,1.794893026351928711e+00,4.383252772673065789e-01,0.000000000000000000e+00,1.110000000000000000e+02
0.000000000000000000e+00,1.000000000000000000e+00,0.000000000000000000e+00,6.100000000000000000e+01,1.367600000000000000e+04,3.190929889678955078e-01,1.571398019790649414e+00,2.599969224604469775e-01,0.000000000000000000e+00,1.110000000000000000e+02
0.000000000000000000e+00,1.000000000000000000e+00,0.000000000000000000e+00,6.000000000000000000e+01,1.373600000000000000e+04,4.556548595428466797e-01,2.164407014846801758e+00,7.239944004644587316e-01,0.000000000000000000e+00,1.110000000000000000e+02
0.000000000000000000e+00,1.000000000000000000e+00,0.000000000000000000e+00,5.600000000000000000e+01,1.379200000000000000e+04,3.209648132324218750e-01,1.694077014923095703e+00,3.851451868300999060e-01,0.000000000000000000e+00,1.110000000000000000e+02
0.000000000000000000e+00,1.000000000000000000e+00,0.000000000000000000e+00,5.000000000000000000e+01,1.384200000000000000e+04,3.509910106658935547e-01,1.684661865234375000e+00,3.365816264458453277e-01,0.000000000000000000e+00,1.110000000000000000e+02
1.000000000000000000e+00,1.000000000000000000e+00,1.000000000000000000e+00,5.600000000000000000e+01,1.389800000000000000e+04,4.367229938507080078e-01,1.700018167495727539e+00,2.701003828682748131e-01,0.000000000000000000e+00,1.110000000000000000e+02
0.000000000000000000e+00,1.000000000000000000e+00,0.000000000000000000e+00,5.600000000000000000e+01,1.395400000000000000e+04,5.338759422302246094e-01,2.265632867813110352e+00,7.353309269881251886e-01,0.000000000000000000e+00,1.110000000000000000e+02
0.000000000000000000e+00,1.000000000000000000e+00,0.000000000000000000e+00,5.600000000000000000e+01,1.401000000000000000e+04,3.261880874633789062e-01,1.982820987701416016e+00,6.682832211401636968e-01,0.000000000000000000e+00,1.110000000000000000e+02
0.000000000000000000e+00,1.000000000000000000e+00,0.000000000000000000e+00,5.600000000000000000e+01,1.406600000000000000e+04,3.339169025421142578e-01,1.837393045425415039e+00,5.059042992420681450e-01,0.000000000000000000e+00,1.110000000000000000e+02
1.000000000000000000e+00,0.000000000000000000e+00,0.000000000000000000e+00,3.900000000000000000e+01,1.410500000000000000e+04,3.867259025573730469e-01,2.036442041397094727e+00,6.588993549840018726e-01,1.000000000000000000e+00,1.120000000000000000e+02
1.000000000000000000e+00,0.000000000000000000e+00,0.000000000000000000e+00,4.700000000000000000e+01,1.415200000000000000e+04,2.873759269714355469e-01,1.541712045669555664e+00,2.677417725811286342e-01,0.000000000000000000e+00,1.120000000000000000e+02
0.000000000000000000e+00,0.000000000000000000e+00,1.000000000000000000e+00,3.900000000000000000e+01,1.419100000000000000e+04,4.134290218353271484e-01,1.911006927490234375e+00,4.952535566187888927e-01,0.000000000000000000e+00,1.120000000000000000e+02
1.000000000000000000e+00,0.000000000000000000e+00,0.000000000000000000e+00,4.200000000000000000e+01,1.423300000000000000e+04,2.965209484100341797e-01,1.543483972549438477e+00,2.557149124057770950e-01,0.000000000000000000e+00,1.120000000000000000e+02
0.000000000000000000e+00,0.000000000000000000e+00,1.000000000000000000e+00,4.300000000000000000e+01,1.427600000000000000e+04,4.045839309692382812e-01,1.799993991851806641e+00,4.055771918265653198e-01,0.000000000000000000e+00,1.120000000000000000e+02
0.000000000000000000e+00,0.000000000000000000e+00,1.000000000000000000e+00,4.400000000000000000e+01,1.432000000000000000e+04,3.216660022735595703e-01,1.734156847000122070e+00,4.231119001828965720e-01,0.000000000000000000e+00,1.120000000000000000e+02
1.000000000000000000e+00,1.000000000000000000e+00,1.000000000000000000e+00,5.400000000000000000e+01,1.437400000000000000e+04,3.773491382598876953e-01,2.014675140380859375e+00,6.542881988837572216e-01,0.000000000000000000e+00,1.120000000000000000e+02
1.000000000000000000e+00,1.000000000000000000e+00,1.000000000000000000e+00,5.500000000000000000e+01,1.442900000000000000e+04,3.177330493927001953e-01,1.985485076904296875e+00,6.731558582047598716e-01,0.000000000000000000e+00,1.120000000000000000e+02
1.000000000000000000e+00,1.000000000000000000e+00,1.000000000000000000e+00,5.700000000000000000e+01,1.448600000000000000e+04,2.595081329345703125e-01,1.624186038970947266e+00,3.643978416031106171e-01,0.000000000000000000e+00,1.120000000000000000e+02
1.000000000000000000e+00,1.000000000000000000e+00,1.000000000000000000e+00,5.100000000000000000e+01,1.453700000000000000e+04,2.699921131134033203e-01,1.861559867858886719e+00,6.090899039892530009e-01,0.000000000000000000e+00,1.120000000000000000e+02
0.000000000000000000e+00,1.000000000000000000e+00,0.000000000000000000e+00,5.500000000000000000e+01,1.459200000000000000e+04,3.532168865203857422e-01,1.708961009979248047e+00,3.683578351565066078e-01,0.000000000000000000e+00,1.120000000000000000e+02
0.000000000000000000e+00,1.000000000000000000e+00,0.000000000000000000e+00,5.700000000000000000e+01,1.464900000000000000e+04,3.767099380493164062e-01,1.893182992935180664e+00,5.281000324031688287e-01,0.000000000000000000e+00,1.120000000000000000e+02
1.000000000000000000e+00,1.000000000000000000e+00,1.000000000000000000e+00,5.900000000000000000e+01,1.470800000000000000e+04,2.833580970764160156e-01,1.736999034881591797e+00,4.652321778775403427e-01,0.000000000000000000e+00,1.120000000000000000e+02
0.000000000000000000e+00,1.000000000000000000e+00,0.000000000000000000e+00,5.500000000000000000e+01,1.476300000000000000e+04,3.021230697631835938e-01,1.992557048797607422e+00,7.076472531402047128e-01,0.000000000000000000e+00,1.120000000000000000e+02
1.000000000000000000e+00,1.000000000000000000e+00,1.000000000000000000e+00,5.600000000000000000e+01,1.481900000000000000e+04,2.851932048797607422e-01,1.925804138183593750e+00,6.501975315373755837e-01,0.000000000000000000e+00,1.120000000000000000e+02
1.000000000000000000e+00,1.000000000000000000e+00,1.000000000000000000e+00,6.000000000000000000e+01,1.487900000000000000e+04,2.911119461059570312e-01,1.712722063064575195e+00,4.132142919596680231e-01,0.000000000000000000e+00,1.120000000000000000e+02
1.000000000000000000e+00,1.000000000000000000e+00,1.000000000000000000e+00,5.900000000000000000e+01,1.493800000000000000e+04,2.990028858184814453e-01,1.815170049667358398e+00,5.283522951567208858e-01,0.000000000000000000e+00,1.120000000000000000e+02
0.000000000000000000e+00,1.000000000000000000e+00,0.000000000000000000e+00,6.000000000000000000e+01,1.499800000000000000e+04,3.293809890747070312e-01,1.972350835800170898e+00,6.506335916615733073e-01,0.000000000000000000e+00,1.120000000000000000e+02
1.000000000000000000e+00,1.000000000000000000e+00,1.000000000000000000e+00,5.600000000000000000e+01,1.505400000000000000e+04,3.161149024963378906e-01,1.634899854660034180e+00,3.192884313663169049e-01,0.000000000000000000e+00,1.120000000000000000e+02
1.000000000000000000e+00,1.000000000000000000e+00,1.000000000000000000e+00,5.200000000000000000e+01,1.510600000000000000e+04,4.089100360870361328e-01,1.905730962753295898e+00,5.082178867934965538e-01,0.000000000000000000e+00,1.120000000000000000e+02
1.000000000000000000e+00,1.000000000000000000e+00,1.000000000000000000e+00,6.000000000000000000e+01,1.516600000000000000e+04,3.079349994659423828e-01,1.618922948837280273e+00,3.273809600915056905e-01,0.000000000000000000e+00,1.120000000000000000e+02
1.000000000000000000e+00,1.000000000000000000e+00,1.000000000000000000e+00,5.600000000000000000e+01,1.522200000000000000e+04,2.883038520812988281e-01,1.639910936355590820e+00,3.672968869443176687e-01,0.000000000000000000e+00,1.120000000000000000e+02
0.000000000000000000e+00,1.000000000000000000e+00,0.000000000000000000e+00,5.700000000000000000e+01,1.527900000000000000e+04,3.464059829711914062e-01,2.079500198364257812e+00,7.298184587003583301e-01,0.000000000000000000e+00,1.120000000000000000e+02
1.000000000000000000e+00,1.000000000000000000e+00,1.000000000000000000e+00,5.700000000000000000e+01,1.533600000000000000e+04,3.257529735565185547e-01,1.996282815933227539e+00,6.928667478422527726e-01,0.000000000000000000e+00,1.120000000000000000e+02
1.000000000000000000e+00,1.000000000000000000e+00,1.000000000000000000e+00,5.900000000000000000e+01,1.539500000000000000e+04,3.698890209197998047e-01,1.733208894729614258e+00,3.764644907347907132e-01,0.000000000000000000e+00,1.120000000000000000e+02
1.000000000000000000e+00,1.000000000000000000e+00,1.000000000000000000e+00,5.300000000000000000e+01,1.544800000000000000e+04,3.888499736785888672e-01,1.887557983398437500e+00,5.139297429299012343e-01,0.000000000000000000e+00,1.120000000000000000e+02
0.000000000000000000e+00,1.000000000000000000e+00,0.000000000000000000e+00,5.600000000000000000e+01,1.550400000000000000e+04,3.042771816253662109e-01,1.825520038604736328e+00,5.394586695317546976e-01,0.000000000000000000e+00,1.120000000000000000e+02
0.000000000000000000e+00,1.000000000000000000e+00,0.000000000000000000e+00,6.200000000000000000e+01,1.556600000000000000e+04,3.270299434661865234e-01,1.850682973861694336e+00,5.402540467236709443e-01,0.000000000000000000e+00,1.120000000000000000e+02
0.000000000000000000e+00,1.000000000000000000e+00,0.000000000000000000e+00,5.200000000000000000e+01,1.561800000000000000e+04,3.000330924987792969e-01,1.582112073898315430e+00,2.893309618861741872e-01,0.000000000000000000e+00,1.120000000000000000e+02
1.000000000000000000e+00,1.000000000000000000e+00,1.000000000000000000e+00,6.100000000000000000e+01,1.567900000000000000e+04,3.829090595245361328e-01,1.970718145370483398e+00,5.931404789567131797e-01,0.000000000000000000e+00,1.120000000000000000e+02
1.000000000000000000e+00,0.000000000000000000e+00,0.000000000000000000e+00,4.200000000000000000e+01,1.572100000000000000e+04,3.702430725097656250e-01,1.658499002456665039e+00,3.019974358380812518e-01,1.000000000000000000e+00,1.110000000000000000e+02
0.000000000000000000e+00,1.000000000000000000e+00,0.000000000000000000e+00,6.000000000000000000e+01,1.578100000000000000e+04,3.185830116271972656e-01,2.048892974853515625e+00,7.338228087767720842e-01,0.000000000000000000e+00,1.110000000000000000e+02
1.000000000000000000e+00,1.000000000000000000e+00,1.000000000000000000e+00,5.400000000000000000e+01,1.583500000000000000e+04,2.376530170440673828e-01,1.497248888015747070e+00,2.649745714852489997e-01,0.000000000000000000e+00,1.110000000000000000e+02
0.000000000000000000e+00,1.000000000000000000e+00,0.000000000000000000e+00,6.200000000000000000e+01,1.589700000000000000e+04,3.813970088958740234e-01,1.620503187179565430e+00,2.522178085311298501e-01,0.000000000000000000e+00,1.110000000000000000e+02
1.000000000000000000e+00,1.000000000000000000e+00,1.000000000000000000e+00,6.000000000000000000e+01,1.595700000000000000e+04,3.182070255279541016e-01,1.858029842376708984e+00,5.433204137807534639e-01,0.000000000000000000e+00,1.110000000000000000e+02
0.000000000000000000e+00,1.000000000000000000e+00,0.000000000000000000e+00,5.900000000000000000e+01,1.601600000000000000e+04,2.921810150146484375e-01,1.985336065292358398e+00,7.118837121220653597e-01,0.000000000000000000e+00,1.110000000000000000e+02
0.000000000000000000e+00,1.000000000000000000e+00,0.000000000000000000e+00,5.500000000000000000e+01,1.607100000000000000e+04,3.839211463928222656e-01,2.077789068222045898e+00,7.064580382366820732e-01,0.000000000000000000e+00,1.110000000000000000e+02
0.000000000000000000e+00,1.000000000000000000e+00,0.000000000000000000e+00,5.300000000000000000e+01,1.612400000000000000e+04,3.537712097167968750e-01,1.895332098007202148e+00,5.519906890532659816e-01,0.000000000000000000e+00,1.110000000000000000e+02
0.000000000000000000e+00,1.000000000000000000e+00,0.000000000000000000e+00,5.900000000000000000e+01,1.618300000000000000e+04,2.837491035461425781e-01,1.634737014770507812e+00,3.536914220697414679e-01,0.000000000000000000e+00,1.110000000000000000e+02
0.000000000000000000e+00,1.000000000000000000e+00,0.000000000000000000e+00,5.600000000000000000e+01,1.623900000000000000e+04,2.904520034790039062e-01,1.899785041809082031e+00,6.199449034402351177e-01,0.000000000000000000e+00,1.110000000000000000e+02
1.000000000000000000e+00,1.000000000000000000e+00,1.000000000000000000e+00,6.000000000000000000e+01,1.629900000000000000e+04,3.315370082855224609e-01,1.676445960998535156e+00,3.467219953120984077e-01,0.000000000000000000e+00,1.110000000000000000e+02
1.000000000000000000e+00,1.000000000000000000e+00,1.000000000000000000e+00,5.600000000000000000e+01,1.635500000000000000e+04,3.769478797912597656e-01,1.805721998214721680e+00,4.357533254938323886e-01,0.000000000000000000e+00,1.110000000000000000e+02
1.000000000000000000e+00,1.000000000000000000e+00,1.000000000000000000e+00,5.900000000000000000e+01,1.641400000000000000e+04,3.683269023895263672e-01,2.080832004547119141e+00,7.163781424378640184e-01,0.000000000000000000e+00,1.110000000000000000e+02
0.000000000000000000e+00,1.000000000000000000e+00,0.000000000000000000e+00,5.500000000000000000e+01,1.646900000000000000e+04,3.280868530273437500e-01,1.635540008544921875e+00,3.023690235349285604e-01,0.000000000000000000e+00,1.110000000000000000e+02
0.000000000000000000e+00,1.000000000000000000e+00,0.000000000000000000e+00,6.000000000000000000e+01,1.652900000000000000e+04,3.338949680328369141e-01,1.683948993682861328e+00,3.530049997355989011e-01,0.000000000000000000e+00,1.110000000000000000e+02
0.000000000000000000e+00,1.000000000000000000e+00,0.000000000000000000e+00,5.700000000000000000e+01,1.658600000000000000e+04,2.975299358367919922e-01,1.925813913345336914e+00,6.285592836799502869e-01,0.000000000000000000e+00,1.110000000000000000e+02
1.000000000000000000e+00,1.000000000000000000e+00,1.000000000000000000e+00,6.000000000000000000e+01,1.664600000000000000e+04,3.698539733886718750e-01,1.917763948440551758e+00,5.631181368031037415e-01,0.000000000000000000e+00,1.110000000000000000e+02
0.000000000000000000e+00,1.000000000000000000e+00,0.000000000000000000e+00,5.600000000000000000e+01,1.670200000000000000e+04,3.042130470275878906e-01,1.928239822387695312e+00,6.413600932202730975e-01,0.000000000000000000e+00,1.110000000000000000e+02
1.000000000000000000e+00,1.000000000000000000e+00,1.000000000000000000e+00,6.300000000000000000e+01,1.676500000000000000e+04,3.110198974609375000e-01,1.876729011535644531e+00,5.849229793370022135e-01,0.000000000000000000e+00,1.110000000000000000e+02
1.000000000000000000e+00,1.000000000000000000e+00,1.000000000000000000e+00,5.600000000000000000e+01,1.682100000000000000e+04,3.958299160003662109e-01,2.022231101989746094e+00,6.238111384641941148e-01,0.000000000000000000e+00,1.110000000000000000e+02
1.000000000000000000e+00,1.000000000000000000e+00,1.000000000000000000e+00,6.200000000000000000e+01,1.688300000000000000e+04,2.992310523986816406e-01,1.882247924804687500e+00,5.894617740534880967e-01,0.000000000000000000e+00,1.110000000000000000e+02
1.000000000000000000e+00,1.000000000000000000e+00,1.000000000000000000e+00,6.000000000000000000e+01,1.694300000000000000e+04,3.268811702728271484e-01,1.802673816680908203e+00,4.923211055170514938e-01,0.000000000000000000e+00,1.110000000000000000e+02
0.000000000000000000e+00,1.000000000000000000e+00,0.000000000000000000e+00,6.000000000000000000e+01,1.700300000000000000e+04,3.379471302032470703e-01,1.635583162307739258e+00,3.115023152376031890e-01,0.000000000000000000e+00,1.110000000000000000e+02
1.000000000000000000e+00,1.000000000000000000e+00,1.000000000000000000e+00,5.200000000000000000e+01,1.705500000000000000e+04,3.866789340972900391e-01,1.883314847946166992e+00,5.113291362946352780e-01,0.000000000000000000e+00,1.110000000000000000e+02
1.000000000000000000e+00,1.000000000000000000e+00,1.000000000000000000e+00,6.000000000000000000e+01,1.711500000000000000e+04,3.134040832519531250e-01,1.844892978668212891e+00,5.396062173897042680e-01,0.000000000000000000e+00,1.110000000000000000e+02
1.000000000000000000e+00,1.000000000000000000e+00,1.000000000000000000e+00,5.700000000000000000e+01,1.717200000000000000e+04,2.725508213043212891e-01,1.877110958099365234e+00,6.166745417765218118e-01,0.000000000000000000e+00,1.110000000000000000e+02
1.000000000000000000e+00,1.000000000000000000e+00,1.000000000000000000e+00,5.900000000000000000e+01,1.723100000000000000e+04,2.521831989288330078e-01,1.921648979187011719e+00,6.716609764751816369e-01,0.000000000000000000e+00,1.110000000000000000e+02
0.000000000000000000e+00,1.000000000000000000e+00,0.000000000000000000e+00,6.000000000000000000e+01,1.729100000000000000e+04,3.565979003906250000e-01,1.812422037124633789e+00,4.676961774448694653e-01,0.000000000000000000e+00,1.110000000000000000e+02
0.000000000000000000e+00,1.000000000000000000e+00,0.000000000000000000e+00,6.000000000000000000e+01,1.735100000000000000e+04,3.729979991912841797e-01,1.817532062530517578e+00,4.519732957715696942e-01,0.000000000000000000e+00,1.110000000000000000e+02
1.000000000000000000e+00,1.000000000000000000e+00,1.000000000000000000e+00,6.200000000000000000e+01,1.741300000000000000e+04,2.694320678710937500e-01,1.829276800155639648e+00,5.645574693012843648e-01,0.000000000000000000e+00,1.110000000000000000e+02
0.000000000000000000e+00,1.000000000000000000e+00,0.000000000000000000e+00,6.100000000000000000e+01,1.747400000000000000e+04,2.779901027679443359e-01,1.606698989868164062e+00,3.381719832839482076e-01,0.000000000000000000e+00,1.110000000000000000e+02
1.000000000000000000e+00,1.000000000000000000e+00,1.000000000000000000e+00,5.600000000000000000e+01,1.753000000000000000e+04,2.801649570465087891e-01,1.971095085144042969e+00,6.923091162145598165e-01,0.000000000000000000e+00,1.110000000000000000e+02
0.000000000000000000e+00,1.000000000000000000e+00,0.000000000000000000e+00,5.900000000000000000e+01,1.758900000000000000e+04,2.865769863128662109e-01,1.836192131042480469e+00,5.620129232007122777e-01,0.000000000000000000e+00,1.110000000000000000e+02
1.000000000000000000e+00,1.000000000000000000e+00,1.000000000000000000e+00,5.600000000000000000e+01,1.764500000000000000e+04,4.063220024108886719e-01,2.061050891876220703e+00,6.730021627908620019e-01,0.000000000000000000e+00,1.110000000000000000e+02
0.000000000000000000e+00,1.000000000000000000e+00,0.000000000000000000e+00,6.000000000000000000e+01,1.770500000000000000e+04,2.677359580993652344e-01,1.689060211181640625e+00,4.290604303257766761e-01,0.000000000000000000e+00,1.110000000000000000e+02
0.000000000000000000e+00,1.000000000000000000e+00,0.000000000000000000e+00,6.000000000000000000e+01,1.776500000000000000e+04,4.524409770965576172e-01,2.056551933288574219e+00,6.187619974993436855e-01,0.000000000000000000e+00,1.110000000000000000e+02
0.000000000000000000e+00,1.000000000000000000e+00,0.000000000000000000e+00,6.500000000000000000e+01,1.783000000000000000e+04,3.538599014282226562e-01,2.019572019577026367e+00,6.717388220053643888e-01,0.000000000000000000e+00,1.110000000000000000e+02
1.000000000000000000e+00,1.000000000000000000e+00,1.000000000000000000e+00,5.200000000000000000e+01,1.788200000000000000e+04,2.632341384887695312e-01,1.970111131668090820e+00,7.085476027555024370e-01,0.000000000000000000e+00,1.110000000000000000e+02
1.000000000000000000e+00,1.000000000000000000e+00,1.000000000000000000e+00,6.000000000000000000e+01,1.794200000000000000e+04,3.306739330291748047e-01,1.957162857055664062e+00,6.324832790050771703e-01,0.000000000000000000e+00,1.110000000000000000e+02
0.000000000000000000e+00,1.000000000000000000e+00,0.000000000000000000e+00,6.100000000000000000e+01,1.800300000000000000e+04,5.170431137084960938e-01,2.034216880798339844e+00,5.169126238837705722e-01,0.000000000000000000e+00,1.110000000000000000e+02
1.000000000000000000e+00,1.000000000000000000e+00,1.000000000000000000e+00,6.200000000000000000e+01,1.806500000000000000e+04,3.188378810882568359e-01,1.977254152297973633e+00,6.607735202255272666e-01,0.000000000000000000e+00,1.110000000000000000e+02
1.000000000000000000e+00,1.000000000000000000e+00,1.000000000000000000e+00,6.000000000000000000e+01,1.812500000000000000e+04,3.441269397735595703e-01,1.623203039169311523e+00,2.844264438768542846e-01,0.000000000000000000e+00,1.110000000000000000e+02
1.000000000000000000e+00,0.000000000000000000e+00,0.000000000000000000e+00,4.700000000000000000e+01,1.817200000000000000e+04,3.268918991088867188e-01,1.668452978134155273e+00,3.362232767470330619e-01,1.000000000000000000e+00,1.120000000000000000e+02
1.000000000000000000e+00,1.000000000000000000e+00,1.000000000000000000e+00,5.000000000000000000e+01,1.822200000000000000e+04,2.912430763244628906e-01,1.672611951828002930e+00,3.921609422568895220e-01,0.000000000000000000e+00,1.120000000000000000e+02
0.000000000000000000e+00,1.000000000000000000e+00,0.000000000000000000e+00,5.600000000000000000e+01,1.827800000000000000e+04,3.036708831787109375e-01,1.881139993667602539e+00,5.898038276645383160e-01,0.000000000000000000e+00,1.120000000000000000e+02
0.000000000000000000e+00,1.000000000000000000e+00,0.000000000000000000e+00,5.000000000000000000e+01,1.832800000000000000e+04,3.063850402832031250e-01,1.813842058181762695e+00,5.204729545741026975e-01,0.000000000000000000e+00,1.120000000000000000e+02
1.000000000000000000e+00,1.000000000000000000e+00,1.000000000000000000e+00,5.400000000000000000e+01,1.838200000000000000e+04,3.206410408020019531e-01,1.864253044128417969e+00,5.514428732848497550e-01,0.000000000000000000e+00,1.120000000000000000e+02
0.000000000000000000e+00,1.000000000000000000e+00,0.000000000000000000e+00,5.500000000000000000e+01,1.843700000000000000e+04,2.510910034179687500e-01,1.962059974670410156e+00,7.133831504578582727e-01,0.000000000000000000e+00,1.120000000000000000e+02
1.000000000000000000e+00,1.000000000000000000e+00,1.000000000000000000e+00,5.000000000000000000e+01,1.848700000000000000e+04,2.512879371643066406e-01,1.881404161453247070e+00,6.448591463817286984e-01,0.000000000000000000e+00,1.120000000000000000e+02
1.000000000000000000e+00,1.000000000000000000e+00,1.000000000000000000e+00,5.000000000000000000e+01,1.853700000000000000e+04,2.870190143585205078e-01,2.001329898834228516e+00,7.295408398677847295e-01,0.000000000000000000e+00,1.120000000000000000e+02
1.000000000000000000e+00,1.000000000000000000e+00,1.000000000000000000e+00,5.100000000000000000e+01,1.858800000000000000e+04,2.350769042968750000e-01,1.766274929046630859e+00,5.460894829330387168e-01,0.000000000000000000e+00,1.120000000000000000e+02
1.000000000000000000e+00,1.000000000000000000e+00,1.000000000000000000e+00,5.100000000000000000e+01,1.863900000000000000e+04,2.724800109863281250e-01,1.792385101318359375e+00,5.385527581152700360e-01,0.000000000000000000e+00,1.120000000000000000e+02
0.000000000000000000e+00,1.000000000000000000e+00,0.000000000000000000e+00,5.100000000000000000e+01,1.869000000000000000e+04,3.834631443023681641e-01,1.784186840057373047e+00,4.062615336560818635e-01,0.000000000000000000e+00,1.120000000000000000e+02
1.000000000000000000e+00,1.000000000000000000e+00,1.000000000000000000e+00,5.300000000000000000e+01,1.874300000000000000e+04,2.742459774017333984e-01,1.848376035690307617e+00,5.878247222135128958e-01,0.000000000000000000e+00,1.120000000000000000e+02
0.000000000000000000e+00,1.000000000000000000e+00,0.000000000000000000e+00,5.400000000000000000e+01,1.879700000000000000e+04,3.342769145965576172e-01,1.636380910873413086e+00,3.079019789888632341e-01,0.000000000000000000e+00,1.120000000000000000e+02
0.000000000000000000e+00,1.000000000000000000e+00,0.000000000000000000e+00,5.300000000000000000e+01,1.885000000000000000e+04,4.569962024688720703e-01,1.696322917938232422e+00,2.543206699941066851e-01,0.000000000000000000e+00,1.120000000000000000e+02
0.000000000000000000e+00,1.000000000000000000e+00,0.000000000000000000e+00,5.300000000000000000e+01,1.890300000000000000e+04,3.411688804626464844e-01,1.962971925735473633e+00,6.336691971858505745e-01,0.000000000000000000e+00,1.120000000000000000e+02
1.000000000000000000e+00,1.000000000000000000e+00,1.000000000000000000e+00,5.900000000000000000e+01,1.896200000000000000e+04,2.704617977142333984e-01,1.753071069717407227e+00,4.869321773815815657e-01,0.000000000000000000e+00,1.120000000000000000e+02
1.000000000000000000e+00,1.000000000000000000e+00,1.000000000000000000e+00,5.300000000000000000e+01,1.901500000000000000e+04,2.475240230560302734e-01,1.888363122940063477e+00,6.418676924542270346e-01,0.000000000000000000e+00,1.120000000000000000e+02
1.000000000000000000e+00,1.000000000000000000e+00,1.000000000000000000e+00,5.300000000000000000e+01,1.906800000000000000e+04,2.392811775207519531e-01,1.678272008895874023e+00,4.537236348276927900e-01,0.000000000000000000e+00,1.120000000000000000e+02
1.000000000000000000e+00,0.000000000000000000e+00,0.000000000000000000e+00,4.700000000000000000e+01,1.911500000000000000e+04,2.550039291381835938e-01,1.925525903701782227e+00,6.791179595138017167e-01,0.000000000000000000e+00,1.120000000000000000e+02
1.000000000000000000e+00,1.000000000000000000e+00,1.000000000000000000e+00,5.400000000000000000e+01,1.916900000000000000e+04,2.905578613281250000e-01,1.786664962768554688e+00,5.159751592366660367e-01,0.000000000000000000e+00,1.120000000000000000e+02
0.000000000000000000e+00,1.000000000000000000e+00,0.000000000000000000e+00,5.400000000000000000e+01,1.922300000000000000e+04,3.515160083770751953e-01,1.864955902099609375e+00,5.143539483683604585e-01,0.000000000000000000e+00,1.120000000000000000e+02
1.000000000000000000e+00,1.000000000000000000e+00,1.000000000000000000e+00,5.300000000000000000e+01,1.927600000000000000e+04,2.966551780700683594e-01,1.821877002716064453e+00,5.362547381170037486e-01,0.000000000000000000e+00,1.120000000000000000e+02
1.000000000000000000e+00,1.000000000000000000e+00,1.000000000000000000e+00,5.000000000000000000e+01,1.932600000000000000e+04,2.933211326599121094e-01,1.791249990463256836e+00,5.109332711909585489e-01,0.000000000000000000e+00,1.120000000000000000e+02
1.000000000000000000e+00,1.000000000000000000e+00,1.000000000000000000e+00,5.000000000000000000e+01,1.937600000000000000e+04,2.940239906311035156e-01,1.668106079101562500e+00,3.958875004175614887e-01,0.000000000000000000e+00,1.120000000000000000e+02
0.000000000000000000e+00,1.000000000000000000e+00,0.000000000000000000e+00,5.600000000000000000e+01,1.943200000000000000e+04,4.194169044494628906e-01,1.905679941177368164e+00,5.015166966720863151e-01,0.000000000000000000e+00,1.120000000000000000e+02
1.000000000000000000e+00,1.000000000000000000e+00,1.000000000000000000e+00,5.400000000000000000e+01,1.948600000000000000e+04,2.828040122985839844e-01,1.669146776199340820e+00,3.875031973269371655e-01,0.000000000000000000e+00,1.120000000000000000e+02
1.000000000000000000e+00,1.000000000000000000e+00,1.000000000000000000e+00,5.100000000000000000e+01,1.953700000000000000e+04,3.661148548126220703e-01,2.108366012573242188e+00,7.456088740837258921e-01,0.000000000000000000e+00,1.120000000000000000e+02
1.000000000000000000e+00,1.000000000000000000e+00,1.000000000000000000e+00,5.500000000000000000e+01,1.959200000000000000e+04,2.652719020843505859e-01,1.567759990692138672e+00,3.138359329870858971e-01,0.000000000000000000e+00,1.120000000000000000e+02
1.000000000000000000e+00,1.000000000000000000e+00,1.000000000000000000e+00,5.300000000000000000e+01,1.964500000000000000e+04,3.986389636993408203e-01,1.861520051956176758e+00,4.752671009644184319e-01,0.000000000000000000e+00,1.120000000000000000e+02
0.000000000000000000e+00,1.000000000000000000e+00,0.000000000000000000e+00,5.400000000000000000e+01,1.969900000000000000e+04,2.970888614654541016e-01,1.616266965866088867e+00,3.250568835483669816e-01,0.000000000000000000e+00,1.120000000000000000e+02
0.000000000000000000e+00,0.000000000000000000e+00,1.000000000000000000e+00,4.100000000000000000e+01,1.974000000000000000e+04,3.623800277709960938e-01,1.763581037521362305e+00,4.052888884226323318e-01,1.000000000000000000e+00,1.110000000000000000e+02
1.000000000000000000e+00,1.000000000000000000e+00,1.000000000000000000e+00,5.700000000000000000e+01,1.979700000000000000e+04,2.558829784393310547e-01,1.988128900527954102e+00,7.431337043733341474e-01,0.000000000000000000e+00,1.110000000000000000e+02
1.000000000000000000e+00,1.000000000000000000e+00,1.000000000000000000e+00,6.100000000000000000e+01,1.985800000000000000e+04,2.665619850158691406e-01,1.750689983367919922e+00,4.941343434708856952e-01,0.000000000000000000e+00,1.110000000000000000e+02
1.000000000000000000e+00,1.000000000000000000e+00,1.000000000000000000e+00,5.900000000000000000e+01,1.991700000000000000e+04,3.696439266204833984e-01,1.924762964248657227e+00,5.688812031082952636e-01,0.000000000000000000e+00,1.110000000000000000e+02
0.000000000000000000e+00,1.000000000000000000e+00,0.000000000000000000e+00,6.200000000000000000e+01,1.997900000000000000e+04,3.984799385070800781e-01,2.079826116561889648e+00,6.823944125235006375e-01,0.000000000000000000e+00,1.110000000000000000e+02
0.000000000000000000e+00,1.000000000000000000e+00,0.000000000000000000e+00,5.600000000000000000e+01,2.003500000000000000e+04,3.511347770690917969e-01,1.982673883438110352e+00,6.314732980756294634e-01,0.000000000000000000e+00,1.110000000000000000e+02
0.000000000000000000e+00,1.000000000000000000e+00,0.000000000000000000e+00,5.900000000000000000e+01,2.009400000000000000e+04,4.085810184478759766e-01,1.754033088684082031e+00,3.691735976584094026e-01,0.000000000000000000e+00,1.110000000000000000e+02
0.000000000000000000e+00,1.000000000000000000e+00,0.000000000000000000e+00,6.100000000000000000e+01,2.015500000000000000e+04,3.969428539276123047e-01,1.819076061248779297e+00,4.215563958934336886e-01,0.000000000000000000e+00,1.110000000000000000e+02
1.000000000000000000e+00,1.000000000000000000e+00,1.000000000000000000e+00,6.000000000000000000e+01,2.021500000000000000e+04,4.753110408782958984e-01,1.898164987564086914e+00,4.364743439881979548e-01,0.000000000000000000e+00,1.110000000000000000e+02
1.000000000000000000e+00,1.000000000000000000e+00,1.000000000000000000e+00,6.000000000000000000e+01,2.027500000000000000e+04,3.663890361785888672e-01,1.993332147598266602e+00,6.296586764615030862e-01,0.000000000000000000e+00,1.110000000000000000e+02
0.000000000000000000e+00,1.000000000000000000e+00,0.000000000000000000e+00,6.100000000000000000e+01,2.033600000000000000e+04,3.281669616699218750e-01,1.854974985122680664e+00,5.348204895472377096e-01,0.000000000000000000e+00,1.110000000000000000e+02
1.000000000000000000e+00,1.000000000000000000e+00,1.000000000000000000e+00,5.700000000000000000e+01,2.039300000000000000e+04,3.404629230499267578e-01,1.845437049865722656e+00,5.137224169486216407e-01,0.000000000000000000e+00,1.110000000000000000e+02
0.000000000000000000e+00,1.000000000000000000e+00,0.000000000000000000e+00,6.400000000000000000e+01,2.045700000000000000e+04,5.492811203002929688e-01,2.217082023620605469e+00,6.806569667780673072e-01,0.000000000000000000e+00,1.110000000000000000e+02
1.000000000000000000e+00,1.000000000000000000e+00,1.000000000000000000e+00,6.600000000000000000e+01,2.052300000000000000e+04,2.407209873199462891e-01,1.506684064865112305e+00,2.878148086624047752e-01,0.000000000000000000e+00,1.110000000000000000e+02
1.000000000000000000e+00,1.000000000000000000e+00,1.000000000000000000e+00,5.400000000000000000e+01,2.057700000000000000e+04,3.520290851593017578e-01,1.943357944488525391e+00,5.975758909199839763e-01,0.000000000000000000e+00,1.110000000000000000e+02
0.000000000000000000e+00,1.000000000000000000e+00,0.000000000000000000e+00,5.700000000000000000e+01,2.063400000000000000e+04,3.138959407806396484e-01,1.661893129348754883e+00,3.598210415512951288e-01,0.000000000000000000e+00,1.110000000000000000e+02
0.000000000000000000e+00,1.000000000000000000e+00,0.000000000000000000e+00,6.100000000000000000e+01,2.069500000000000000e+04,3.271760940551757812e-01,1.792920827865600586e+00,4.860004124159327255e-01,0.000000000000000000e+00,1.110000000000000000e+02
0.000000000000000000e+00,1.000000000000000000e+00,0.000000000000000000e+00,6.000000000000000000e+01,2.075500000000000000e+04,3.002328872680664062e-01,1.593859195709228516e+00,2.967380180938701262e-01,0.000000000000000000e+00,1.110000000000000000e+02
0.000000000000000000e+00,1.000000000000000000e+00,0.000000000000000000e+00,6.100000000000000000e+01,2.081600000000000000e+04,3.509590625762939453e-01,1.618143081665039062e+00,2.815914883022003767e-01,0.000000000000000000e+00,1.110000000000000000e+02
1.000000000000000000e+00,1.000000000000000000e+00,1.000000000000000000e+00,6.000000000000000000e+01,2.087600000000000000e+04,3.463571071624755859e-01,1.990584850311279297e+00,6.551794435601903110e-01,0.000000000000000000e+00,1.110000000000000000e+02
0.000000000000000000e+00,1.000000000000000000e+00,0.000000000000000000e+00,6.100000000000000000e+01,2.093700000000000000e+04,2.784647941589355469e-01,1.775990009307861328e+00,4.980639044307787477e-01,0.000000000000000000e+00,1.110000000000000000e+02
1.000000000000000000e+00,1.000000000000000000e+00,1.000000000000000000e+00,6.200000000000000000e+01,2.099900000000000000e+04,3.138191699981689453e-01,1.783121824264526367e+00,4.812624644181335842e-01,0.000000000000000000e+00,1.110000000000000000e+02
1.000000000000000000e+00,1.000000000000000000e+00,1.000000000000000000e+00,5.900000000000000000e+01,2.105800000000000000e+04,3.985369205474853516e-01,2.056442975997924805e+00,6.708882512143284904e-01,0.000000000000000000e+00,1.110000000000000000e+02
1.000000000000000000e+00,1.000000000000000000e+00,1.000000000000000000e+00,5.600000000000000000e+01,2.111400000000000000e+04,3.180141448974609375e-01,1.950333118438720703e+00,6.379783942446167755e-01,0.000000000000000000e+00,1.110000000000000000e+02
0.000000000000000000e+00,1.000000000000000000e+00,0.000000000000000000e+00,6.000000000000000000e+01,2.117400000000000000e+04,3.320059776306152344e-01,1.735569953918457031e+00,4.072087436757070855e-01,0.000000000000000000e+00,1.110000000000000000e+02
0.000000000000000000e+00,0.000000000000000000e+00,1.000000000000000000e+00,4.900000000000000000e+01,2.122300000000000000e+04,3.637368679046630859e-01,1.897902965545654297e+00,5.383857155131750449e-01,1.000000000000000000e+00,1.120000000000000000e+02
0.000000000000000000e+00,1.000000000000000000e+00,0.000000000000000000e+00,5.100000000000000000e+01,2.127400000000000000e+04,3.578097820281982422e-01,2.091656923294067383e+00,7.465822195826020691e-01,0.000000000000000000e+00,1.120000000000000000e+02
1.000000000000000000e+00,1.000000000000000000e+00,1.000000000000000000e+00,5.300000000000000000e+01,2.132700000000000000e+04,2.595710754394531250e-01,1.637079000473022461e+00,4.007986838935903018e-01,0.000000000000000000e+00,1.120000000000000000e+02
0.000000000000000000e+00,1.000000000000000000e+00,0.000000000000000000e+00,5.100000000000000000e+01,2.137800000000000000e+04,4.095830917358398438e-01,1.846232891082763672e+00,4.470006131926439474e-01,0.000000000000000000e+00,1.120000000000000000e+02
1.000000000000000000e+00,1.000000000000000000e+00,1.000000000000000000e+00,5.000000000000000000e+01,2.142800000000000000e+04,2.553689479827880859e-01,1.523728132247924805e+00,2.875893729915737218e-01,0.000000000000000000e+00,1.120000000000000000e+02
1.000000000000000000e+00,1.000000000000000000e+00,1.000000000000000000e+00,5.200000000000000000e+01,2.148000000000000000e+04,2.799191474914550781e-01,1.853333950042724609e+00,5.739857381298769656e-01,0.000000000000000000e+00,1.120000000000000000e+02
1.000000000000000000e+00,1.000000000000000000e+00,1.000000000000000000e+00,5.400000000000000000e+01,2.153400000000000000e+04,2.459988594055175781e-01,1.725320100784301758e+00,4.828192377426038240e-01,0.000000000000000000e+00,1.120000000000000000e+02
0.000000000000000000e+00,1.000000000000000000e+00,0.000000000000000000e+00,5.900000000000000000e+01,2.159300000000000000e+04,3.787059783935546875e-01,1.955404043197631836e+00,5.715268495990767361e-01,0.000000000000000000e+00,1.120000000000000000e+02
0.000000000000000000e+00,1.000000000000000000e+00,0.000000000000000000e+00,5.200000000000000000e+01,2.164500000000000000e+04,3.827600479125976562e-01,1.965425968170166016e+00,5.870189224090618385e-01,0.000000000000000000e+00,1.120000000000000000e+02
1.000000000000000000e+00,1.000000000000000000e+00,1.000000000000000000e+00,5.600000000000000000e+01,2.170100000000000000e+04,2.731590270996093750e-01,1.644828081130981445e+00,3.821043825375745606e-01,0.000000000000000000e+00,1.120000000000000000e+02
1.000000000000000000e+00,1.000000000000000000e+00,1.000000000000000000e+00,5.300000000000000000e+01,2.175400000000000000e+04,2.620551586151123047e-01,1.606755018234252930e+00,3.555979680535286125e-01,0.000000000000000000e+00,1.120000000000000000e+02
1.000000000000000000e+00,1.000000000000000000e+00,1.000000000000000000e+00,5.500000000000000000e+01,2.180900000000000000e+04,2.694048881530761719e-01,1.608182907104492188e+00,3.471954921921081016e-01,0.000000000000000000e+00,1.120000000000000000e+02
1.000000000000000000e+00,1.000000000000000000e+00,1.000000000000000000e+00,5.100000000000000000e+01,2.186000000000000000e+04,2.425019741058349609e-01,1.961208105087280273e+00,7.413358761517395701e-01,0.000000000000000000e+00,1.120000000000000000e+02
0.000000000000000000e+00,1.000000000000000000e+00,0.000000000000000000e+00,5.400000000000000000e+01,2.191400000000000000e+04,3.578910827636718750e-01,1.745532989501953125e+00,4.039895169431910182e-01,0.000000000000000000e+00,1.120000000000000000e+02
1.000000000000000000e+00,1.000000000000000000e+00,1.000000000000000000e+00,5.000000000000000000e+01,2.196400000000000000e+04,2.279069423675537109e-01,1.608501911163330078e+00,3.792460792209749187e-01,0.000000000000000000e+00,1.120000000000000000e+02
1.000000000000000000e+00,1.000000000000000000e+00,1.000000000000000000e+00,5.100000000000000000e+01,2.201500000000000000e+04,2.760770320892333984e-01,1.764468908309936523e+00,5.103185408281303292e-01,0.000000000000000000e+00,1.120000000000000000e+02
0.000000000000000000e+00,1.000000000000000000e+00,0.000000000000000000e+00,5.000000000000000000e+01,2.206500000000000000e+04,3.493800163269042969e-01,2.052860975265502930e+00,7.130415851326876719e-01,0.000000000000000000e+00,1.120000000000000000e+02
