choice, accuracy, solution,  reward, cumulative_reward, rt,  total_trial_time, iti, cp_with_slow_fast, high_val_cue
0.000000000000000000e+00,1.000000000000000000e+00,0.000000000000000000e+00,6.200000000000000000e+01,6.200000000000000000e+01,6.257350444793701172e-01,2.175707101821899414e+00,5.604824240696808513e-01,0.000000000000000000e+00,1.120000000000000000e+02
1.000000000000000000e+00,1.000000000000000000e+00,1.000000000000000000e+00,6.000000000000000000e+01,1.220000000000000000e+02,2.580831050872802734e-01,1.580847024917602539e+00,3.416288397415232492e-01,0.000000000000000000e+00,1.120000000000000000e+02
1.000000000000000000e+00,1.000000000000000000e+00,1.000000000000000000e+00,6.100000000000000000e+01,1.830000000000000000e+02,2.837781906127929688e-01,1.691116809844970703e+00,4.160979015172566187e-01,0.000000000000000000e+00,1.120000000000000000e+02
1.000000000000000000e+00,1.000000000000000000e+00,1.000000000000000000e+00,6.500000000000000000e+01,2.480000000000000000e+02,3.039278984069824219e-01,1.703189134597778320e+00,4.026887650477158354e-01,0.000000000000000000e+00,1.120000000000000000e+02
1.000000000000000000e+00,1.000000000000000000e+00,1.000000000000000000e+00,7.000000000000000000e+01,3.180000000000000000e+02,3.098919391632080078e-01,2.057411909103393555e+00,7.431812544569343926e-01,0.000000000000000000e+00,1.120000000000000000e+02
0.000000000000000000e+00,1.000000000000000000e+00,0.000000000000000000e+00,6.800000000000000000e+01,3.860000000000000000e+02,2.879719734191894531e-01,1.557723999023437500e+00,2.847978832254650650e-01,0.000000000000000000e+00,1.120000000000000000e+02
0.000000000000000000e+00,1.000000000000000000e+00,0.000000000000000000e+00,5.900000000000000000e+01,4.450000000000000000e+02,3.244369029998779297e-01,1.648152828216552734e+00,3.330041885610663943e-01,0.000000000000000000e+00,1.120000000000000000e+02
1.000000000000000000e+00,1.000000000000000000e+00,1.000000000000000000e+00,6.500000000000000000e+01,5.100000000000000000e+02,2.594439983367919922e-01,1.565948009490966797e+00,3.156645489643929992e-01,0.000000000000000000e+00,1.120000000000000000e+02
0.000000000000000000e+00,1.000000000000000000e+00,0.000000000000000000e+00,6.800000000000000000e+01,5.780000000000000000e+02,2.488040924072265625e-01,1.945575952529907227e+00,6.945110282768429677e-01,0.000000000000000000e+00,1.120000000000000000e+02
1.000000000000000000e+00,1.000000000000000000e+00,1.000000000000000000e+00,6.000000000000000000e+01,6.380000000000000000e+02,2.735629081726074219e-01,1.519436120986938477e+00,2.642375249309457108e-01,0.000000000000000000e+00,1.120000000000000000e+02
0.000000000000000000e+00,1.000000000000000000e+00,0.000000000000000000e+00,6.400000000000000000e+01,7.020000000000000000e+02,3.569149971008300781e-01,1.976511001586914062e+00,6.404203169770339432e-01,0.000000000000000000e+00,1.120000000000000000e+02
1.000000000000000000e+00,1.000000000000000000e+00,1.000000000000000000e+00,6.200000000000000000e+01,7.640000000000000000e+02,2.036719322204589844e-01,1.628596067428588867e+00,4.359773569219121958e-01,0.000000000000000000e+00,1.120000000000000000e+02
0.000000000000000000e+00,1.000000000000000000e+00,0.000000000000000000e+00,6.200000000000000000e+01,8.260000000000000000e+02,2.673900127410888672e-01,1.781102895736694336e+00,5.170525635048379698e-01,0.000000000000000000e+00,1.120000000000000000e+02
0.000000000000000000e+00,1.000000000000000000e+00,0.000000000000000000e+00,5.700000000000000000e+01,8.830000000000000000e+02,2.691168785095214844e-01,1.784965038299560547e+00,5.188212827108588110e-01,0.000000000000000000e+00,1.120000000000000000e+02
1.000000000000000000e+00,1.000000000000000000e+00,1.000000000000000000e+00,6.200000000000000000e+01,9.450000000000000000e+02,2.517719268798828125e-01,1.585202932357788086e+00,3.375762304482193277e-01,0.000000000000000000e+00,1.120000000000000000e+02
0.000000000000000000e+00,1.000000000000000000e+00,0.000000000000000000e+00,6.000000000000000000e+01,1.005000000000000000e+03,2.636940479278564453e-01,1.869840145111083984e+00,6.072188928096239335e-01,0.000000000000000000e+00,1.120000000000000000e+02
0.000000000000000000e+00,1.000000000000000000e+00,0.000000000000000000e+00,6.600000000000000000e+01,1.071000000000000000e+03,3.209102153778076172e-01,1.943361997604370117e+00,6.339491456417674087e-01,0.000000000000000000e+00,1.120000000000000000e+02
0.000000000000000000e+00,1.000000000000000000e+00,0.000000000000000000e+00,6.000000000000000000e+01,1.131000000000000000e+03,2.550270557403564453e-01,1.645045995712280273e+00,3.960347017345822729e-01,0.000000000000000000e+00,1.120000000000000000e+02
1.000000000000000000e+00,1.000000000000000000e+00,1.000000000000000000e+00,6.900000000000000000e+01,1.200000000000000000e+03,2.989509105682373047e-01,1.556014060974121094e+00,2.689056758895411736e-01,0.000000000000000000e+00,1.120000000000000000e+02
0.000000000000000000e+00,1.000000000000000000e+00,0.000000000000000000e+00,6.400000000000000000e+01,1.264000000000000000e+03,2.901489734649658203e-01,1.915009021759033203e+00,6.336240592732486077e-01,0.000000000000000000e+00,1.120000000000000000e+02
0.000000000000000000e+00,1.000000000000000000e+00,0.000000000000000000e+00,6.500000000000000000e+01,1.329000000000000000e+03,3.645989894866943359e-01,1.665354967117309570e+00,2.993957068298040425e-01,0.000000000000000000e+00,1.120000000000000000e+02
0.000000000000000000e+00,1.000000000000000000e+00,0.000000000000000000e+00,6.400000000000000000e+01,1.393000000000000000e+03,2.939481735229492188e-01,1.823600053787231445e+00,5.394681402643393131e-01,0.000000000000000000e+00,1.120000000000000000e+02
1.000000000000000000e+00,0.000000000000000000e+00,0.000000000000000000e+00,3.900000000000000000e+01,1.432000000000000000e+03,2.853281497955322266e-01,1.839915990829467773e+00,5.627916739247518230e-01,0.000000000000000000e+00,1.120000000000000000e+02
1.000000000000000000e+00,1.000000000000000000e+00,1.000000000000000000e+00,6.100000000000000000e+01,1.493000000000000000e+03,3.060209751129150391e-01,1.771605014801025391e+00,4.845186088127538815e-01,0.000000000000000000e+00,1.120000000000000000e+02
1.000000000000000000e+00,1.000000000000000000e+00,1.000000000000000000e+00,6.100000000000000000e+01,1.554000000000000000e+03,3.418219089508056641e-01,1.756360054016113281e+00,4.243844975267214159e-01,0.000000000000000000e+00,1.120000000000000000e+02
0.000000000000000000e+00,1.000000000000000000e+00,0.000000000000000000e+00,6.600000000000000000e+01,1.620000000000000000e+03,2.928397655487060547e-01,1.922438144683837891e+00,6.466746029137204754e-01,0.000000000000000000e+00,1.120000000000000000e+02
0.000000000000000000e+00,1.000000000000000000e+00,0.000000000000000000e+00,6.500000000000000000e+01,1.685000000000000000e+03,2.912790775299072266e-01,1.926471948623657227e+00,6.565583979762663613e-01,0.000000000000000000e+00,1.120000000000000000e+02
1.000000000000000000e+00,1.000000000000000000e+00,1.000000000000000000e+00,6.600000000000000000e+01,1.751000000000000000e+03,2.929310798645019531e-01,1.836580991744995117e+00,5.599680742169774739e-01,0.000000000000000000e+00,1.120000000000000000e+02
1.000000000000000000e+00,1.000000000000000000e+00,1.000000000000000000e+00,6.500000000000000000e+01,1.816000000000000000e+03,2.786798477172851562e-01,2.021283149719238281e+00,7.478416616530345618e-01,0.000000000000000000e+00,1.120000000000000000e+02
1.000000000000000000e+00,1.000000000000000000e+00,1.000000000000000000e+00,5.600000000000000000e+01,1.872000000000000000e+03,2.800810337066650391e-01,1.935651063919067383e+00,6.669693903260498491e-01,0.000000000000000000e+00,1.120000000000000000e+02
0.000000000000000000e+00,1.000000000000000000e+00,0.000000000000000000e+00,6.000000000000000000e+01,1.932000000000000000e+03,2.771987915039062500e-01,1.836912870407104492e+00,5.707568082154725886e-01,0.000000000000000000e+00,1.120000000000000000e+02
1.000000000000000000e+00,1.000000000000000000e+00,1.000000000000000000e+00,5.700000000000000000e+01,1.989000000000000000e+03,3.228280544281005859e-01,2.061027050018310547e+00,7.483445383195818090e-01,0.000000000000000000e+00,1.120000000000000000e+02
0.000000000000000000e+00,1.000000000000000000e+00,0.000000000000000000e+00,6.200000000000000000e+01,2.051000000000000000e+03,3.289861679077148438e-01,1.844637155532836914e+00,5.266605165559643531e-01,0.000000000000000000e+00,1.120000000000000000e+02
0.000000000000000000e+00,1.000000000000000000e+00,0.000000000000000000e+00,6.400000000000000000e+01,2.115000000000000000e+03,2.800340652465820312e-01,1.928145885467529297e+00,6.547346737360846269e-01,0.000000000000000000e+00,1.120000000000000000e+02
1.000000000000000000e+00,1.000000000000000000e+00,1.000000000000000000e+00,6.300000000000000000e+01,2.178000000000000000e+03,2.767779827117919922e-01,1.868333101272583008e+00,6.065454869448865249e-01,0.000000000000000000e+00,1.120000000000000000e+02
0.000000000000000000e+00,1.000000000000000000e+00,0.000000000000000000e+00,7.000000000000000000e+01,2.248000000000000000e+03,3.091650009155273438e-01,1.841779947280883789e+00,5.484742989289155268e-01,0.000000000000000000e+00,1.120000000000000000e+02
0.000000000000000000e+00,1.000000000000000000e+00,0.000000000000000000e+00,6.400000000000000000e+01,2.312000000000000000e+03,3.020839691162109375e-01,1.562522172927856445e+00,2.780150022192073855e-01,0.000000000000000000e+00,1.120000000000000000e+02
1.000000000000000000e+00,1.000000000000000000e+00,1.000000000000000000e+00,6.600000000000000000e+01,2.378000000000000000e+03,2.993240356445312500e-01,1.691236972808837891e+00,4.025513802369363736e-01,0.000000000000000000e+00,1.120000000000000000e+02
0.000000000000000000e+00,1.000000000000000000e+00,0.000000000000000000e+00,6.500000000000000000e+01,2.443000000000000000e+03,2.723629474639892578e-01,2.000229120254516602e+00,7.357913024765736498e-01,0.000000000000000000e+00,1.120000000000000000e+02
0.000000000000000000e+00,1.000000000000000000e+00,0.000000000000000000e+00,6.100000000000000000e+01,2.504000000000000000e+03,2.983891963958740234e-01,1.585079908370971680e+00,2.881185171090672736e-01,0.000000000000000000e+00,1.120000000000000000e+02
1.000000000000000000e+00,1.000000000000000000e+00,1.000000000000000000e+00,6.200000000000000000e+01,2.566000000000000000e+03,3.201649188995361328e-01,2.035790920257568359e+00,7.235530169600234984e-01,0.000000000000000000e+00,1.120000000000000000e+02
1.000000000000000000e+00,1.000000000000000000e+00,1.000000000000000000e+00,6.600000000000000000e+01,2.632000000000000000e+03,4.078660011291503906e-01,1.864408016204833984e+00,4.716271522269107064e-01,0.000000000000000000e+00,1.120000000000000000e+02
1.000000000000000000e+00,1.000000000000000000e+00,1.000000000000000000e+00,6.000000000000000000e+01,2.692000000000000000e+03,3.162291049957275391e-01,1.854196786880493164e+00,5.424923034906181663e-01,0.000000000000000000e+00,1.120000000000000000e+02
0.000000000000000000e+00,1.000000000000000000e+00,0.000000000000000000e+00,6.100000000000000000e+01,2.753000000000000000e+03,3.593370914459228516e-01,1.976649999618530273e+00,6.358051434888782882e-01,0.000000000000000000e+00,1.120000000000000000e+02
1.000000000000000000e+00,1.000000000000000000e+00,1.000000000000000000e+00,6.300000000000000000e+01,2.816000000000000000e+03,3.320469856262207031e-01,2.031889915466308594e+00,7.010487135144436444e-01,0.000000000000000000e+00,1.120000000000000000e+02
1.000000000000000000e+00,1.000000000000000000e+00,1.000000000000000000e+00,6.500000000000000000e+01,2.881000000000000000e+03,4.748189449310302734e-01,1.846990108489990234e+00,3.818104265649093776e-01,0.000000000000000000e+00,1.120000000000000000e+02
1.000000000000000000e+00,1.000000000000000000e+00,1.000000000000000000e+00,6.100000000000000000e+01,2.942000000000000000e+03,5.136878490447998047e-01,2.208472967147827148e+00,7.067358848530924664e-01,0.000000000000000000e+00,1.120000000000000000e+02
1.000000000000000000e+00,1.000000000000000000e+00,1.000000000000000000e+00,6.400000000000000000e+01,3.006000000000000000e+03,3.110311031341552734e-01,1.822287082672119141e+00,5.126455611033777782e-01,0.000000000000000000e+00,1.120000000000000000e+02
0.000000000000000000e+00,1.000000000000000000e+00,0.000000000000000000e+00,6.600000000000000000e+01,3.072000000000000000e+03,3.444190025329589844e-01,1.635532140731811523e+00,2.984472911398495798e-01,0.000000000000000000e+00,1.120000000000000000e+02
0.000000000000000000e+00,1.000000000000000000e+00,0.000000000000000000e+00,6.500000000000000000e+01,3.137000000000000000e+03,5.371448993682861328e-01,2.159214973449707031e+00,6.407860957303777028e-01,0.000000000000000000e+00,1.120000000000000000e+02
0.000000000000000000e+00,1.000000000000000000e+00,0.000000000000000000e+00,6.400000000000000000e+01,3.201000000000000000e+03,3.856401443481445312e-01,1.711924076080322266e+00,3.363939056987986231e-01,0.000000000000000000e+00,1.120000000000000000e+02
0.000000000000000000e+00,1.000000000000000000e+00,0.000000000000000000e+00,6.400000000000000000e+01,3.265000000000000000e+03,3.869359493255615234e-01,2.025725841522216797e+00,6.452264660866621204e-01,0.000000000000000000e+00,1.120000000000000000e+02
0.000000000000000000e+00,1.000000000000000000e+00,0.000000000000000000e+00,6.100000000000000000e+01,3.326000000000000000e+03,2.883207798004150391e-01,1.884232997894287109e+00,6.129206963103345229e-01,0.000000000000000000e+00,1.120000000000000000e+02
0.000000000000000000e+00,1.000000000000000000e+00,0.000000000000000000e+00,5.900000000000000000e+01,3.385000000000000000e+03,2.470760345458984375e-01,1.782880067825317383e+00,5.459502443597983312e-01,0.000000000000000000e+00,1.120000000000000000e+02
0.000000000000000000e+00,1.000000000000000000e+00,0.000000000000000000e+00,6.600000000000000000e+01,3.451000000000000000e+03,2.158479690551757812e-01,1.512885093688964844e+00,3.091685431658218741e-01,0.000000000000000000e+00,1.120000000000000000e+02
1.000000000000000000e+00,1.000000000000000000e+00,1.000000000000000000e+00,6.100000000000000000e+01,3.512000000000000000e+03,3.171849250793457031e-01,1.683822870254516602e+00,3.763006982355284746e-01,0.000000000000000000e+00,1.120000000000000000e+02
0.000000000000000000e+00,1.000000000000000000e+00,0.000000000000000000e+00,6.200000000000000000e+01,3.574000000000000000e+03,2.319259643554687500e-01,1.842696905136108398e+00,6.188411153988299107e-01,0.000000000000000000e+00,1.120000000000000000e+02
1.000000000000000000e+00,1.000000000000000000e+00,1.000000000000000000e+00,6.000000000000000000e+01,3.634000000000000000e+03,2.819919586181640625e-01,1.567682981491088867e+00,2.869488840965802035e-01,0.000000000000000000e+00,1.120000000000000000e+02
0.000000000000000000e+00,1.000000000000000000e+00,0.000000000000000000e+00,6.500000000000000000e+01,3.699000000000000000e+03,2.943928241729736328e-01,1.996293067932128906e+00,7.162175666595227419e-01,0.000000000000000000e+00,1.120000000000000000e+02
1.000000000000000000e+00,1.000000000000000000e+00,1.000000000000000000e+00,6.200000000000000000e+01,3.761000000000000000e+03,2.534379959106445312e-01,1.540821075439453125e+00,2.908332987971171124e-01,0.000000000000000000e+00,1.120000000000000000e+02
1.000000000000000000e+00,1.000000000000000000e+00,1.000000000000000000e+00,6.000000000000000000e+01,3.821000000000000000e+03,3.150999546051025391e-01,1.854364871978759766e+00,5.450213760251323425e-01,0.000000000000000000e+00,1.120000000000000000e+02
1.000000000000000000e+00,1.000000000000000000e+00,1.000000000000000000e+00,5.900000000000000000e+01,3.880000000000000000e+03,2.991719245910644531e-01,1.687184810638427734e+00,3.991113974408836418e-01,0.000000000000000000e+00,1.120000000000000000e+02
1.000000000000000000e+00,1.000000000000000000e+00,1.000000000000000000e+00,7.100000000000000000e+01,3.951000000000000000e+03,2.242989540100097656e-01,1.804392814636230469e+00,5.867385021164820413e-01,0.000000000000000000e+00,1.120000000000000000e+02
0.000000000000000000e+00,1.000000000000000000e+00,0.000000000000000000e+00,6.700000000000000000e+01,4.018000000000000000e+03,5.042819976806640625e-01,2.012089967727661133e+00,5.156340098912588488e-01,0.000000000000000000e+00,1.120000000000000000e+02
0.000000000000000000e+00,1.000000000000000000e+00,0.000000000000000000e+00,6.000000000000000000e+01,4.078000000000000000e+03,2.967090606689453125e-01,1.610391855239868164e+00,3.096417178188735075e-01,0.000000000000000000e+00,1.120000000000000000e+02
1.000000000000000000e+00,1.000000000000000000e+00,1.000000000000000000e+00,6.300000000000000000e+01,4.141000000000000000e+03,2.736899852752685547e-01,1.821043968200683594e+00,5.638423208300566980e-01,0.000000000000000000e+00,1.120000000000000000e+02
1.000000000000000000e+00,1.000000000000000000e+00,1.000000000000000000e+00,6.400000000000000000e+01,4.205000000000000000e+03,2.851800918579101562e-01,1.536750078201293945e+00,2.676256746972368594e-01,0.000000000000000000e+00,1.120000000000000000e+02
0.000000000000000000e+00,1.000000000000000000e+00,0.000000000000000000e+00,6.400000000000000000e+01,4.269000000000000000e+03,3.042089939117431641e-01,1.942926883697509766e+00,6.435690773951650012e-01,0.000000000000000000e+00,1.120000000000000000e+02
1.000000000000000000e+00,1.000000000000000000e+00,1.000000000000000000e+00,5.700000000000000000e+01,4.326000000000000000e+03,2.549149990081787109e-01,1.938981056213378906e+00,6.992251753921350232e-01,0.000000000000000000e+00,1.120000000000000000e+02
0.000000000000000000e+00,1.000000000000000000e+00,0.000000000000000000e+00,6.600000000000000000e+01,4.392000000000000000e+03,2.969529628753662109e-01,1.952857971191406250e+00,6.522534163663645801e-01,0.000000000000000000e+00,1.120000000000000000e+02
0.000000000000000000e+00,1.000000000000000000e+00,0.000000000000000000e+00,6.200000000000000000e+01,4.454000000000000000e+03,2.760479450225830078e-01,1.558874845504760742e+00,2.949240933283869270e-01,0.000000000000000000e+00,1.120000000000000000e+02
0.000000000000000000e+00,1.000000000000000000e+00,0.000000000000000000e+00,6.600000000000000000e+01,4.520000000000000000e+03,3.621220588684082031e-01,2.016010999679565430e+00,6.606578093413342234e-01,0.000000000000000000e+00,1.120000000000000000e+02
0.000000000000000000e+00,1.000000000000000000e+00,0.000000000000000000e+00,6.200000000000000000e+01,4.582000000000000000e+03,2.444930076599121094e-01,1.735705137252807617e+00,5.132307189231315458e-01,0.000000000000000000e+00,1.120000000000000000e+02
0.000000000000000000e+00,1.000000000000000000e+00,0.000000000000000000e+00,6.000000000000000000e+01,4.642000000000000000e+03,3.102459907531738281e-01,1.883128881454467773e+00,5.963557498454900019e-01,0.000000000000000000e+00,1.120000000000000000e+02
0.000000000000000000e+00,1.000000000000000000e+00,0.000000000000000000e+00,6.500000000000000000e+01,4.707000000000000000e+03,2.209489345550537109e-01,1.607689142227172852e+00,4.043090041687373848e-01,0.000000000000000000e+00,1.120000000000000000e+02
0.000000000000000000e+00,1.000000000000000000e+00,0.000000000000000000e+00,6.400000000000000000e+01,4.771000000000000000e+03,2.694561481475830078e-01,1.894358873367309570e+00,6.318277787874017060e-01,0.000000000000000000e+00,1.120000000000000000e+02
1.000000000000000000e+00,1.000000000000000000e+00,1.000000000000000000e+00,5.900000000000000000e+01,4.830000000000000000e+03,2.951028347015380859e-01,1.649237155914306641e+00,3.647814149779368131e-01,0.000000000000000000e+00,1.120000000000000000e+02
1.000000000000000000e+00,1.000000000000000000e+00,1.000000000000000000e+00,6.600000000000000000e+01,4.896000000000000000e+03,3.301391601562500000e-01,1.847591876983642578e+00,5.289636905771939457e-01,0.000000000000000000e+00,1.120000000000000000e+02
0.000000000000000000e+00,1.000000000000000000e+00,0.000000000000000000e+00,6.500000000000000000e+01,4.961000000000000000e+03,3.161611557006835938e-01,1.927361011505126953e+00,6.229729005075437254e-01,0.000000000000000000e+00,1.120000000000000000e+02
0.000000000000000000e+00,1.000000000000000000e+00,0.000000000000000000e+00,5.500000000000000000e+01,5.016000000000000000e+03,1.820859909057617188e-01,1.436386108398437500e+00,2.597931102539053905e-01,0.000000000000000000e+00,1.120000000000000000e+02
1.000000000000000000e+00,1.000000000000000000e+00,1.000000000000000000e+00,6.400000000000000000e+01,5.080000000000000000e+03,3.087220191955566406e-01,1.679270982742309570e+00,3.890166908971827153e-01,0.000000000000000000e+00,1.120000000000000000e+02
1.000000000000000000e+00,1.000000000000000000e+00,1.000000000000000000e+00,6.300000000000000000e+01,5.143000000000000000e+03,3.183670043945312500e-01,1.819644212722778320e+00,5.083565715009891184e-01,0.000000000000000000e+00,1.120000000000000000e+02
1.000000000000000000e+00,1.000000000000000000e+00,1.000000000000000000e+00,6.100000000000000000e+01,5.204000000000000000e+03,2.798440456390380859e-01,1.906038999557495117e+00,6.312338666303273227e-01,0.000000000000000000e+00,1.120000000000000000e+02
0.000000000000000000e+00,1.000000000000000000e+00,0.000000000000000000e+00,6.400000000000000000e+01,5.268000000000000000e+03,3.218238353729248047e-01,1.614540100097656250e+00,3.128655749750748893e-01,0.000000000000000000e+00,1.120000000000000000e+02
1.000000000000000000e+00,1.000000000000000000e+00,1.000000000000000000e+00,6.700000000000000000e+01,5.335000000000000000e+03,2.592539787292480469e-01,1.922040939331054688e+00,6.846352802614803501e-01,0.000000000000000000e+00,1.120000000000000000e+02
0.000000000000000000e+00,1.000000000000000000e+00,0.000000000000000000e+00,5.700000000000000000e+01,5.392000000000000000e+03,3.149340152740478516e-01,1.662710905075073242e+00,3.477645999714657488e-01,0.000000000000000000e+00,1.120000000000000000e+02
1.000000000000000000e+00,0.000000000000000000e+00,0.000000000000000000e+00,3.600000000000000000e+01,5.428000000000000000e+03,3.121330738067626953e-01,1.595343112945556641e+00,2.932312154654838077e-01,1.000000000000000000e+00,1.110000000000000000e+02
0.000000000000000000e+00,0.000000000000000000e+00,1.000000000000000000e+00,4.000000000000000000e+01,5.468000000000000000e+03,3.310961723327636719e-01,1.799695968627929688e+00,4.761417953592462227e-01,0.000000000000000000e+00,1.110000000000000000e+02
0.000000000000000000e+00,1.000000000000000000e+00,0.000000000000000000e+00,5.900000000000000000e+01,5.527000000000000000e+03,2.591629028320312500e-01,1.839230060577392578e+00,5.986771077507129224e-01,0.000000000000000000e+00,1.110000000000000000e+02
0.000000000000000000e+00,1.000000000000000000e+00,0.000000000000000000e+00,6.200000000000000000e+01,5.589000000000000000e+03,3.362250328063964844e-01,1.664737939834594727e+00,3.304183604214319114e-01,0.000000000000000000e+00,1.110000000000000000e+02
0.000000000000000000e+00,1.000000000000000000e+00,0.000000000000000000e+00,6.200000000000000000e+01,5.651000000000000000e+03,2.972960472106933594e-01,1.939728975296020508e+00,6.532317722616760580e-01,0.000000000000000000e+00,1.110000000000000000e+02
0.000000000000000000e+00,1.000000000000000000e+00,0.000000000000000000e+00,6.000000000000000000e+01,5.711000000000000000e+03,2.783389091491699219e-01,1.550755023956298828e+00,2.711348451005284321e-01,0.000000000000000000e+00,1.110000000000000000e+02
1.000000000000000000e+00,1.000000000000000000e+00,1.000000000000000000e+00,5.900000000000000000e+01,5.770000000000000000e+03,3.353919982910156250e-01,1.806744098663330078e+00,4.777433774504449282e-01,0.000000000000000000e+00,1.110000000000000000e+02
1.000000000000000000e+00,1.000000000000000000e+00,1.000000000000000000e+00,6.000000000000000000e+01,5.830000000000000000e+03,3.165850639343261719e-01,2.018171072006225586e+00,7.123860551591132406e-01,0.000000000000000000e+00,1.110000000000000000e+02
0.000000000000000000e+00,1.000000000000000000e+00,0.000000000000000000e+00,5.700000000000000000e+01,5.887000000000000000e+03,3.198750019073486328e-01,1.995867013931274414e+00,6.917505142480959712e-01,0.000000000000000000e+00,1.110000000000000000e+02
1.000000000000000000e+00,1.000000000000000000e+00,1.000000000000000000e+00,6.000000000000000000e+01,5.947000000000000000e+03,2.782239913940429688e-01,1.855017900466918945e+00,5.802871342301164637e-01,0.000000000000000000e+00,1.110000000000000000e+02
1.000000000000000000e+00,1.000000000000000000e+00,1.000000000000000000e+00,5.600000000000000000e+01,6.003000000000000000e+03,2.940180301666259766e-01,1.867620944976806641e+00,5.979434706678322664e-01,0.000000000000000000e+00,1.110000000000000000e+02
1.000000000000000000e+00,1.000000000000000000e+00,1.000000000000000000e+00,5.500000000000000000e+01,6.058000000000000000e+03,2.664191722869873047e-01,1.725779056549072266e+00,4.739668690847430588e-01,0.000000000000000000e+00,1.110000000000000000e+02
0.000000000000000000e+00,1.000000000000000000e+00,0.000000000000000000e+00,5.900000000000000000e+01,6.117000000000000000e+03,2.710969448089599609e-01,1.527760028839111328e+00,2.686593331178776523e-01,0.000000000000000000e+00,1.110000000000000000e+02
1.000000000000000000e+00,1.000000000000000000e+00,1.000000000000000000e+00,5.900000000000000000e+01,6.176000000000000000e+03,2.958250045776367188e-01,1.596176862716674805e+00,2.982026685572695679e-01,0.000000000000000000e+00,1.110000000000000000e+02
0.000000000000000000e+00,1.000000000000000000e+00,0.000000000000000000e+00,6.200000000000000000e+01,6.238000000000000000e+03,2.935471534729003906e-01,1.595380067825317383e+00,3.103162616668935225e-01,0.000000000000000000e+00,1.110000000000000000e+02
1.000000000000000000e+00,1.000000000000000000e+00,1.000000000000000000e+00,6.300000000000000000e+01,6.301000000000000000e+03,2.786648273468017578e-01,1.946577072143554688e+00,6.732788091237185135e-01,0.000000000000000000e+00,1.110000000000000000e+02
1.000000000000000000e+00,1.000000000000000000e+00,1.000000000000000000e+00,6.600000000000000000e+01,6.367000000000000000e+03,3.057260513305664062e-01,1.924468040466308594e+00,6.311780973499547809e-01,0.000000000000000000e+00,1.110000000000000000e+02
1.000000000000000000e+00,1.000000000000000000e+00,1.000000000000000000e+00,6.000000000000000000e+01,6.427000000000000000e+03,2.620899677276611328e-01,1.849756956100463867e+00,5.977401937919086805e-01,0.000000000000000000e+00,1.110000000000000000e+02
1.000000000000000000e+00,1.000000000000000000e+00,1.000000000000000000e+00,6.200000000000000000e+01,6.489000000000000000e+03,2.481930255889892578e-01,1.651657819747924805e+00,4.163191214623003789e-01,0.000000000000000000e+00,1.110000000000000000e+02
1.000000000000000000e+00,1.000000000000000000e+00,1.000000000000000000e+00,6.300000000000000000e+01,6.552000000000000000e+03,2.605810165405273438e-01,1.950209140777587891e+00,6.996809442908753507e-01,0.000000000000000000e+00,1.110000000000000000e+02
0.000000000000000000e+00,1.000000000000000000e+00,0.000000000000000000e+00,6.300000000000000000e+01,6.615000000000000000e+03,2.956078052520751953e-01,1.990381002426147461e+00,6.901545048680097771e-01,0.000000000000000000e+00,1.110000000000000000e+02
1.000000000000000000e+00,1.000000000000000000e+00,1.000000000000000000e+00,6.600000000000000000e+01,6.681000000000000000e+03,2.553369998931884766e-01,1.639183044433593750e+00,3.963531694451681853e-01,0.000000000000000000e+00,1.110000000000000000e+02
0.000000000000000000e+00,1.000000000000000000e+00,0.000000000000000000e+00,6.200000000000000000e+01,6.743000000000000000e+03,3.040750026702880859e-01,1.946352005004882812e+00,6.592205261610954992e-01,0.000000000000000000e+00,1.110000000000000000e+02
0.000000000000000000e+00,1.000000000000000000e+00,0.000000000000000000e+00,6.500000000000000000e+01,6.808000000000000000e+03,3.271269798278808594e-01,1.893382072448730469e+00,5.860791975487753547e-01,0.000000000000000000e+00,1.110000000000000000e+02
0.000000000000000000e+00,1.000000000000000000e+00,0.000000000000000000e+00,6.000000000000000000e+01,6.868000000000000000e+03,3.141939640045166016e-01,1.770859956741333008e+00,4.571554806108812929e-01,0.000000000000000000e+00,1.110000000000000000e+02
0.000000000000000000e+00,1.000000000000000000e+00,0.000000000000000000e+00,6.300000000000000000e+01,6.931000000000000000e+03,2.806911468505859375e-01,1.854405164718627930e+00,5.781587371879470805e-01,0.000000000000000000e+00,1.110000000000000000e+02
1.000000000000000000e+00,1.000000000000000000e+00,1.000000000000000000e+00,6.200000000000000000e+01,6.993000000000000000e+03,2.896358966827392578e-01,1.819986104965209961e+00,5.482900213955701485e-01,0.000000000000000000e+00,1.110000000000000000e+02
0.000000000000000000e+00,1.000000000000000000e+00,0.000000000000000000e+00,6.300000000000000000e+01,7.056000000000000000e+03,2.580370903015136719e-01,1.980625867843627930e+00,7.454798767652746072e-01,0.000000000000000000e+00,1.110000000000000000e+02
1.000000000000000000e+00,1.000000000000000000e+00,1.000000000000000000e+00,5.900000000000000000e+01,7.115000000000000000e+03,2.407999038696289062e-01,1.612334012985229492e+00,3.915804081902938272e-01,0.000000000000000000e+00,1.110000000000000000e+02
0.000000000000000000e+00,1.000000000000000000e+00,0.000000000000000000e+00,5.500000000000000000e+01,7.170000000000000000e+03,2.561819553375244141e-01,1.582749128341674805e+00,3.411220963016562968e-01,0.000000000000000000e+00,1.110000000000000000e+02
1.000000000000000000e+00,1.000000000000000000e+00,1.000000000000000000e+00,5.700000000000000000e+01,7.227000000000000000e+03,2.529010772705078125e-01,1.714444875717163086e+00,4.721747443541247646e-01,0.000000000000000000e+00,1.110000000000000000e+02
0.000000000000000000e+00,1.000000000000000000e+00,0.000000000000000000e+00,6.000000000000000000e+01,7.287000000000000000e+03,2.453010082244873047e-01,1.950947999954223633e+00,7.062949793791652997e-01,0.000000000000000000e+00,1.110000000000000000e+02
1.000000000000000000e+00,1.000000000000000000e+00,1.000000000000000000e+00,6.700000000000000000e+01,7.354000000000000000e+03,3.013830184936523438e-01,1.613219022750854492e+00,3.200001307341482915e-01,0.000000000000000000e+00,1.110000000000000000e+02
0.000000000000000000e+00,1.000000000000000000e+00,0.000000000000000000e+00,6.000000000000000000e+01,7.414000000000000000e+03,2.457749843597412109e-01,1.622267961502075195e+00,3.756052272819537241e-01,0.000000000000000000e+00,1.110000000000000000e+02
0.000000000000000000e+00,1.000000000000000000e+00,0.000000000000000000e+00,6.500000000000000000e+01,7.479000000000000000e+03,3.562209606170654297e-01,1.949753999710083008e+00,6.085316230736914633e-01,0.000000000000000000e+00,1.110000000000000000e+02
1.000000000000000000e+00,1.000000000000000000e+00,1.000000000000000000e+00,6.800000000000000000e+01,7.547000000000000000e+03,2.402050495147705078e-01,1.735796928405761719e+00,5.111819601504361543e-01,0.000000000000000000e+00,1.110000000000000000e+02
0.000000000000000000e+00,0.000000000000000000e+00,1.000000000000000000e+00,3.700000000000000000e+01,7.584000000000000000e+03,2.039129734039306641e-01,1.818506002426147461e+00,6.296253602234085367e-01,0.000000000000000000e+00,1.110000000000000000e+02
0.000000000000000000e+00,1.000000000000000000e+00,0.000000000000000000e+00,6.000000000000000000e+01,7.644000000000000000e+03,3.034279346466064453e-01,1.895241022109985352e+00,6.083022710089024399e-01,0.000000000000000000e+00,1.110000000000000000e+02
1.000000000000000000e+00,1.000000000000000000e+00,1.000000000000000000e+00,6.200000000000000000e+01,7.706000000000000000e+03,2.933878898620605469e-01,1.882426023483276367e+00,6.074991017320516828e-01,0.000000000000000000e+00,1.110000000000000000e+02
0.000000000000000000e+00,1.000000000000000000e+00,0.000000000000000000e+00,6.000000000000000000e+01,7.766000000000000000e+03,2.981460094451904297e-01,1.591866970062255859e+00,2.997456927799812543e-01,0.000000000000000000e+00,1.110000000000000000e+02
1.000000000000000000e+00,1.000000000000000000e+00,1.000000000000000000e+00,6.000000000000000000e+01,7.826000000000000000e+03,3.371610641479492188e-01,1.599762916564941406e+00,2.662932054937787174e-01,0.000000000000000000e+00,1.110000000000000000e+02
1.000000000000000000e+00,1.000000000000000000e+00,1.000000000000000000e+00,6.700000000000000000e+01,7.893000000000000000e+03,3.072390556335449219e-01,1.639621019363403320e+00,3.392511939087829997e-01,0.000000000000000000e+00,1.110000000000000000e+02
0.000000000000000000e+00,1.000000000000000000e+00,0.000000000000000000e+00,5.500000000000000000e+01,7.948000000000000000e+03,2.499451637268066406e-01,1.692059993743896484e+00,4.479255664915877677e-01,0.000000000000000000e+00,1.110000000000000000e+02
0.000000000000000000e+00,1.000000000000000000e+00,0.000000000000000000e+00,6.000000000000000000e+01,8.008000000000000000e+03,3.087470531463623047e-01,2.020960092544555664e+00,7.353611569418825322e-01,0.000000000000000000e+00,1.110000000000000000e+02
1.000000000000000000e+00,1.000000000000000000e+00,1.000000000000000000e+00,5.600000000000000000e+01,8.064000000000000000e+03,3.234369754791259766e-01,1.569150924682617188e+00,2.550600293120103834e-01,0.000000000000000000e+00,1.110000000000000000e+02
0.000000000000000000e+00,1.000000000000000000e+00,0.000000000000000000e+00,7.000000000000000000e+01,8.134000000000000000e+03,2.717881202697753906e-01,1.867520809173583984e+00,6.056355752584438035e-01,0.000000000000000000e+00,1.110000000000000000e+02
0.000000000000000000e+00,1.000000000000000000e+00,0.000000000000000000e+00,6.400000000000000000e+01,8.198000000000000000e+03,3.291881084442138672e-01,2.018926858901977539e+00,6.912407363143833194e-01,0.000000000000000000e+00,1.110000000000000000e+02
0.000000000000000000e+00,1.000000000000000000e+00,0.000000000000000000e+00,6.400000000000000000e+01,8.262000000000000000e+03,2.935860157012939453e-01,1.653011083602905273e+00,3.779828705931977395e-01,0.000000000000000000e+00,1.110000000000000000e+02
1.000000000000000000e+00,1.000000000000000000e+00,1.000000000000000000e+00,5.900000000000000000e+01,8.321000000000000000e+03,3.416521549224853516e-01,1.757349014282226562e+00,4.353337058394759485e-01,0.000000000000000000e+00,1.110000000000000000e+02
0.000000000000000000e+00,1.000000000000000000e+00,0.000000000000000000e+00,6.500000000000000000e+01,8.386000000000000000e+03,2.440488338470458984e-01,1.808122158050537109e+00,5.767505392842562362e-01,0.000000000000000000e+00,1.110000000000000000e+02
0.000000000000000000e+00,1.000000000000000000e+00,0.000000000000000000e+00,6.500000000000000000e+01,8.451000000000000000e+03,2.760899066925048828e-01,1.806320905685424805e+00,5.498068760146014311e-01,0.000000000000000000e+00,1.110000000000000000e+02
1.000000000000000000e+00,1.000000000000000000e+00,1.000000000000000000e+00,6.500000000000000000e+01,8.516000000000000000e+03,3.165040016174316406e-01,1.622781038284301758e+00,3.062853959971777451e-01,0.000000000000000000e+00,1.110000000000000000e+02
0.000000000000000000e+00,1.000000000000000000e+00,0.000000000000000000e+00,5.900000000000000000e+01,8.575000000000000000e+03,2.479610443115234375e-01,1.751269102096557617e+00,5.074249697139959769e-01,0.000000000000000000e+00,1.110000000000000000e+02
0.000000000000000000e+00,1.000000000000000000e+00,0.000000000000000000e+00,6.400000000000000000e+01,8.639000000000000000e+03,2.980630397796630859e-01,1.770743846893310547e+00,4.783032271441149397e-01,0.000000000000000000e+00,1.110000000000000000e+02
1.000000000000000000e+00,1.000000000000000000e+00,1.000000000000000000e+00,6.200000000000000000e+01,8.701000000000000000e+03,6.623821258544921875e-01,2.108592987060546875e+00,4.536559055009767860e-01,0.000000000000000000e+00,1.110000000000000000e+02
0.000000000000000000e+00,1.000000000000000000e+00,0.000000000000000000e+00,5.300000000000000000e+01,8.754000000000000000e+03,2.518489360809326172e-01,1.582330942153930664e+00,3.361921906513538616e-01,0.000000000000000000e+00,1.110000000000000000e+02
1.000000000000000000e+00,1.000000000000000000e+00,1.000000000000000000e+00,6.400000000000000000e+01,8.818000000000000000e+03,2.915427684783935547e-01,1.809153079986572266e+00,5.285401260798563428e-01,0.000000000000000000e+00,1.110000000000000000e+02
0.000000000000000000e+00,1.000000000000000000e+00,0.000000000000000000e+00,6.000000000000000000e+01,8.878000000000000000e+03,2.365601062774658203e-01,1.741189002990722656e+00,5.198104906750262710e-01,0.000000000000000000e+00,1.110000000000000000e+02
1.000000000000000000e+00,1.000000000000000000e+00,1.000000000000000000e+00,5.400000000000000000e+01,8.932000000000000000e+03,2.846961021423339844e-01,1.708076953887939453e+00,4.280849352381119743e-01,0.000000000000000000e+00,1.110000000000000000e+02
0.000000000000000000e+00,1.000000000000000000e+00,0.000000000000000000e+00,6.200000000000000000e+01,8.994000000000000000e+03,2.596528530120849609e-01,1.778350830078125000e+00,5.397437148390880068e-01,0.000000000000000000e+00,1.110000000000000000e+02
1.000000000000000000e+00,1.000000000000000000e+00,1.000000000000000000e+00,5.300000000000000000e+01,9.047000000000000000e+03,2.294027805328369141e-01,1.570220947265625000e+00,3.435384954556089387e-01,0.000000000000000000e+00,1.110000000000000000e+02
1.000000000000000000e+00,1.000000000000000000e+00,1.000000000000000000e+00,6.500000000000000000e+01,9.112000000000000000e+03,3.447818756103515625e-01,1.851001024246215820e+00,5.277764049975655070e-01,0.000000000000000000e+00,1.110000000000000000e+02
0.000000000000000000e+00,1.000000000000000000e+00,0.000000000000000000e+00,6.700000000000000000e+01,9.179000000000000000e+03,2.659230232238769531e-01,1.651064157485961914e+00,3.957479462202609377e-01,0.000000000000000000e+00,1.110000000000000000e+02
0.000000000000000000e+00,1.000000000000000000e+00,0.000000000000000000e+00,6.800000000000000000e+01,9.247000000000000000e+03,3.069341182708740234e-01,1.990611076354980469e+00,7.027247974000769837e-01,0.000000000000000000e+00,1.110000000000000000e+02
1.000000000000000000e+00,1.000000000000000000e+00,1.000000000000000000e+00,5.900000000000000000e+01,9.306000000000000000e+03,2.829830646514892578e-01,1.558431863784790039e+00,2.783897554313509715e-01,0.000000000000000000e+00,1.110000000000000000e+02
1.000000000000000000e+00,1.000000000000000000e+00,1.000000000000000000e+00,6.100000000000000000e+01,9.367000000000000000e+03,3.300459384918212891e-01,1.827830076217651367e+00,5.060102712162253269e-01,0.000000000000000000e+00,1.110000000000000000e+02
0.000000000000000000e+00,1.000000000000000000e+00,0.000000000000000000e+00,6.300000000000000000e+01,9.430000000000000000e+03,3.777699470520019531e-01,1.627151966094970703e+00,2.668642346477053118e-01,0.000000000000000000e+00,1.110000000000000000e+02
1.000000000000000000e+00,1.000000000000000000e+00,1.000000000000000000e+00,6.400000000000000000e+01,9.494000000000000000e+03,4.444680213928222656e-01,2.157349109649658203e+00,7.238372340045485798e-01,0.000000000000000000e+00,1.110000000000000000e+02
0.000000000000000000e+00,1.000000000000000000e+00,0.000000000000000000e+00,6.200000000000000000e+01,9.556000000000000000e+03,2.995738983154296875e-01,1.887939929962158203e+00,5.950325035471171198e-01,0.000000000000000000e+00,1.110000000000000000e+02
1.000000000000000000e+00,1.000000000000000000e+00,1.000000000000000000e+00,6.500000000000000000e+01,9.621000000000000000e+03,5.043418407440185547e-01,1.858884811401367188e+00,3.711861070193760437e-01,0.000000000000000000e+00,1.110000000000000000e+02
1.000000000000000000e+00,1.000000000000000000e+00,1.000000000000000000e+00,5.900000000000000000e+01,9.680000000000000000e+03,4.127008914947509766e-01,1.871617078781127930e+00,4.594454035352489862e-01,0.000000000000000000e+00,1.110000000000000000e+02
1.000000000000000000e+00,1.000000000000000000e+00,1.000000000000000000e+00,6.600000000000000000e+01,9.746000000000000000e+03,2.952010631561279297e-01,1.947546005249023438e+00,6.569076331330911955e-01,0.000000000000000000e+00,1.110000000000000000e+02
1.000000000000000000e+00,1.000000000000000000e+00,1.000000000000000000e+00,6.500000000000000000e+01,9.811000000000000000e+03,2.921848297119140625e-01,1.940741062164306641e+00,6.643836273568970441e-01,0.000000000000000000e+00,1.110000000000000000e+02
0.000000000000000000e+00,1.000000000000000000e+00,0.000000000000000000e+00,6.300000000000000000e+01,9.874000000000000000e+03,4.549047946929931641e-01,1.731012105941772461e+00,2.958472635172883503e-01,0.000000000000000000e+00,1.110000000000000000e+02
1.000000000000000000e+00,1.000000000000000000e+00,1.000000000000000000e+00,6.300000000000000000e+01,9.937000000000000000e+03,5.321102142333984375e-01,2.080912828445434570e+00,5.599310441790843473e-01,0.000000000000000000e+00,1.110000000000000000e+02
1.000000000000000000e+00,1.000000000000000000e+00,1.000000000000000000e+00,6.100000000000000000e+01,9.998000000000000000e+03,3.873748779296875000e-01,2.118476867675781250e+00,7.449097283541733505e-01,0.000000000000000000e+00,1.110000000000000000e+02
0.000000000000000000e+00,1.000000000000000000e+00,0.000000000000000000e+00,5.900000000000000000e+01,1.005700000000000000e+04,2.777509689331054688e-01,1.837543964385986328e+00,5.827374091774080167e-01,0.000000000000000000e+00,1.110000000000000000e+02
1.000000000000000000e+00,1.000000000000000000e+00,1.000000000000000000e+00,5.900000000000000000e+01,1.011600000000000000e+04,4.368379116058349609e-01,1.714645862579345703e+00,2.811362221101711967e-01,0.000000000000000000e+00,1.110000000000000000e+02
1.000000000000000000e+00,1.000000000000000000e+00,1.000000000000000000e+00,6.900000000000000000e+01,1.018500000000000000e+04,3.599321842193603516e-01,1.942264795303344727e+00,6.065031883492661979e-01,0.000000000000000000e+00,1.110000000000000000e+02
0.000000000000000000e+00,1.000000000000000000e+00,0.000000000000000000e+00,6.100000000000000000e+01,1.024600000000000000e+04,2.669870853424072266e-01,1.863177061080932617e+00,6.030878092619784692e-01,0.000000000000000000e+00,1.110000000000000000e+02
1.000000000000000000e+00,1.000000000000000000e+00,1.000000000000000000e+00,6.300000000000000000e+01,1.030900000000000000e+04,2.833499908447265625e-01,1.601310014724731445e+00,3.214419022691805128e-01,0.000000000000000000e+00,1.110000000000000000e+02
0.000000000000000000e+00,1.000000000000000000e+00,0.000000000000000000e+00,6.200000000000000000e+01,1.037100000000000000e+04,2.854428291320800781e-01,1.876585006713867188e+00,5.978138398964041311e-01,0.000000000000000000e+00,1.110000000000000000e+02
1.000000000000000000e+00,1.000000000000000000e+00,1.000000000000000000e+00,5.700000000000000000e+01,1.042800000000000000e+04,2.488300800323486328e-01,1.744222879409790039e+00,5.088533490140612070e-01,0.000000000000000000e+00,1.110000000000000000e+02
1.000000000000000000e+00,1.000000000000000000e+00,1.000000000000000000e+00,6.300000000000000000e+01,1.049100000000000000e+04,2.679319381713867188e-01,1.514282941818237305e+00,2.568293799364278485e-01,0.000000000000000000e+00,1.110000000000000000e+02
0.000000000000000000e+00,0.000000000000000000e+00,1.000000000000000000e+00,3.600000000000000000e+01,1.052700000000000000e+04,2.272498607635498047e-01,1.528934001922607422e+00,3.190922191570850774e-01,0.000000000000000000e+00,1.110000000000000000e+02
1.000000000000000000e+00,1.000000000000000000e+00,1.000000000000000000e+00,6.400000000000000000e+01,1.059100000000000000e+04,3.600602149963378906e-01,1.933445215225219727e+00,5.856899094546652584e-01,0.000000000000000000e+00,1.110000000000000000e+02
0.000000000000000000e+00,1.000000000000000000e+00,0.000000000000000000e+00,6.400000000000000000e+01,1.065500000000000000e+04,2.707469463348388672e-01,1.957821846008300781e+00,6.937220216474853096e-01,0.000000000000000000e+00,1.110000000000000000e+02
0.000000000000000000e+00,1.000000000000000000e+00,0.000000000000000000e+00,6.100000000000000000e+01,1.071600000000000000e+04,3.498749732971191406e-01,2.068844795227050781e+00,7.290170804224229695e-01,0.000000000000000000e+00,1.110000000000000000e+02
1.000000000000000000e+00,1.000000000000000000e+00,1.000000000000000000e+00,6.000000000000000000e+01,1.077600000000000000e+04,2.492280006408691406e-01,1.774539947509765625e+00,5.371888445521147970e-01,0.000000000000000000e+00,1.110000000000000000e+02
1.000000000000000000e+00,1.000000000000000000e+00,1.000000000000000000e+00,6.700000000000000000e+01,1.084300000000000000e+04,3.289990425109863281e-01,1.707309961318969727e+00,3.780666714481346058e-01,0.000000000000000000e+00,1.110000000000000000e+02
1.000000000000000000e+00,1.000000000000000000e+00,1.000000000000000000e+00,6.200000000000000000e+01,1.090500000000000000e+04,2.930400371551513672e-01,1.851920127868652344e+00,5.799023472269435597e-01,0.000000000000000000e+00,1.110000000000000000e+02
1.000000000000000000e+00,1.000000000000000000e+00,1.000000000000000000e+00,6.700000000000000000e+01,1.097200000000000000e+04,2.869930267333984375e-01,1.663853883743286133e+00,3.939951647565229642e-01,0.000000000000000000e+00,1.110000000000000000e+02
0.000000000000000000e+00,0.000000000000000000e+00,1.000000000000000000e+00,3.700000000000000000e+01,1.100900000000000000e+04,3.324229717254638672e-01,1.576786994934082031e+00,2.543349142305770250e-01,0.000000000000000000e+00,1.110000000000000000e+02
1.000000000000000000e+00,1.000000000000000000e+00,1.000000000000000000e+00,6.600000000000000000e+01,1.107500000000000000e+04,2.951610088348388672e-01,1.854975938796997070e+00,5.590629734868435285e-01,0.000000000000000000e+00,1.110000000000000000e+02
1.000000000000000000e+00,1.000000000000000000e+00,1.000000000000000000e+00,5.900000000000000000e+01,1.113400000000000000e+04,2.812111377716064453e-01,1.777151107788085938e+00,5.030442100909783276e-01,0.000000000000000000e+00,1.110000000000000000e+02
0.000000000000000000e+00,1.000000000000000000e+00,0.000000000000000000e+00,6.200000000000000000e+01,1.119600000000000000e+04,2.989790439605712891e-01,1.638932943344116211e+00,3.421942314154336473e-01,0.000000000000000000e+00,1.110000000000000000e+02
1.000000000000000000e+00,1.000000000000000000e+00,1.000000000000000000e+00,5.400000000000000000e+01,1.125000000000000000e+04,2.898869514465332031e-01,1.993830919265747070e+00,7.190524782858493946e-01,0.000000000000000000e+00,1.110000000000000000e+02
1.000000000000000000e+00,1.000000000000000000e+00,1.000000000000000000e+00,6.200000000000000000e+01,1.131200000000000000e+04,2.927420139312744141e-01,2.008820056915283203e+00,7.279503291025501976e-01,0.000000000000000000e+00,1.110000000000000000e+02
1.000000000000000000e+00,1.000000000000000000e+00,1.000000000000000000e+00,6.400000000000000000e+01,1.137600000000000000e+04,2.588169574737548828e-01,1.502294063568115234e+00,2.641386268437436180e-01,0.000000000000000000e+00,1.110000000000000000e+02
0.000000000000000000e+00,1.000000000000000000e+00,0.000000000000000000e+00,5.400000000000000000e+01,1.143000000000000000e+04,6.128988265991210938e-01,2.070312976837158203e+00,4.676715327532470767e-01,0.000000000000000000e+00,1.110000000000000000e+02
0.000000000000000000e+00,1.000000000000000000e+00,0.000000000000000000e+00,6.600000000000000000e+01,1.149600000000000000e+04,3.287339210510253906e-01,2.006341934204101562e+00,6.742554076774489591e-01,0.000000000000000000e+00,1.110000000000000000e+02
1.000000000000000000e+00,1.000000000000000000e+00,1.000000000000000000e+00,6.000000000000000000e+01,1.155600000000000000e+04,2.656669616699218750e-01,1.633835077285766602e+00,3.747644682701203322e-01,0.000000000000000000e+00,1.110000000000000000e+02
1.000000000000000000e+00,0.000000000000000000e+00,0.000000000000000000e+00,3.300000000000000000e+01,1.158900000000000000e+04,2.894580364227294922e-01,1.953563928604125977e+00,6.780946998140560122e-01,1.000000000000000000e+00,1.120000000000000000e+02
1.000000000000000000e+00,1.000000000000000000e+00,1.000000000000000000e+00,6.000000000000000000e+01,1.164900000000000000e+04,2.564609050750732422e-01,1.949892997741699219e+00,7.113697846022382087e-01,0.000000000000000000e+00,1.120000000000000000e+02
0.000000000000000000e+00,1.000000000000000000e+00,0.000000000000000000e+00,5.900000000000000000e+01,1.170800000000000000e+04,3.435590267181396484e-01,1.721385002136230469e+00,3.998208598692135629e-01,0.000000000000000000e+00,1.120000000000000000e+02
1.000000000000000000e+00,1.000000000000000000e+00,1.000000000000000000e+00,5.700000000000000000e+01,1.176500000000000000e+04,3.022720813751220703e-01,1.600330114364624023e+00,3.003456047186395250e-01,0.000000000000000000e+00,1.120000000000000000e+02
0.000000000000000000e+00,1.000000000000000000e+00,0.000000000000000000e+00,6.800000000000000000e+01,1.183300000000000000e+04,4.543437957763671875e-01,1.772406101226806641e+00,3.227686361825009564e-01,0.000000000000000000e+00,1.120000000000000000e+02
0.000000000000000000e+00,1.000000000000000000e+00,0.000000000000000000e+00,5.600000000000000000e+01,1.188900000000000000e+04,3.156950473785400391e-01,1.783529043197631836e+00,4.729009508441066045e-01,0.000000000000000000e+00,1.120000000000000000e+02
1.000000000000000000e+00,1.000000000000000000e+00,1.000000000000000000e+00,6.400000000000000000e+01,1.195300000000000000e+04,2.704510688781738281e-01,1.966095924377441406e+00,7.055201108773547780e-01,0.000000000000000000e+00,1.120000000000000000e+02
1.000000000000000000e+00,1.000000000000000000e+00,1.000000000000000000e+00,6.300000000000000000e+01,1.201600000000000000e+04,3.038489818572998047e-01,2.043031930923461914e+00,7.485983803985900575e-01,0.000000000000000000e+00,1.120000000000000000e+02
0.000000000000000000e+00,1.000000000000000000e+00,0.000000000000000000e+00,5.600000000000000000e+01,1.207200000000000000e+04,2.719178199768066406e-01,1.775273084640502930e+00,5.075220391582245805e-01,0.000000000000000000e+00,1.120000000000000000e+02
0.000000000000000000e+00,1.000000000000000000e+00,0.000000000000000000e+00,6.100000000000000000e+01,1.213300000000000000e+04,3.113050460815429688e-01,1.709022045135498047e+00,4.167280503810440462e-01,0.000000000000000000e+00,1.120000000000000000e+02
0.000000000000000000e+00,1.000000000000000000e+00,0.000000000000000000e+00,6.800000000000000000e+01,1.220100000000000000e+04,3.017179965972900391e-01,1.844178915023803711e+00,5.442247062670027002e-01,0.000000000000000000e+00,1.120000000000000000e+02
1.000000000000000000e+00,1.000000000000000000e+00,1.000000000000000000e+00,5.900000000000000000e+01,1.226000000000000000e+04,2.814850807189941406e-01,1.762898921966552734e+00,4.906096316230917909e-01,0.000000000000000000e+00,1.120000000000000000e+02
0.000000000000000000e+00,1.000000000000000000e+00,0.000000000000000000e+00,5.600000000000000000e+01,1.231600000000000000e+04,2.318730354309082031e-01,1.591243028640747070e+00,3.653660216057964538e-01,0.000000000000000000e+00,1.120000000000000000e+02
1.000000000000000000e+00,1.000000000000000000e+00,1.000000000000000000e+00,6.200000000000000000e+01,1.237800000000000000e+04,2.826020717620849609e-01,1.791060924530029297e+00,5.230167850400941898e-01,0.000000000000000000e+00,1.120000000000000000e+02
0.000000000000000000e+00,1.000000000000000000e+00,0.000000000000000000e+00,6.200000000000000000e+01,1.244000000000000000e+04,2.306959629058837891e-01,1.791479825973510742e+00,5.645207856356637688e-01,0.000000000000000000e+00,1.120000000000000000e+02
1.000000000000000000e+00,1.000000000000000000e+00,1.000000000000000000e+00,6.400000000000000000e+01,1.250400000000000000e+04,3.394210338592529297e-01,1.798064947128295898e+00,4.794123169448287203e-01,0.000000000000000000e+00,1.120000000000000000e+02
1.000000000000000000e+00,1.000000000000000000e+00,1.000000000000000000e+00,6.300000000000000000e+01,1.256700000000000000e+04,3.434681892395019531e-01,1.638141870498657227e+00,3.177846084360344547e-01,0.000000000000000000e+00,1.120000000000000000e+02
0.000000000000000000e+00,1.000000000000000000e+00,0.000000000000000000e+00,6.500000000000000000e+01,1.263200000000000000e+04,2.914340496063232422e-01,1.695281028747558594e+00,4.130437975374665616e-01,0.000000000000000000e+00,1.120000000000000000e+02
1.000000000000000000e+00,1.000000000000000000e+00,1.000000000000000000e+00,6.000000000000000000e+01,1.269200000000000000e+04,5.699019432067871094e-01,2.246657848358154297e+00,6.928599549820559922e-01,0.000000000000000000e+00,1.120000000000000000e+02
0.000000000000000000e+00,1.000000000000000000e+00,0.000000000000000000e+00,6.500000000000000000e+01,1.275700000000000000e+04,2.622148990631103516e-01,1.932412147521972656e+00,6.753890584113886320e-01,0.000000000000000000e+00,1.120000000000000000e+02
0.000000000000000000e+00,1.000000000000000000e+00,0.000000000000000000e+00,6.600000000000000000e+01,1.282300000000000000e+04,2.779819965362548828e-01,1.824328899383544922e+00,5.665658430385942523e-01,0.000000000000000000e+00,1.120000000000000000e+02
0.000000000000000000e+00,1.000000000000000000e+00,0.000000000000000000e+00,6.200000000000000000e+01,1.288500000000000000e+04,2.147219181060791016e-01,1.614961147308349609e+00,3.984089314592362263e-01,0.000000000000000000e+00,1.120000000000000000e+02
1.000000000000000000e+00,1.000000000000000000e+00,1.000000000000000000e+00,6.100000000000000000e+01,1.294600000000000000e+04,3.038101196289062500e-01,1.869935989379882812e+00,5.849299671887722152e-01,0.000000000000000000e+00,1.120000000000000000e+02
1.000000000000000000e+00,1.000000000000000000e+00,1.000000000000000000e+00,6.200000000000000000e+01,1.300800000000000000e+04,2.425367832183837891e-01,1.718194961547851562e+00,4.866207478603249981e-01,0.000000000000000000e+00,1.120000000000000000e+02
0.000000000000000000e+00,1.000000000000000000e+00,0.000000000000000000e+00,6.700000000000000000e+01,1.307500000000000000e+04,2.869679927825927734e-01,1.991602897644042969e+00,7.114170177627781033e-01,0.000000000000000000e+00,1.120000000000000000e+02
0.000000000000000000e+00,1.000000000000000000e+00,0.000000000000000000e+00,6.900000000000000000e+01,1.314400000000000000e+04,2.756237983703613281e-01,1.519437074661254883e+00,2.647224037995684065e-01,0.000000000000000000e+00,1.120000000000000000e+02
0.000000000000000000e+00,1.000000000000000000e+00,0.000000000000000000e+00,6.300000000000000000e+01,1.320700000000000000e+04,2.990119457244873047e-01,1.858171939849853516e+00,5.726678317861102485e-01,0.000000000000000000e+00,1.120000000000000000e+02
0.000000000000000000e+00,1.000000000000000000e+00,0.000000000000000000e+00,6.400000000000000000e+01,1.327100000000000000e+04,2.414021492004394531e-01,1.560608148574829102e+00,3.336050752843058853e-01,0.000000000000000000e+00,1.120000000000000000e+02
0.000000000000000000e+00,1.000000000000000000e+00,0.000000000000000000e+00,6.200000000000000000e+01,1.333300000000000000e+04,2.678408622741699219e-01,1.736520051956176758e+00,4.700471401411290828e-01,0.000000000000000000e+00,1.120000000000000000e+02
1.000000000000000000e+00,1.000000000000000000e+00,1.000000000000000000e+00,6.300000000000000000e+01,1.339600000000000000e+04,3.334710597991943359e-01,1.790535926818847656e+00,4.606181893839272345e-01,0.000000000000000000e+00,1.120000000000000000e+02
1.000000000000000000e+00,1.000000000000000000e+00,1.000000000000000000e+00,5.900000000000000000e+01,1.345500000000000000e+04,2.932589054107666016e-01,1.609955072402954102e+00,3.374934770491235247e-01,0.000000000000000000e+00,1.120000000000000000e+02
1.000000000000000000e+00,1.000000000000000000e+00,1.000000000000000000e+00,6.200000000000000000e+01,1.351700000000000000e+04,2.677178382873535156e-01,1.991168975830078125e+00,7.283047825827276833e-01,0.000000000000000000e+00,1.120000000000000000e+02
0.000000000000000000e+00,1.000000000000000000e+00,0.000000000000000000e+00,6.600000000000000000e+01,1.358300000000000000e+04,3.023808002471923828e-01,1.543178081512451172e+00,2.554278775344792085e-01,0.000000000000000000e+00,1.120000000000000000e+02
0.000000000000000000e+00,1.000000000000000000e+00,0.000000000000000000e+00,5.500000000000000000e+01,1.363800000000000000e+04,3.504838943481445312e-01,1.714509963989257812e+00,3.698807023804309702e-01,0.000000000000000000e+00,1.120000000000000000e+02
0.000000000000000000e+00,1.000000000000000000e+00,0.000000000000000000e+00,5.900000000000000000e+01,1.369700000000000000e+04,3.167669773101806641e-01,1.594689130783081055e+00,2.813913257033197057e-01,0.000000000000000000e+00,1.120000000000000000e+02
1.000000000000000000e+00,1.000000000000000000e+00,1.000000000000000000e+00,5.900000000000000000e+01,1.375600000000000000e+04,3.685929775238037109e-01,1.934896945953369141e+00,5.827302704877255213e-01,0.000000000000000000e+00,1.120000000000000000e+02
1.000000000000000000e+00,1.000000000000000000e+00,1.000000000000000000e+00,5.600000000000000000e+01,1.381200000000000000e+04,2.466611862182617188e-01,1.705708026885986328e+00,4.553080801000075062e-01,0.000000000000000000e+00,1.120000000000000000e+02
0.000000000000000000e+00,1.000000000000000000e+00,0.000000000000000000e+00,6.300000000000000000e+01,1.387500000000000000e+04,2.876839637756347656e-01,1.855891942977905273e+00,5.778047524799601042e-01,0.000000000000000000e+00,1.120000000000000000e+02
0.000000000000000000e+00,1.000000000000000000e+00,0.000000000000000000e+00,6.700000000000000000e+01,1.394200000000000000e+04,3.187160491943359375e-01,1.993956089019775391e+00,6.884308630619261349e-01,0.000000000000000000e+00,1.120000000000000000e+02
0.000000000000000000e+00,1.000000000000000000e+00,0.000000000000000000e+00,5.700000000000000000e+01,1.399900000000000000e+04,2.307860851287841797e-01,1.969465970993041992e+00,7.412793284550058814e-01,0.000000000000000000e+00,1.120000000000000000e+02
1.000000000000000000e+00,1.000000000000000000e+00,1.000000000000000000e+00,6.700000000000000000e+01,1.406600000000000000e+04,3.361899852752685547e-01,1.706146001815795898e+00,3.811914962352994651e-01,0.000000000000000000e+00,1.120000000000000000e+02
0.000000000000000000e+00,1.000000000000000000e+00,0.000000000000000000e+00,6.300000000000000000e+01,1.412900000000000000e+04,2.452480792999267578e-01,1.984935998916625977e+00,7.491725367655389656e-01,0.000000000000000000e+00,1.120000000000000000e+02
0.000000000000000000e+00,1.000000000000000000e+00,0.000000000000000000e+00,6.500000000000000000e+01,1.419400000000000000e+04,2.693519592285156250e-01,1.933737993240356445e+00,6.664031310685092357e-01,0.000000000000000000e+00,1.120000000000000000e+02
1.000000000000000000e+00,1.000000000000000000e+00,1.000000000000000000e+00,6.400000000000000000e+01,1.425800000000000000e+04,3.000857830047607422e-01,1.806227922439575195e+00,5.062168844040578763e-01,0.000000000000000000e+00,1.120000000000000000e+02
1.000000000000000000e+00,1.000000000000000000e+00,1.000000000000000000e+00,6.400000000000000000e+01,1.432200000000000000e+04,3.531730175018310547e-01,1.811563014984130859e+00,4.679006862645213594e-01,0.000000000000000000e+00,1.120000000000000000e+02
1.000000000000000000e+00,1.000000000000000000e+00,1.000000000000000000e+00,6.000000000000000000e+01,1.438200000000000000e+04,2.425289154052734375e-01,1.658257961273193359e+00,4.262669745169472280e-01,0.000000000000000000e+00,1.120000000000000000e+02
1.000000000000000000e+00,1.000000000000000000e+00,1.000000000000000000e+00,5.600000000000000000e+01,1.443800000000000000e+04,2.617428302764892578e-01,1.678350925445556641e+00,4.213716051303582066e-01,0.000000000000000000e+00,1.120000000000000000e+02
1.000000000000000000e+00,1.000000000000000000e+00,1.000000000000000000e+00,6.400000000000000000e+01,1.450200000000000000e+04,2.423150539398193359e-01,1.842388153076171875e+00,6.136933370635986318e-01,0.000000000000000000e+00,1.120000000000000000e+02
0.000000000000000000e+00,1.000000000000000000e+00,0.000000000000000000e+00,5.900000000000000000e+01,1.456100000000000000e+04,2.057888507843017578e-01,1.722456932067871094e+00,5.362413726347612375e-01,0.000000000000000000e+00,1.120000000000000000e+02
0.000000000000000000e+00,1.000000000000000000e+00,0.000000000000000000e+00,6.600000000000000000e+01,1.462700000000000000e+04,2.567999362945556641e-01,1.929137945175170898e+00,6.819826508642636842e-01,0.000000000000000000e+00,1.120000000000000000e+02
1.000000000000000000e+00,1.000000000000000000e+00,1.000000000000000000e+00,6.700000000000000000e+01,1.469400000000000000e+04,3.105149269104003906e-01,1.936857938766479492e+00,6.356431664573807261e-01,0.000000000000000000e+00,1.120000000000000000e+02
0.000000000000000000e+00,1.000000000000000000e+00,0.000000000000000000e+00,6.400000000000000000e+01,1.475800000000000000e+04,2.312419414520263672e-01,1.615089893341064453e+00,3.844273617049285829e-01,0.000000000000000000e+00,1.120000000000000000e+02
0.000000000000000000e+00,1.000000000000000000e+00,0.000000000000000000e+00,6.000000000000000000e+01,1.481800000000000000e+04,2.746551036834716797e-01,1.652855873107910156e+00,3.873591185073514964e-01,0.000000000000000000e+00,1.120000000000000000e+02
1.000000000000000000e+00,1.000000000000000000e+00,1.000000000000000000e+00,6.900000000000000000e+01,1.488700000000000000e+04,3.067009449005126953e-01,1.633851051330566406e+00,3.379923040179563243e-01,0.000000000000000000e+00,1.120000000000000000e+02
1.000000000000000000e+00,1.000000000000000000e+00,1.000000000000000000e+00,6.300000000000000000e+01,1.495000000000000000e+04,3.083949089050292969e-01,1.635982990264892578e+00,3.407052902285178653e-01,0.000000000000000000e+00,1.120000000000000000e+02
1.000000000000000000e+00,1.000000000000000000e+00,1.000000000000000000e+00,6.100000000000000000e+01,1.501100000000000000e+04,2.891860008239746094e-01,1.726933002471923828e+00,4.509255538747279357e-01,0.000000000000000000e+00,1.120000000000000000e+02
1.000000000000000000e+00,1.000000000000000000e+00,1.000000000000000000e+00,6.100000000000000000e+01,1.507200000000000000e+04,2.898528575897216797e-01,1.563692808151245117e+00,2.815474489882648368e-01,0.000000000000000000e+00,1.120000000000000000e+02
1.000000000000000000e+00,1.000000000000000000e+00,1.000000000000000000e+00,6.300000000000000000e+01,1.513500000000000000e+04,2.729060649871826172e-01,1.988399982452392578e+00,7.362251816099212309e-01,0.000000000000000000e+00,1.120000000000000000e+02
0.000000000000000000e+00,1.000000000000000000e+00,0.000000000000000000e+00,6.500000000000000000e+01,1.520000000000000000e+04,3.469839096069335938e-01,1.750427961349487305e+00,4.037701649519876423e-01,0.000000000000000000e+00,1.120000000000000000e+02
1.000000000000000000e+00,1.000000000000000000e+00,1.000000000000000000e+00,6.500000000000000000e+01,1.526500000000000000e+04,3.109910488128662109e-01,1.712481975555419922e+00,4.162836223618903708e-01,0.000000000000000000e+00,1.120000000000000000e+02
1.000000000000000000e+00,1.000000000000000000e+00,1.000000000000000000e+00,5.900000000000000000e+01,1.532400000000000000e+04,2.774181365966796875e-01,1.873259067535400391e+00,6.060918093061586909e-01,0.000000000000000000e+00,1.120000000000000000e+02
0.000000000000000000e+00,1.000000000000000000e+00,0.000000000000000000e+00,5.500000000000000000e+01,1.537900000000000000e+04,2.450389862060546875e-01,1.787009954452514648e+00,5.432601708436561871e-01,0.000000000000000000e+00,1.120000000000000000e+02
1.000000000000000000e+00,1.000000000000000000e+00,1.000000000000000000e+00,6.100000000000000000e+01,1.544000000000000000e+04,2.326130867004394531e-01,1.588491916656494141e+00,3.653565534527150049e-01,0.000000000000000000e+00,1.120000000000000000e+02
0.000000000000000000e+00,1.000000000000000000e+00,0.000000000000000000e+00,6.500000000000000000e+01,1.550500000000000000e+04,3.353281021118164062e-01,1.622176170349121094e+00,3.043303944092458080e-01,0.000000000000000000e+00,1.120000000000000000e+02
0.000000000000000000e+00,1.000000000000000000e+00,0.000000000000000000e+00,6.400000000000000000e+01,1.556900000000000000e+04,3.499708175659179688e-01,2.087793111801147461e+00,7.417485053776655679e-01,0.000000000000000000e+00,1.120000000000000000e+02
0.000000000000000000e+00,1.000000000000000000e+00,0.000000000000000000e+00,5.700000000000000000e+01,1.562600000000000000e+04,3.037290573120117188e-01,1.606036901473999023e+00,3.149571872911705039e-01,0.000000000000000000e+00,1.120000000000000000e+02
1.000000000000000000e+00,1.000000000000000000e+00,1.000000000000000000e+00,6.000000000000000000e+01,1.568600000000000000e+04,3.018140792846679688e-01,1.814301013946533203e+00,5.291499636738516976e-01,0.000000000000000000e+00,1.120000000000000000e+02
1.000000000000000000e+00,1.000000000000000000e+00,1.000000000000000000e+00,6.300000000000000000e+01,1.574900000000000000e+04,2.872250080108642578e-01,1.871871948242187500e+00,6.010222034316081707e-01,0.000000000000000000e+00,1.120000000000000000e+02
0.000000000000000000e+00,1.000000000000000000e+00,0.000000000000000000e+00,6.200000000000000000e+01,1.581100000000000000e+04,2.919480800628662109e-01,1.703381061553955078e+00,4.213234535585027585e-01,0.000000000000000000e+00,1.120000000000000000e+02
0.000000000000000000e+00,1.000000000000000000e+00,0.000000000000000000e+00,5.700000000000000000e+01,1.586800000000000000e+04,2.740411758422851562e-01,1.887310981750488281e+00,6.251660728072732098e-01,0.000000000000000000e+00,1.120000000000000000e+02
0.000000000000000000e+00,1.000000000000000000e+00,0.000000000000000000e+00,6.400000000000000000e+01,1.593200000000000000e+04,2.917590141296386719e-01,1.654842138290405273e+00,3.803401318660950547e-01,0.000000000000000000e+00,1.120000000000000000e+02
1.000000000000000000e+00,1.000000000000000000e+00,1.000000000000000000e+00,6.700000000000000000e+01,1.599900000000000000e+04,3.497700691223144531e-01,1.624119997024536133e+00,2.879720444334029628e-01,0.000000000000000000e+00,1.120000000000000000e+02
0.000000000000000000e+00,1.000000000000000000e+00,0.000000000000000000e+00,6.400000000000000000e+01,1.606300000000000000e+04,3.035571575164794922e-01,1.999301910400390625e+00,7.036006476455439751e-01,0.000000000000000000e+00,1.120000000000000000e+02
1.000000000000000000e+00,1.000000000000000000e+00,1.000000000000000000e+00,6.100000000000000000e+01,1.612400000000000000e+04,2.726759910583496094e-01,1.864583969116210938e+00,6.016929680054629026e-01,0.000000000000000000e+00,1.120000000000000000e+02
1.000000000000000000e+00,1.000000000000000000e+00,1.000000000000000000e+00,6.100000000000000000e+01,1.618500000000000000e+04,3.709678649902343750e-01,1.895613193511962891e+00,5.308231845985743602e-01,0.000000000000000000e+00,1.120000000000000000e+02
1.000000000000000000e+00,1.000000000000000000e+00,1.000000000000000000e+00,6.000000000000000000e+01,1.624500000000000000e+04,2.797250747680664062e-01,1.724222898483276367e+00,4.551935164691915947e-01,0.000000000000000000e+00,1.120000000000000000e+02
0.000000000000000000e+00,1.000000000000000000e+00,0.000000000000000000e+00,6.400000000000000000e+01,1.630900000000000000e+04,3.265259265899658203e-01,2.007953166961669922e+00,6.963167553832982914e-01,0.000000000000000000e+00,1.120000000000000000e+02
0.000000000000000000e+00,1.000000000000000000e+00,0.000000000000000000e+00,6.100000000000000000e+01,1.637000000000000000e+04,2.854969501495361328e-01,1.829365968704223633e+00,5.592660155641628883e-01,0.000000000000000000e+00,1.120000000000000000e+02
0.000000000000000000e+00,1.000000000000000000e+00,0.000000000000000000e+00,6.200000000000000000e+01,1.643200000000000000e+04,3.002429008483886719e-01,1.744491100311279297e+00,4.539298245086949013e-01,0.000000000000000000e+00,1.120000000000000000e+02
0.000000000000000000e+00,1.000000000000000000e+00,0.000000000000000000e+00,6.700000000000000000e+01,1.649900000000000000e+04,3.003191947937011719e-01,1.976432085037231445e+00,6.801873768279915744e-01,0.000000000000000000e+00,1.120000000000000000e+02
1.000000000000000000e+00,1.000000000000000000e+00,1.000000000000000000e+00,6.300000000000000000e+01,1.656200000000000000e+04,2.857580184936523438e-01,1.960941076278686523e+00,6.912104592246279822e-01,0.000000000000000000e+00,1.120000000000000000e+02
1.000000000000000000e+00,1.000000000000000000e+00,1.000000000000000000e+00,5.900000000000000000e+01,1.662100000000000000e+04,3.301331996917724609e-01,2.072646856307983398e+00,7.472186052283406044e-01,0.000000000000000000e+00,1.120000000000000000e+02
0.000000000000000000e+00,0.000000000000000000e+00,1.000000000000000000e+00,4.000000000000000000e+01,1.666100000000000000e+04,2.725419998168945312e-01,1.563557863235473633e+00,3.113481833976068369e-01,0.000000000000000000e+00,1.120000000000000000e+02
1.000000000000000000e+00,1.000000000000000000e+00,1.000000000000000000e+00,5.600000000000000000e+01,1.671700000000000000e+04,2.729020118713378906e-01,1.662869930267333984e+00,4.075248657099297955e-01,0.000000000000000000e+00,1.120000000000000000e+02
0.000000000000000000e+00,1.000000000000000000e+00,0.000000000000000000e+00,6.400000000000000000e+01,1.678100000000000000e+04,2.993290424346923828e-01,1.829277038574218750e+00,5.367223927722541976e-01,0.000000000000000000e+00,1.120000000000000000e+02
0.000000000000000000e+00,1.000000000000000000e+00,0.000000000000000000e+00,6.500000000000000000e+01,1.684600000000000000e+04,2.829229831695556641e-01,1.773013114929199219e+00,4.931969169864472979e-01,0.000000000000000000e+00,1.120000000000000000e+02
0.000000000000000000e+00,1.000000000000000000e+00,0.000000000000000000e+00,6.200000000000000000e+01,1.690800000000000000e+04,3.184249401092529297e-01,1.698736906051635742e+00,3.921396699783679107e-01,0.000000000000000000e+00,1.120000000000000000e+02
0.000000000000000000e+00,1.000000000000000000e+00,0.000000000000000000e+00,6.600000000000000000e+01,1.697400000000000000e+04,6.265001296997070312e-01,1.891000986099243164e+00,2.833056751471289547e-01,0.000000000000000000e+00,1.120000000000000000e+02
0.000000000000000000e+00,0.000000000000000000e+00,1.000000000000000000e+00,2.800000000000000000e+01,1.700200000000000000e+04,2.695620059967041016e-01,1.941974878311157227e+00,6.749019284130800544e-01,1.000000000000000000e+00,1.110000000000000000e+02
1.000000000000000000e+00,1.000000000000000000e+00,1.000000000000000000e+00,5.900000000000000000e+01,1.706100000000000000e+04,2.962398529052734375e-01,1.968549013137817383e+00,6.768805571788911735e-01,0.000000000000000000e+00,1.110000000000000000e+02
1.000000000000000000e+00,1.000000000000000000e+00,1.000000000000000000e+00,6.200000000000000000e+01,1.712300000000000000e+04,3.259220123291015625e-01,1.603157997131347656e+00,2.972079657552753051e-01,0.000000000000000000e+00,1.110000000000000000e+02
1.000000000000000000e+00,1.000000000000000000e+00,1.000000000000000000e+00,6.100000000000000000e+01,1.718400000000000000e+04,3.376870155334472656e-01,1.827646017074584961e+00,5.080399144740179729e-01,0.000000000000000000e+00,1.110000000000000000e+02
1.000000000000000000e+00,1.000000000000000000e+00,1.000000000000000000e+00,6.300000000000000000e+01,1.724700000000000000e+04,3.035101890563964844e-01,2.015863895416259766e+00,7.237687954511634603e-01,0.000000000000000000e+00,1.110000000000000000e+02
1.000000000000000000e+00,1.000000000000000000e+00,1.000000000000000000e+00,6.200000000000000000e+01,1.730900000000000000e+04,2.858541011810302734e-01,2.011014938354492188e+00,7.348357100479911974e-01,0.000000000000000000e+00,1.110000000000000000e+02
1.000000000000000000e+00,1.000000000000000000e+00,1.000000000000000000e+00,5.900000000000000000e+01,1.736800000000000000e+04,2.753031253814697266e-01,2.009393215179443359e+00,7.443241857081515089e-01,0.000000000000000000e+00,1.110000000000000000e+02
1.000000000000000000e+00,1.000000000000000000e+00,1.000000000000000000e+00,6.300000000000000000e+01,1.743100000000000000e+04,2.133228778839111328e-01,1.706130027770996094e+00,5.007964489570699840e-01,0.000000000000000000e+00,1.110000000000000000e+02
1.000000000000000000e+00,1.000000000000000000e+00,1.000000000000000000e+00,5.600000000000000000e+01,1.748700000000000000e+04,2.696950435638427734e-01,1.687634944915771484e+00,4.218982035593855096e-01,0.000000000000000000e+00,1.110000000000000000e+02
1.000000000000000000e+00,1.000000000000000000e+00,1.000000000000000000e+00,6.000000000000000000e+01,1.754700000000000000e+04,2.794809341430664062e-01,1.818345069885253906e+00,5.402179406125844352e-01,0.000000000000000000e+00,1.110000000000000000e+02
1.000000000000000000e+00,0.000000000000000000e+00,0.000000000000000000e+00,3.900000000000000000e+01,1.758600000000000000e+04,2.508251667022705078e-01,1.636420011520385742e+00,3.935548068269179578e-01,0.000000000000000000e+00,1.110000000000000000e+02
0.000000000000000000e+00,1.000000000000000000e+00,0.000000000000000000e+00,7.000000000000000000e+01,1.765600000000000000e+04,3.035259246826171875e-01,1.620478153228759766e+00,3.308299169409599227e-01,0.000000000000000000e+00,1.110000000000000000e+02
1.000000000000000000e+00,1.000000000000000000e+00,1.000000000000000000e+00,6.300000000000000000e+01,1.771900000000000000e+04,3.579499721527099609e-01,2.047285079956054688e+00,7.111501252368734871e-01,0.000000000000000000e+00,1.110000000000000000e+02
0.000000000000000000e+00,1.000000000000000000e+00,0.000000000000000000e+00,6.500000000000000000e+01,1.778400000000000000e+04,3.040041923522949219e-01,1.590911865234375000e+00,3.025333824527621784e-01,0.000000000000000000e+00,1.110000000000000000e+02
1.000000000000000000e+00,1.000000000000000000e+00,1.000000000000000000e+00,6.100000000000000000e+01,1.784500000000000000e+04,3.151729106903076172e-01,2.046304225921630859e+00,7.318180354708099244e-01,0.000000000000000000e+00,1.110000000000000000e+02
0.000000000000000000e+00,1.000000000000000000e+00,0.000000000000000000e+00,6.400000000000000000e+01,1.790900000000000000e+04,2.481629848480224609e-01,1.827801942825317383e+00,5.765541992126520521e-01,0.000000000000000000e+00,1.110000000000000000e+02
1.000000000000000000e+00,1.000000000000000000e+00,1.000000000000000000e+00,6.700000000000000000e+01,1.797600000000000000e+04,2.115421295166015625e-01,1.859519958496093750e+00,6.527488836137731454e-01,0.000000000000000000e+00,1.110000000000000000e+02
0.000000000000000000e+00,1.000000000000000000e+00,0.000000000000000000e+00,5.600000000000000000e+01,1.803200000000000000e+04,3.208460807800292969e-01,1.674830913543701172e+00,3.612993064118495412e-01,0.000000000000000000e+00,1.110000000000000000e+02
0.000000000000000000e+00,1.000000000000000000e+00,0.000000000000000000e+00,6.000000000000000000e+01,1.809200000000000000e+04,2.873568534851074219e-01,1.754133939743041992e+00,4.820370664806511996e-01,0.000000000000000000e+00,1.110000000000000000e+02
0.000000000000000000e+00,1.000000000000000000e+00,0.000000000000000000e+00,6.100000000000000000e+01,1.815300000000000000e+04,2.654740810394287109e-01,1.626661062240600586e+00,3.755534928256300531e-01,0.000000000000000000e+00,1.110000000000000000e+02
1.000000000000000000e+00,1.000000000000000000e+00,1.000000000000000000e+00,5.600000000000000000e+01,1.820900000000000000e+04,2.991101741790771484e-01,1.567805051803588867e+00,2.768641207987602160e-01,0.000000000000000000e+00,1.110000000000000000e+02
1.000000000000000000e+00,1.000000000000000000e+00,1.000000000000000000e+00,5.600000000000000000e+01,1.826500000000000000e+04,3.095691204071044922e-01,1.883558988571166992e+00,5.934570173968605200e-01,0.000000000000000000e+00,1.110000000000000000e+02
1.000000000000000000e+00,1.000000000000000000e+00,1.000000000000000000e+00,6.100000000000000000e+01,1.832600000000000000e+04,2.912280559539794922e-01,1.808521032333374023e+00,5.354855054030518424e-01,0.000000000000000000e+00,1.110000000000000000e+02
0.000000000000000000e+00,1.000000000000000000e+00,0.000000000000000000e+00,6.700000000000000000e+01,1.839300000000000000e+04,2.366828918457031250e-01,1.932502031326293945e+00,7.012359438983010174e-01,0.000000000000000000e+00,1.110000000000000000e+02
0.000000000000000000e+00,1.000000000000000000e+00,0.000000000000000000e+00,6.800000000000000000e+01,1.846100000000000000e+04,1.103649139404296875e-01,1.383249044418334961e+00,2.850133835531765691e-01,0.000000000000000000e+00,1.110000000000000000e+02
1.000000000000000000e+00,1.000000000000000000e+00,1.000000000000000000e+00,6.000000000000000000e+01,1.852100000000000000e+04,2.781219482421875000e-01,1.553313016891479492e+00,2.717395560507921970e-01,0.000000000000000000e+00,1.110000000000000000e+02
1.000000000000000000e+00,1.000000000000000000e+00,1.000000000000000000e+00,6.100000000000000000e+01,1.858200000000000000e+04,3.011939525604248047e-01,1.601742029190063477e+00,3.068169985970619629e-01,0.000000000000000000e+00,1.110000000000000000e+02
0.000000000000000000e+00,1.000000000000000000e+00,0.000000000000000000e+00,6.100000000000000000e+01,1.864300000000000000e+04,2.872440814971923828e-01,1.984328985214233398e+00,7.074862323643679174e-01,0.000000000000000000e+00,1.110000000000000000e+02
0.000000000000000000e+00,1.000000000000000000e+00,0.000000000000000000e+00,5.700000000000000000e+01,1.870000000000000000e+04,3.280220031738281250e-01,1.803150892257690430e+00,4.776238817719551943e-01,0.000000000000000000e+00,1.110000000000000000e+02
1.000000000000000000e+00,1.000000000000000000e+00,1.000000000000000000e+00,6.400000000000000000e+01,1.876400000000000000e+04,3.120470046997070312e-01,1.970232963562011719e+00,6.644328328247485205e-01,0.000000000000000000e+00,1.110000000000000000e+02
0.000000000000000000e+00,1.000000000000000000e+00,0.000000000000000000e+00,6.400000000000000000e+01,1.882800000000000000e+04,2.884089946746826172e-01,1.616931200027465820e+00,3.484465756620396260e-01,0.000000000000000000e+00,1.110000000000000000e+02
1.000000000000000000e+00,1.000000000000000000e+00,1.000000000000000000e+00,6.300000000000000000e+01,1.889100000000000000e+04,3.197331428527832031e-01,1.814087867736816406e+00,5.124365821491959627e-01,0.000000000000000000e+00,1.110000000000000000e+02
1.000000000000000000e+00,1.000000000000000000e+00,1.000000000000000000e+00,5.600000000000000000e+01,1.894700000000000000e+04,3.691780567169189453e-01,1.732012033462524414e+00,3.779970616507426495e-01,0.000000000000000000e+00,1.110000000000000000e+02
1.000000000000000000e+00,1.000000000000000000e+00,1.000000000000000000e+00,6.600000000000000000e+01,1.901300000000000000e+04,3.379170894622802734e-01,1.808698177337646484e+00,4.866548034820337154e-01,0.000000000000000000e+00,1.110000000000000000e+02
1.000000000000000000e+00,1.000000000000000000e+00,1.000000000000000000e+00,6.600000000000000000e+01,1.907900000000000000e+04,2.692079544067382812e-01,1.829155921936035156e+00,5.657990142023612279e-01,0.000000000000000000e+00,1.110000000000000000e+02
0.000000000000000000e+00,1.000000000000000000e+00,0.000000000000000000e+00,5.700000000000000000e+01,1.913600000000000000e+04,3.239388465881347656e-01,1.611075162887573242e+00,2.939000684939230279e-01,0.000000000000000000e+00,1.110000000000000000e+02
1.000000000000000000e+00,1.000000000000000000e+00,1.000000000000000000e+00,6.100000000000000000e+01,1.919700000000000000e+04,2.779870033264160156e-01,1.593591928482055664e+00,3.208958894124949723e-01,0.000000000000000000e+00,1.110000000000000000e+02
1.000000000000000000e+00,1.000000000000000000e+00,1.000000000000000000e+00,5.600000000000000000e+01,1.925300000000000000e+04,2.641880512237548828e-01,1.513458013534545898e+00,2.511532296539065734e-01,0.000000000000000000e+00,1.110000000000000000e+02
1.000000000000000000e+00,1.000000000000000000e+00,1.000000000000000000e+00,5.700000000000000000e+01,1.931000000000000000e+04,2.664520740509033203e-01,1.580461978912353516e+00,3.149534182597868992e-01,0.000000000000000000e+00,1.110000000000000000e+02
0.000000000000000000e+00,1.000000000000000000e+00,0.000000000000000000e+00,6.500000000000000000e+01,1.937500000000000000e+04,2.848279476165771484e-01,1.866544008255004883e+00,5.979169225272255028e-01,0.000000000000000000e+00,1.110000000000000000e+02
1.000000000000000000e+00,1.000000000000000000e+00,1.000000000000000000e+00,6.100000000000000000e+01,1.943600000000000000e+04,3.353099822998046875e-01,1.829671859741210938e+00,5.111528216150618142e-01,0.000000000000000000e+00,1.110000000000000000e+02
1.000000000000000000e+00,1.000000000000000000e+00,1.000000000000000000e+00,6.100000000000000000e+01,1.949700000000000000e+04,2.460589408874511719e-01,1.834619045257568359e+00,5.957448660310389332e-01,0.000000000000000000e+00,1.110000000000000000e+02
0.000000000000000000e+00,1.000000000000000000e+00,0.000000000000000000e+00,6.600000000000000000e+01,1.956300000000000000e+04,2.737860679626464844e-01,1.976639986038208008e+00,7.223380989109864370e-01,0.000000000000000000e+00,1.110000000000000000e+02
0.000000000000000000e+00,1.000000000000000000e+00,0.000000000000000000e+00,6.000000000000000000e+01,1.962300000000000000e+04,2.904560565948486328e-01,1.689345121383666992e+00,4.120810749661990013e-01,0.000000000000000000e+00,1.110000000000000000e+02
1.000000000000000000e+00,1.000000000000000000e+00,1.000000000000000000e+00,6.200000000000000000e+01,1.968500000000000000e+04,3.692669868469238281e-01,1.861206054687500000e+00,5.065957130808431685e-01,0.000000000000000000e+00,1.110000000000000000e+02
1.000000000000000000e+00,1.000000000000000000e+00,1.000000000000000000e+00,6.200000000000000000e+01,1.974700000000000000e+04,3.946449756622314453e-01,1.719288825988769531e+00,3.428093658025458401e-01,0.000000000000000000e+00,1.110000000000000000e+02
1.000000000000000000e+00,1.000000000000000000e+00,1.000000000000000000e+00,6.000000000000000000e+01,1.980700000000000000e+04,4.209389686584472656e-01,1.953298807144165039e+00,5.459761234906621574e-01,0.000000000000000000e+00,1.110000000000000000e+02
0.000000000000000000e+00,1.000000000000000000e+00,0.000000000000000000e+00,6.100000000000000000e+01,1.986800000000000000e+04,3.121120929718017578e-01,1.657246112823486328e+00,3.535177475382680345e-01,0.000000000000000000e+00,1.110000000000000000e+02
0.000000000000000000e+00,1.000000000000000000e+00,0.000000000000000000e+00,6.100000000000000000e+01,1.992900000000000000e+04,5.063910484313964844e-01,2.240083932876586914e+00,7.432559208865778810e-01,0.000000000000000000e+00,1.110000000000000000e+02
0.000000000000000000e+00,1.000000000000000000e+00,0.000000000000000000e+00,6.600000000000000000e+01,1.999500000000000000e+04,2.931950092315673828e-01,1.950227022171020508e+00,6.769748210472716909e-01,0.000000000000000000e+00,1.110000000000000000e+02
0.000000000000000000e+00,1.000000000000000000e+00,0.000000000000000000e+00,6.000000000000000000e+01,2.005500000000000000e+04,2.472150325775146484e-01,1.912454843521118164e+00,6.728590007735278933e-01,0.000000000000000000e+00,1.110000000000000000e+02
0.000000000000000000e+00,1.000000000000000000e+00,0.000000000000000000e+00,6.300000000000000000e+01,2.011800000000000000e+04,2.596089839935302734e-01,1.636934041976928711e+00,3.934943262660232088e-01,0.000000000000000000e+00,1.110000000000000000e+02
0.000000000000000000e+00,1.000000000000000000e+00,0.000000000000000000e+00,5.900000000000000000e+01,2.017700000000000000e+04,2.994217872619628906e-01,1.854130983352661133e+00,5.641896300658859609e-01,0.000000000000000000e+00,1.110000000000000000e+02
0.000000000000000000e+00,1.000000000000000000e+00,0.000000000000000000e+00,6.300000000000000000e+01,2.024000000000000000e+04,3.563878536224365234e-01,1.986778020858764648e+00,6.509620347532953932e-01,0.000000000000000000e+00,1.110000000000000000e+02
1.000000000000000000e+00,1.000000000000000000e+00,1.000000000000000000e+00,6.200000000000000000e+01,2.030200000000000000e+04,3.035490512847900391e-01,1.723550081253051758e+00,4.248429423168346708e-01,0.000000000000000000e+00,1.110000000000000000e+02
1.000000000000000000e+00,1.000000000000000000e+00,1.000000000000000000e+00,6.300000000000000000e+01,2.036500000000000000e+04,3.759660720825195312e-01,1.794384956359863281e+00,4.359759007465301428e-01,0.000000000000000000e+00,1.110000000000000000e+02
0.000000000000000000e+00,1.000000000000000000e+00,0.000000000000000000e+00,5.900000000000000000e+01,2.042400000000000000e+04,3.128790855407714844e-01,1.609240055084228516e+00,2.954291970766454445e-01,0.000000000000000000e+00,1.110000000000000000e+02
0.000000000000000000e+00,1.000000000000000000e+00,0.000000000000000000e+00,6.000000000000000000e+01,2.048400000000000000e+04,3.400881290435791016e-01,1.983763933181762695e+00,6.622279023680832655e-01,0.000000000000000000e+00,1.110000000000000000e+02
1.000000000000000000e+00,1.000000000000000000e+00,1.000000000000000000e+00,5.900000000000000000e+01,2.054300000000000000e+04,2.628459930419921875e-01,1.912892103195190430e+00,6.585123363135104713e-01,0.000000000000000000e+00,1.110000000000000000e+02
1.000000000000000000e+00,1.000000000000000000e+00,1.000000000000000000e+00,6.600000000000000000e+01,2.060900000000000000e+04,2.652380466461181641e-01,1.932420969009399414e+00,6.743591152937358224e-01,0.000000000000000000e+00,1.110000000000000000e+02
1.000000000000000000e+00,1.000000000000000000e+00,1.000000000000000000e+00,6.100000000000000000e+01,2.067000000000000000e+04,3.109560012817382812e-01,1.877378940582275391e+00,5.852313679638962984e-01,0.000000000000000000e+00,1.110000000000000000e+02
1.000000000000000000e+00,1.000000000000000000e+00,1.000000000000000000e+00,6.700000000000000000e+01,2.073700000000000000e+04,3.487269878387451172e-01,2.038076162338256836e+00,6.899646616839782975e-01,0.000000000000000000e+00,1.110000000000000000e+02
1.000000000000000000e+00,1.000000000000000000e+00,1.000000000000000000e+00,6.200000000000000000e+01,2.079900000000000000e+04,3.004169464111328125e-01,1.599710941314697266e+00,3.068334563947912041e-01,0.000000000000000000e+00,1.110000000000000000e+02
0.000000000000000000e+00,1.000000000000000000e+00,0.000000000000000000e+00,6.700000000000000000e+01,2.086600000000000000e+04,4.093670845031738281e-01,1.865063905715942383e+00,4.718207230649202333e-01,0.000000000000000000e+00,1.110000000000000000e+02
1.000000000000000000e+00,1.000000000000000000e+00,1.000000000000000000e+00,5.700000000000000000e+01,2.092300000000000000e+04,2.677519321441650391e-01,1.945230007171630859e+00,6.835620030459311769e-01,0.000000000000000000e+00,1.110000000000000000e+02
1.000000000000000000e+00,1.000000000000000000e+00,1.000000000000000000e+00,6.500000000000000000e+01,2.098800000000000000e+04,2.699539661407470703e-01,1.803429126739501953e+00,5.372162325668459193e-01,0.000000000000000000e+00,1.110000000000000000e+02
1.000000000000000000e+00,1.000000000000000000e+00,1.000000000000000000e+00,6.700000000000000000e+01,2.105500000000000000e+04,3.020429611206054688e-01,1.646379947662353516e+00,3.505486694974587203e-01,0.000000000000000000e+00,1.110000000000000000e+02
1.000000000000000000e+00,1.000000000000000000e+00,1.000000000000000000e+00,6.300000000000000000e+01,2.111800000000000000e+04,2.910709381103515625e-01,1.890687942504882812e+00,6.077132555977109440e-01,0.000000000000000000e+00,1.110000000000000000e+02
1.000000000000000000e+00,1.000000000000000000e+00,1.000000000000000000e+00,6.600000000000000000e+01,2.118400000000000000e+04,2.778100967407226562e-01,1.971580028533935547e+00,7.125770740351079491e-01,0.000000000000000000e+00,1.110000000000000000e+02
0.000000000000000000e+00,1.000000000000000000e+00,0.000000000000000000e+00,6.200000000000000000e+01,2.124600000000000000e+04,3.631749153137207031e-01,1.826084136962890625e+00,4.723548287204143437e-01,0.000000000000000000e+00,1.110000000000000000e+02
0.000000000000000000e+00,1.000000000000000000e+00,0.000000000000000000e+00,5.900000000000000000e+01,2.130500000000000000e+04,3.629338741302490234e-01,1.687308073043823242e+00,3.265560204429105995e-01,0.000000000000000000e+00,1.110000000000000000e+02
0.000000000000000000e+00,1.000000000000000000e+00,0.000000000000000000e+00,6.300000000000000000e+01,2.136800000000000000e+04,3.635699748992919922e-01,2.048009872436523438e+00,6.909127617729995396e-01,0.000000000000000000e+00,1.110000000000000000e+02
0.000000000000000000e+00,1.000000000000000000e+00,0.000000000000000000e+00,6.500000000000000000e+01,2.143300000000000000e+04,6.876120567321777344e-01,2.073920011520385742e+00,3.985853744083440731e-01,0.000000000000000000e+00,1.110000000000000000e+02
1.000000000000000000e+00,1.000000000000000000e+00,1.000000000000000000e+00,6.100000000000000000e+01,2.149400000000000000e+04,2.781279087066650391e-01,1.575899839401245117e+00,3.080094552079556403e-01,0.000000000000000000e+00,1.110000000000000000e+02
1.000000000000000000e+00,1.000000000000000000e+00,1.000000000000000000e+00,6.400000000000000000e+01,2.155800000000000000e+04,3.398520946502685547e-01,1.963757991790771484e+00,6.381469088784419430e-01,0.000000000000000000e+00,1.110000000000000000e+02
0.000000000000000000e+00,1.000000000000000000e+00,0.000000000000000000e+00,5.700000000000000000e+01,2.161500000000000000e+04,2.712490558624267578e-01,1.912245035171508789e+00,6.504807150993667797e-01,0.000000000000000000e+00,1.110000000000000000e+02
1.000000000000000000e+00,1.000000000000000000e+00,1.000000000000000000e+00,6.200000000000000000e+01,2.167700000000000000e+04,3.066580295562744141e-01,1.641953945159912109e+00,3.428490990298626029e-01,0.000000000000000000e+00,1.110000000000000000e+02
1.000000000000000000e+00,1.000000000000000000e+00,1.000000000000000000e+00,6.000000000000000000e+01,2.173700000000000000e+04,3.153710365295410156e-01,1.853812932968139648e+00,5.465056406803796563e-01,0.000000000000000000e+00,1.110000000000000000e+02
1.000000000000000000e+00,1.000000000000000000e+00,1.000000000000000000e+00,5.500000000000000000e+01,2.179200000000000000e+04,3.264660835266113281e-01,1.766708135604858398e+00,4.300992900145855780e-01,0.000000000000000000e+00,1.110000000000000000e+02
1.000000000000000000e+00,1.000000000000000000e+00,1.000000000000000000e+00,6.700000000000000000e+01,2.185900000000000000e+04,3.128480911254882812e-01,1.828135013580322266e+00,5.248938065460158064e-01,0.000000000000000000e+00,1.110000000000000000e+02
0.000000000000000000e+00,1.000000000000000000e+00,0.000000000000000000e+00,6.200000000000000000e+01,2.192100000000000000e+04,4.385571479797363281e-01,1.821681976318359375e+00,3.967662734047667783e-01,0.000000000000000000e+00,1.110000000000000000e+02
0.000000000000000000e+00,1.000000000000000000e+00,0.000000000000000000e+00,6.000000000000000000e+01,2.198100000000000000e+04,3.399620056152343750e-01,2.029469013214111328e+00,7.093211570470878691e-01,0.000000000000000000e+00,1.110000000000000000e+02
1.000000000000000000e+00,1.000000000000000000e+00,1.000000000000000000e+00,6.500000000000000000e+01,2.204600000000000000e+04,3.017380237579345703e-01,1.587831020355224609e+00,2.976779421309552198e-01,0.000000000000000000e+00,1.110000000000000000e+02
1.000000000000000000e+00,1.000000000000000000e+00,1.000000000000000000e+00,5.900000000000000000e+01,2.210500000000000000e+04,2.944290637969970703e-01,1.758383989334106445e+00,4.892638073695596002e-01,0.000000000000000000e+00,1.110000000000000000e+02
1.000000000000000000e+00,1.000000000000000000e+00,1.000000000000000000e+00,6.100000000000000000e+01,2.216600000000000000e+04,2.878758907318115234e-01,2.024784803390502930e+00,7.472313882276573338e-01,0.000000000000000000e+00,1.110000000000000000e+02
1.000000000000000000e+00,1.000000000000000000e+00,1.000000000000000000e+00,6.000000000000000000e+01,2.222600000000000000e+04,3.411860466003417969e-01,1.626202821731567383e+00,3.073013662565811654e-01,0.000000000000000000e+00,1.110000000000000000e+02
0.000000000000000000e+00,1.000000000000000000e+00,0.000000000000000000e+00,6.300000000000000000e+01,2.228900000000000000e+04,2.929549217224121094e-01,1.758082151412963867e+00,4.652763538362726381e-01,0.000000000000000000e+00,1.110000000000000000e+02
1.000000000000000000e+00,1.000000000000000000e+00,1.000000000000000000e+00,6.500000000000000000e+01,2.235400000000000000e+04,2.263519763946533203e-01,1.918138980865478516e+00,6.999530578130030989e-01,0.000000000000000000e+00,1.110000000000000000e+02
1.000000000000000000e+00,1.000000000000000000e+00,1.000000000000000000e+00,6.200000000000000000e+01,2.241600000000000000e+04,2.497310638427734375e-01,1.975600957870483398e+00,7.255901462207776653e-01,0.000000000000000000e+00,1.110000000000000000e+02
0.000000000000000000e+00,1.000000000000000000e+00,0.000000000000000000e+00,6.400000000000000000e+01,2.248000000000000000e+04,2.941389083862304688e-01,1.610405921936035156e+00,3.364671875013622859e-01,0.000000000000000000e+00,1.110000000000000000e+02
0.000000000000000000e+00,1.000000000000000000e+00,0.000000000000000000e+00,6.000000000000000000e+01,2.254000000000000000e+04,3.205208778381347656e-01,1.606658220291137695e+00,2.932751844318908785e-01,0.000000000000000000e+00,1.110000000000000000e+02
0.000000000000000000e+00,1.000000000000000000e+00,0.000000000000000000e+00,6.200000000000000000e+01,2.260200000000000000e+04,2.965548038482666016e-01,1.791949987411499023e+00,5.017190106151292461e-01,0.000000000000000000e+00,1.110000000000000000e+02
1.000000000000000000e+00,1.000000000000000000e+00,1.000000000000000000e+00,6.400000000000000000e+01,2.266600000000000000e+04,2.157161235809326172e-01,1.825945854187011719e+00,6.109504755025548794e-01,0.000000000000000000e+00,1.110000000000000000e+02
1.000000000000000000e+00,1.000000000000000000e+00,1.000000000000000000e+00,5.600000000000000000e+01,2.272200000000000000e+04,3.200600147247314453e-01,1.722350835800170898e+00,4.169280010603632625e-01,0.000000000000000000e+00,1.110000000000000000e+02
1.000000000000000000e+00,1.000000000000000000e+00,1.000000000000000000e+00,5.700000000000000000e+01,2.277900000000000000e+04,3.027899265289306641e-01,1.692912101745605469e+00,3.932905689928081761e-01,0.000000000000000000e+00,1.110000000000000000e+02
1.000000000000000000e+00,1.000000000000000000e+00,1.000000000000000000e+00,6.800000000000000000e+01,2.284700000000000000e+04,3.155279159545898438e-01,1.644420146942138672e+00,3.378379673470586209e-01,0.000000000000000000e+00,1.110000000000000000e+02
0.000000000000000000e+00,1.000000000000000000e+00,0.000000000000000000e+00,6.000000000000000000e+01,2.290700000000000000e+04,2.975640296936035156e-01,1.827056884765625000e+00,5.314266041728745726e-01,0.000000000000000000e+00,1.110000000000000000e+02
1.000000000000000000e+00,1.000000000000000000e+00,1.000000000000000000e+00,5.500000000000000000e+01,2.296200000000000000e+04,2.389788627624511719e-01,1.689359188079833984e+00,4.709551967953767848e-01,0.000000000000000000e+00,1.110000000000000000e+02
1.000000000000000000e+00,1.000000000000000000e+00,1.000000000000000000e+00,6.500000000000000000e+01,2.302700000000000000e+04,2.749969959259033203e-01,1.995808839797973633e+00,7.332196840734204191e-01,0.000000000000000000e+00,1.110000000000000000e+02
1.000000000000000000e+00,1.000000000000000000e+00,1.000000000000000000e+00,6.200000000000000000e+01,2.308900000000000000e+04,2.940368652343750000e-01,1.788357019424438477e+00,5.052383025179831844e-01,0.000000000000000000e+00,1.110000000000000000e+02
0.000000000000000000e+00,1.000000000000000000e+00,0.000000000000000000e+00,6.100000000000000000e+01,2.315000000000000000e+04,3.298029899597167969e-01,1.638163089752197266e+00,3.103555327776874040e-01,0.000000000000000000e+00,1.110000000000000000e+02
1.000000000000000000e+00,1.000000000000000000e+00,1.000000000000000000e+00,6.100000000000000000e+01,2.321100000000000000e+04,2.595970630645751953e-01,1.968537092208862305e+00,7.285286539622645163e-01,0.000000000000000000e+00,1.110000000000000000e+02
1.000000000000000000e+00,1.000000000000000000e+00,1.000000000000000000e+00,6.600000000000000000e+01,2.327700000000000000e+04,3.979339599609375000e-01,1.698219060897827148e+00,3.105935891588242348e-01,0.000000000000000000e+00,1.110000000000000000e+02
0.000000000000000000e+00,1.000000000000000000e+00,0.000000000000000000e+00,5.900000000000000000e+01,2.333600000000000000e+04,3.370640277862548828e-01,1.731178998947143555e+00,4.084163392437362705e-01,0.000000000000000000e+00,1.110000000000000000e+02
1.000000000000000000e+00,1.000000000000000000e+00,1.000000000000000000e+00,6.900000000000000000e+01,2.340500000000000000e+04,2.737541198730468750e-01,1.546621084213256836e+00,2.885656343439194638e-01,0.000000000000000000e+00,1.110000000000000000e+02
0.000000000000000000e+00,1.000000000000000000e+00,0.000000000000000000e+00,5.600000000000000000e+01,2.346100000000000000e+04,3.057551383972167969e-01,1.902421951293945312e+00,6.073795763409195470e-01,0.000000000000000000e+00,1.110000000000000000e+02
0.000000000000000000e+00,1.000000000000000000e+00,0.000000000000000000e+00,6.100000000000000000e+01,2.352200000000000000e+04,3.048748970031738281e-01,1.672868013381958008e+00,3.805766856179303437e-01,0.000000000000000000e+00,1.110000000000000000e+02
0.000000000000000000e+00,1.000000000000000000e+00,0.000000000000000000e+00,6.200000000000000000e+01,2.358400000000000000e+04,3.812251091003417969e-01,1.958646059036254883e+00,5.890674445527739334e-01,0.000000000000000000e+00,1.110000000000000000e+02
0.000000000000000000e+00,0.000000000000000000e+00,1.000000000000000000e+00,4.600000000000000000e+01,2.363000000000000000e+04,3.396141529083251953e-01,1.713616132736206055e+00,3.863491065195513996e-01,1.000000000000000000e+00,1.120000000000000000e+02
1.000000000000000000e+00,1.000000000000000000e+00,1.000000000000000000e+00,5.300000000000000000e+01,2.368300000000000000e+04,2.681040763854980469e-01,1.767484903335571289e+00,5.037836298671450885e-01,0.000000000000000000e+00,1.120000000000000000e+02
1.000000000000000000e+00,1.000000000000000000e+00,1.000000000000000000e+00,5.700000000000000000e+01,2.374000000000000000e+04,2.904169559478759766e-01,1.620687007904052734e+00,3.413829569676628539e-01,0.000000000000000000e+00,1.120000000000000000e+02
1.000000000000000000e+00,1.000000000000000000e+00,1.000000000000000000e+00,6.000000000000000000e+01,2.380000000000000000e+04,2.738549709320068359e-01,1.676438093185424805e+00,4.178172777593883169e-01,0.000000000000000000e+00,1.120000000000000000e+02
1.000000000000000000e+00,1.000000000000000000e+00,1.000000000000000000e+00,6.000000000000000000e+01,2.386000000000000000e+04,2.245390415191650391e-01,1.677426815032958984e+00,4.619373356220987104e-01,0.000000000000000000e+00,1.120000000000000000e+02
1.000000000000000000e+00,1.000000000000000000e+00,1.000000000000000000e+00,6.300000000000000000e+01,2.392300000000000000e+04,2.410070896148681641e-01,1.502658843994140625e+00,2.815373791089182953e-01,0.000000000000000000e+00,1.120000000000000000e+02
1.000000000000000000e+00,1.000000000000000000e+00,1.000000000000000000e+00,5.900000000000000000e+01,2.398200000000000000e+04,2.510530948638916016e-01,1.853556156158447266e+00,6.181377916640662384e-01,0.000000000000000000e+00,1.120000000000000000e+02
0.000000000000000000e+00,1.000000000000000000e+00,0.000000000000000000e+00,5.600000000000000000e+01,2.403800000000000000e+04,3.064229488372802734e-01,1.831296920776367188e+00,5.329402286270383815e-01,0.000000000000000000e+00,1.120000000000000000e+02
0.000000000000000000e+00,1.000000000000000000e+00,0.000000000000000000e+00,6.100000000000000000e+01,2.409900000000000000e+04,2.481448650360107422e-01,1.665446996688842773e+00,4.152546326365094131e-01,0.000000000000000000e+00,1.120000000000000000e+02
1.000000000000000000e+00,1.000000000000000000e+00,1.000000000000000000e+00,5.600000000000000000e+01,2.415500000000000000e+04,2.861580848693847656e-01,2.004325866699218750e+00,7.359749831960140654e-01,0.000000000000000000e+00,1.120000000000000000e+02
0.000000000000000000e+00,1.000000000000000000e+00,0.000000000000000000e+00,7.000000000000000000e+01,2.422500000000000000e+04,2.815418243408203125e-01,1.734626054763793945e+00,4.543079245485498463e-01,0.000000000000000000e+00,1.120000000000000000e+02
1.000000000000000000e+00,1.000000000000000000e+00,1.000000000000000000e+00,5.300000000000000000e+01,2.427800000000000000e+04,2.662978172302246094e-01,1.751821994781494141e+00,4.895310181780981318e-01,0.000000000000000000e+00,1.120000000000000000e+02
0.000000000000000000e+00,1.000000000000000000e+00,0.000000000000000000e+00,6.000000000000000000e+01,2.433800000000000000e+04,2.573840618133544922e-01,1.521414041519165039e+00,2.779009493308306489e-01,0.000000000000000000e+00,1.120000000000000000e+02
1.000000000000000000e+00,1.000000000000000000e+00,1.000000000000000000e+00,5.900000000000000000e+01,2.439700000000000000e+04,3.086950778961181641e-01,1.766350984573364258e+00,4.774438202592620750e-01,0.000000000000000000e+00,1.120000000000000000e+02
1.000000000000000000e+00,1.000000000000000000e+00,1.000000000000000000e+00,6.400000000000000000e+01,2.446100000000000000e+04,3.220820426940917969e-01,1.755419015884399414e+00,4.496545199396181913e-01,0.000000000000000000e+00,1.120000000000000000e+02
