choice, accuracy, solution,  reward, cumulative_reward, rt,  total_trial_time, iti, cp_with_slow_fast, high_val_cue
1.000000000000000000e+00,1.000000000000000000e+00,1.000000000000000000e+00,0.000000000000000000e+00,0.000000000000000000e+00,1.807317018508911133e+00,3.146372079849243164e+00,3.147890452361956637e-01,-1.000000000000000000e+00,1.120000000000000000e+02
0.000000000000000000e+00,0.000000000000000000e+00,1.000000000000000000e+00,5.000000000000000000e+01,5.000000000000000000e+01,6.531140804290771484e-01,2.115867853164672852e+00,4.805931640918780778e-01,0.000000000000000000e+00,1.120000000000000000e+02
1.000000000000000000e+00,1.000000000000000000e+00,1.000000000000000000e+00,5.500000000000000000e+01,1.050000000000000000e+02,5.444421768188476562e-01,1.804568052291870117e+00,2.854204864957323728e-01,0.000000000000000000e+00,1.120000000000000000e+02
1.000000000000000000e+00,1.000000000000000000e+00,1.000000000000000000e+00,5.200000000000000000e+01,1.570000000000000000e+02,3.808679580688476562e-01,1.727571010589599609e+00,3.463342034123224056e-01,0.000000000000000000e+00,1.120000000000000000e+02
1.000000000000000000e+00,1.000000000000000000e+00,1.000000000000000000e+00,5.200000000000000000e+01,2.090000000000000000e+02,3.982288837432861328e-01,1.652700185775756836e+00,2.658140113795117165e-01,0.000000000000000000e+00,1.120000000000000000e+02
0.000000000000000000e+00,0.000000000000000000e+00,1.000000000000000000e+00,4.600000000000000000e+01,2.550000000000000000e+02,3.226339817047119141e-01,1.648063898086547852e+00,3.305482984330948559e-01,0.000000000000000000e+00,1.120000000000000000e+02
1.000000000000000000e+00,0.000000000000000000e+00,0.000000000000000000e+00,4.500000000000000000e+01,3.000000000000000000e+02,3.304269313812255859e-01,1.863472938537597656e+00,5.438526588847127918e-01,0.000000000000000000e+00,1.120000000000000000e+02
0.000000000000000000e+00,1.000000000000000000e+00,0.000000000000000000e+00,5.500000000000000000e+01,3.550000000000000000e+02,4.117388725280761719e-01,2.124108791351318359e+00,7.178866201499346511e-01,0.000000000000000000e+00,1.120000000000000000e+02
0.000000000000000000e+00,1.000000000000000000e+00,0.000000000000000000e+00,5.300000000000000000e+01,4.080000000000000000e+02,3.414769172668457031e-01,1.594313859939575195e+00,2.627687217560852884e-01,0.000000000000000000e+00,1.120000000000000000e+02
1.000000000000000000e+00,1.000000000000000000e+00,1.000000000000000000e+00,5.000000000000000000e+01,4.580000000000000000e+02,4.141740798950195312e-01,1.701060056686401367e+00,2.971748117451528115e-01,0.000000000000000000e+00,1.120000000000000000e+02
1.000000000000000000e+00,1.000000000000000000e+00,1.000000000000000000e+00,5.200000000000000000e+01,5.100000000000000000e+02,2.722499370574951172e-01,1.960464000701904297e+00,7.072845430667433764e-01,0.000000000000000000e+00,1.120000000000000000e+02
0.000000000000000000e+00,1.000000000000000000e+00,0.000000000000000000e+00,5.000000000000000000e+01,5.600000000000000000e+02,3.706688880920410156e-01,1.837138891220092773e+00,4.780624735316615914e-01,0.000000000000000000e+00,1.120000000000000000e+02
0.000000000000000000e+00,1.000000000000000000e+00,0.000000000000000000e+00,5.300000000000000000e+01,6.130000000000000000e+02,2.393488883972167969e-01,1.919549226760864258e+00,6.974928490082210608e-01,0.000000000000000000e+00,1.120000000000000000e+02
1.000000000000000000e+00,1.000000000000000000e+00,1.000000000000000000e+00,5.200000000000000000e+01,6.650000000000000000e+02,3.158149719238281250e-01,1.805552959442138672e+00,5.033029972940382679e-01,0.000000000000000000e+00,1.120000000000000000e+02
0.000000000000000000e+00,0.000000000000000000e+00,1.000000000000000000e+00,4.800000000000000000e+01,7.130000000000000000e+02,3.142027854919433594e-01,1.679342985153198242e+00,3.662373230142254021e-01,0.000000000000000000e+00,1.120000000000000000e+02
0.000000000000000000e+00,1.000000000000000000e+00,0.000000000000000000e+00,5.200000000000000000e+01,7.650000000000000000e+02,3.359661102294921875e-01,2.050580024719238281e+00,7.165321531084241080e-01,0.000000000000000000e+00,1.120000000000000000e+02
1.000000000000000000e+00,1.000000000000000000e+00,1.000000000000000000e+00,5.200000000000000000e+01,8.170000000000000000e+02,2.909631729125976562e-01,1.686101198196411133e+00,4.029942623554366166e-01,0.000000000000000000e+00,1.120000000000000000e+02
0.000000000000000000e+00,1.000000000000000000e+00,0.000000000000000000e+00,5.100000000000000000e+01,8.680000000000000000e+02,3.356971740722656250e-01,1.959779024124145508e+00,6.292536036177538428e-01,0.000000000000000000e+00,1.120000000000000000e+02
1.000000000000000000e+00,1.000000000000000000e+00,1.000000000000000000e+00,5.100000000000000000e+01,9.190000000000000000e+02,2.787790298461914062e-01,1.619596958160400391e+00,3.492838328086704802e-01,0.000000000000000000e+00,1.120000000000000000e+02
1.000000000000000000e+00,1.000000000000000000e+00,1.000000000000000000e+00,5.300000000000000000e+01,9.720000000000000000e+02,3.204660415649414062e-01,1.850306034088134766e+00,5.327646793319713581e-01,0.000000000000000000e+00,1.120000000000000000e+02
0.000000000000000000e+00,1.000000000000000000e+00,0.000000000000000000e+00,5.500000000000000000e+01,1.027000000000000000e+03,3.156042098999023438e-01,1.620857954025268555e+00,3.039115983985178349e-01,0.000000000000000000e+00,1.120000000000000000e+02
1.000000000000000000e+00,1.000000000000000000e+00,1.000000000000000000e+00,5.100000000000000000e+01,1.078000000000000000e+03,3.049461841583251953e-01,1.575227975845336914e+00,2.792529077043341412e-01,0.000000000000000000e+00,1.120000000000000000e+02
1.000000000000000000e+00,1.000000000000000000e+00,1.000000000000000000e+00,5.000000000000000000e+01,1.128000000000000000e+03,2.993741035461425781e-01,1.777146816253662109e+00,4.896003661193074619e-01,0.000000000000000000e+00,1.120000000000000000e+02
1.000000000000000000e+00,0.000000000000000000e+00,0.000000000000000000e+00,4.900000000000000000e+01,1.177000000000000000e+03,3.011159896850585938e-01,1.830188989639282227e+00,5.364720275999659282e-01,0.000000000000000000e+00,1.120000000000000000e+02
0.000000000000000000e+00,1.000000000000000000e+00,0.000000000000000000e+00,5.200000000000000000e+01,1.229000000000000000e+03,2.558341026306152344e-01,1.684842824935913086e+00,4.381533539791654941e-01,0.000000000000000000e+00,1.120000000000000000e+02
1.000000000000000000e+00,1.000000000000000000e+00,1.000000000000000000e+00,5.400000000000000000e+01,1.283000000000000000e+03,3.945140838623046875e-01,1.717230796813964844e+00,3.222981086228337011e-01,0.000000000000000000e+00,1.120000000000000000e+02
1.000000000000000000e+00,1.000000000000000000e+00,1.000000000000000000e+00,5.000000000000000000e+01,1.333000000000000000e+03,3.100309371948242188e-01,1.656530857086181641e+00,3.621504605944884103e-01,0.000000000000000000e+00,1.120000000000000000e+02
1.000000000000000000e+00,1.000000000000000000e+00,1.000000000000000000e+00,5.100000000000000000e+01,1.384000000000000000e+03,3.320391178131103516e-01,1.993859052658081055e+00,6.724644260936820661e-01,0.000000000000000000e+00,1.120000000000000000e+02
1.000000000000000000e+00,1.000000000000000000e+00,1.000000000000000000e+00,5.000000000000000000e+01,1.434000000000000000e+03,2.390987873077392578e-01,1.937118053436279297e+00,7.096201328935164421e-01,0.000000000000000000e+00,1.120000000000000000e+02
1.000000000000000000e+00,1.000000000000000000e+00,1.000000000000000000e+00,5.300000000000000000e+01,1.487000000000000000e+03,3.288328647613525391e-01,1.846352100372314453e+00,5.229048718866704526e-01,0.000000000000000000e+00,1.120000000000000000e+02
0.000000000000000000e+00,1.000000000000000000e+00,0.000000000000000000e+00,5.200000000000000000e+01,1.539000000000000000e+03,2.509689331054687500e-01,1.590504884719848633e+00,3.469791742251870925e-01,0.000000000000000000e+00,1.120000000000000000e+02
1.000000000000000000e+00,1.000000000000000000e+00,1.000000000000000000e+00,5.500000000000000000e+01,1.594000000000000000e+03,2.215449810028076172e-01,1.523467063903808594e+00,3.205608206632015733e-01,0.000000000000000000e+00,1.120000000000000000e+02
0.000000000000000000e+00,1.000000000000000000e+00,0.000000000000000000e+00,5.100000000000000000e+01,1.645000000000000000e+03,2.493438720703125000e-01,1.562726974487304688e+00,3.166870041689170412e-01,0.000000000000000000e+00,1.120000000000000000e+02
1.000000000000000000e+00,1.000000000000000000e+00,1.000000000000000000e+00,5.400000000000000000e+01,1.699000000000000000e+03,2.227549552917480469e-01,1.663576126098632812e+00,4.468604044754602711e-01,0.000000000000000000e+00,1.120000000000000000e+02
0.000000000000000000e+00,1.000000000000000000e+00,0.000000000000000000e+00,5.000000000000000000e+01,1.749000000000000000e+03,2.197268009185791016e-01,1.714673995971679688e+00,5.118504465254281044e-01,0.000000000000000000e+00,1.120000000000000000e+02
1.000000000000000000e+00,1.000000000000000000e+00,1.000000000000000000e+00,5.300000000000000000e+01,1.802000000000000000e+03,2.200901508331298828e-01,1.849148035049438477e+00,6.439605121422226075e-01,0.000000000000000000e+00,1.120000000000000000e+02
0.000000000000000000e+00,1.000000000000000000e+00,0.000000000000000000e+00,5.100000000000000000e+01,1.853000000000000000e+03,2.441580295562744141e-01,1.812001943588256836e+00,5.894281961687487525e-01,0.000000000000000000e+00,1.120000000000000000e+02
1.000000000000000000e+00,0.000000000000000000e+00,0.000000000000000000e+00,4.800000000000000000e+01,1.901000000000000000e+03,2.565379142761230469e-01,1.622327804565429688e+00,3.787094359347727979e-01,0.000000000000000000e+00,1.120000000000000000e+02
1.000000000000000000e+00,1.000000000000000000e+00,1.000000000000000000e+00,5.200000000000000000e+01,1.953000000000000000e+03,2.719449996948242188e-01,1.612930059432983398e+00,3.583920461213044861e-01,0.000000000000000000e+00,1.120000000000000000e+02
0.000000000000000000e+00,1.000000000000000000e+00,0.000000000000000000e+00,5.300000000000000000e+01,2.006000000000000000e+03,2.843348979949951172e-01,1.780714988708496094e+00,5.056991725735621168e-01,0.000000000000000000e+00,1.120000000000000000e+02
0.000000000000000000e+00,1.000000000000000000e+00,0.000000000000000000e+00,5.200000000000000000e+01,2.058000000000000000e+03,2.610449790954589844e-01,1.661579847335815430e+00,4.174351911734143217e-01,0.000000000000000000e+00,1.120000000000000000e+02
1.000000000000000000e+00,1.000000000000000000e+00,1.000000000000000000e+00,5.300000000000000000e+01,2.111000000000000000e+03,2.524509429931640625e-01,1.590754032135009766e+00,3.416843558892097565e-01,0.000000000000000000e+00,1.120000000000000000e+02
0.000000000000000000e+00,1.000000000000000000e+00,0.000000000000000000e+00,5.300000000000000000e+01,2.164000000000000000e+03,2.532019615173339844e-01,1.869202136993408203e+00,6.273083244850072848e-01,0.000000000000000000e+00,1.120000000000000000e+02
1.000000000000000000e+00,1.000000000000000000e+00,1.000000000000000000e+00,5.400000000000000000e+01,2.218000000000000000e+03,2.976498603820800781e-01,1.728615045547485352e+00,4.395258718677152454e-01,0.000000000000000000e+00,1.120000000000000000e+02
0.000000000000000000e+00,1.000000000000000000e+00,0.000000000000000000e+00,5.300000000000000000e+01,2.271000000000000000e+03,1.573860645294189453e-01,1.429019927978515625e+00,2.854501559668225497e-01,0.000000000000000000e+00,1.120000000000000000e+02
1.000000000000000000e+00,1.000000000000000000e+00,1.000000000000000000e+00,5.300000000000000000e+01,2.324000000000000000e+03,2.670288085937500000e-01,1.654519081115722656e+00,3.899368986070181342e-01,0.000000000000000000e+00,1.120000000000000000e+02
0.000000000000000000e+00,0.000000000000000000e+00,1.000000000000000000e+00,5.000000000000000000e+01,2.374000000000000000e+03,1.541750431060791016e-01,1.722128152847290039e+00,5.785862306917164410e-01,0.000000000000000000e+00,1.120000000000000000e+02
1.000000000000000000e+00,0.000000000000000000e+00,0.000000000000000000e+00,4.900000000000000000e+01,2.423000000000000000e+03,1.884200572967529297e-01,1.451874017715454102e+00,2.808417496298385996e-01,0.000000000000000000e+00,1.120000000000000000e+02
1.000000000000000000e+00,1.000000000000000000e+00,1.000000000000000000e+00,5.600000000000000000e+01,2.479000000000000000e+03,3.545720577239990234e-01,1.820556879043579102e+00,4.845732680918440893e-01,0.000000000000000000e+00,1.120000000000000000e+02
1.000000000000000000e+00,1.000000000000000000e+00,1.000000000000000000e+00,5.400000000000000000e+01,2.533000000000000000e+03,3.122680187225341797e-01,1.940014123916625977e+00,6.245524198147387462e-01,0.000000000000000000e+00,1.120000000000000000e+02
1.000000000000000000e+00,1.000000000000000000e+00,1.000000000000000000e+00,5.500000000000000000e+01,2.588000000000000000e+03,3.280589580535888672e-01,1.821399927139282227e+00,4.960999421139906662e-01,0.000000000000000000e+00,1.120000000000000000e+02
1.000000000000000000e+00,1.000000000000000000e+00,1.000000000000000000e+00,5.200000000000000000e+01,2.640000000000000000e+03,3.133428096771240234e-01,1.964720010757446289e+00,6.607306650044554308e-01,0.000000000000000000e+00,1.120000000000000000e+02
1.000000000000000000e+00,1.000000000000000000e+00,1.000000000000000000e+00,5.000000000000000000e+01,2.690000000000000000e+03,2.647130489349365234e-01,1.820185184478759766e+00,5.644392960897534062e-01,0.000000000000000000e+00,1.120000000000000000e+02
1.000000000000000000e+00,1.000000000000000000e+00,1.000000000000000000e+00,5.000000000000000000e+01,2.740000000000000000e+03,2.541379928588867188e-01,1.826038837432861328e+00,5.905314219854049806e-01,0.000000000000000000e+00,1.120000000000000000e+02
1.000000000000000000e+00,1.000000000000000000e+00,1.000000000000000000e+00,5.400000000000000000e+01,2.794000000000000000e+03,2.849900722503662109e-01,1.757620096206665039e+00,4.816518608730038786e-01,0.000000000000000000e+00,1.120000000000000000e+02
0.000000000000000000e+00,1.000000000000000000e+00,0.000000000000000000e+00,5.300000000000000000e+01,2.847000000000000000e+03,3.150098323822021484e-01,1.866374969482421875e+00,5.646832378108809225e-01,0.000000000000000000e+00,1.120000000000000000e+02
0.000000000000000000e+00,1.000000000000000000e+00,0.000000000000000000e+00,5.100000000000000000e+01,2.898000000000000000e+03,2.913990020751953125e-01,1.802659988403320312e+00,5.341238669345724777e-01,0.000000000000000000e+00,1.120000000000000000e+02
1.000000000000000000e+00,1.000000000000000000e+00,1.000000000000000000e+00,5.300000000000000000e+01,2.951000000000000000e+03,3.717968463897705078e-01,1.621484994888305664e+00,2.559716983783718036e-01,0.000000000000000000e+00,1.120000000000000000e+02
1.000000000000000000e+00,1.000000000000000000e+00,1.000000000000000000e+00,5.400000000000000000e+01,3.005000000000000000e+03,4.252278804779052734e-01,1.718348026275634766e+00,3.076477842212683722e-01,0.000000000000000000e+00,1.120000000000000000e+02
1.000000000000000000e+00,1.000000000000000000e+00,1.000000000000000000e+00,5.300000000000000000e+01,3.058000000000000000e+03,3.826041221618652344e-01,1.811975002288818359e+00,4.362306351299463647e-01,0.000000000000000000e+00,1.120000000000000000e+02
1.000000000000000000e+00,1.000000000000000000e+00,1.000000000000000000e+00,5.500000000000000000e+01,3.113000000000000000e+03,3.019769191741943359e-01,1.872519969940185547e+00,5.753344391787638124e-01,0.000000000000000000e+00,1.120000000000000000e+02
1.000000000000000000e+00,1.000000000000000000e+00,1.000000000000000000e+00,5.100000000000000000e+01,3.164000000000000000e+03,2.903490066528320312e-01,1.618793010711669922e+00,3.444593848905440625e-01,0.000000000000000000e+00,1.120000000000000000e+02
1.000000000000000000e+00,1.000000000000000000e+00,1.000000000000000000e+00,5.600000000000000000e+01,3.220000000000000000e+03,3.017070293426513672e-01,1.949602127075195312e+00,6.604741801416427194e-01,0.000000000000000000e+00,1.120000000000000000e+02
1.000000000000000000e+00,1.000000000000000000e+00,1.000000000000000000e+00,5.700000000000000000e+01,3.277000000000000000e+03,2.757430076599121094e-01,1.741357088088989258e+00,4.854205864067352993e-01,0.000000000000000000e+00,1.120000000000000000e+02
1.000000000000000000e+00,0.000000000000000000e+00,0.000000000000000000e+00,4.600000000000000000e+01,3.323000000000000000e+03,1.738200187683105469e-01,1.819210767745971680e+00,6.545425931600661329e-01,0.000000000000000000e+00,1.120000000000000000e+02
1.000000000000000000e+00,1.000000000000000000e+00,1.000000000000000000e+00,5.000000000000000000e+01,3.373000000000000000e+03,2.651939392089843750e-01,1.771181821823120117e+00,5.092859641540841142e-01,0.000000000000000000e+00,1.120000000000000000e+02
0.000000000000000000e+00,1.000000000000000000e+00,0.000000000000000000e+00,5.300000000000000000e+01,3.426000000000000000e+03,2.486150264739990234e-01,1.985785961151123047e+00,7.448985492922972629e-01,0.000000000000000000e+00,1.120000000000000000e+02
1.000000000000000000e+00,1.000000000000000000e+00,1.000000000000000000e+00,5.200000000000000000e+01,3.478000000000000000e+03,3.133399486541748047e-01,1.999623060226440430e+00,6.946575284490528190e-01,0.000000000000000000e+00,1.120000000000000000e+02
1.000000000000000000e+00,1.000000000000000000e+00,1.000000000000000000e+00,5.400000000000000000e+01,3.532000000000000000e+03,2.784450054168701172e-01,1.991760969161987305e+00,7.198227828273546791e-01,0.000000000000000000e+00,1.120000000000000000e+02
0.000000000000000000e+00,1.000000000000000000e+00,0.000000000000000000e+00,5.500000000000000000e+01,3.587000000000000000e+03,2.772898674011230469e-01,2.010274887084960938e+00,7.301516358981214871e-01,0.000000000000000000e+00,1.120000000000000000e+02
0.000000000000000000e+00,1.000000000000000000e+00,0.000000000000000000e+00,5.600000000000000000e+01,3.643000000000000000e+03,2.145278453826904297e-01,1.558948993682861328e+00,3.562224191480132252e-01,0.000000000000000000e+00,1.120000000000000000e+02
1.000000000000000000e+00,1.000000000000000000e+00,1.000000000000000000e+00,5.100000000000000000e+01,3.694000000000000000e+03,3.519110679626464844e-01,1.784116983413696289e+00,4.403266901465276439e-01,0.000000000000000000e+00,1.120000000000000000e+02
0.000000000000000000e+00,1.000000000000000000e+00,0.000000000000000000e+00,5.000000000000000000e+01,3.744000000000000000e+03,2.757248878479003906e-01,1.802478790283203125e+00,5.427834648599463296e-01,0.000000000000000000e+00,1.120000000000000000e+02
0.000000000000000000e+00,1.000000000000000000e+00,0.000000000000000000e+00,5.200000000000000000e+01,3.796000000000000000e+03,2.547578811645507812e-01,1.540990829467773438e+00,3.007614362065671454e-01,0.000000000000000000e+00,1.120000000000000000e+02
0.000000000000000000e+00,1.000000000000000000e+00,0.000000000000000000e+00,5.100000000000000000e+01,3.847000000000000000e+03,2.857961654663085938e-01,1.883690834045410156e+00,6.008664299383836838e-01,0.000000000000000000e+00,1.120000000000000000e+02
0.000000000000000000e+00,1.000000000000000000e+00,0.000000000000000000e+00,5.300000000000000000e+01,3.900000000000000000e+03,2.595939636230468750e-01,1.953982114791870117e+00,7.053192512592164620e-01,0.000000000000000000e+00,1.120000000000000000e+02
0.000000000000000000e+00,1.000000000000000000e+00,0.000000000000000000e+00,5.200000000000000000e+01,3.952000000000000000e+03,2.326738834381103516e-01,1.615556955337524414e+00,3.874456065819824602e-01,0.000000000000000000e+00,1.120000000000000000e+02
1.000000000000000000e+00,1.000000000000000000e+00,1.000000000000000000e+00,5.600000000000000000e+01,4.008000000000000000e+03,2.820429801940917969e-01,1.668804168701171875e+00,3.896657185920007205e-01,0.000000000000000000e+00,1.120000000000000000e+02
1.000000000000000000e+00,1.000000000000000000e+00,1.000000000000000000e+00,5.100000000000000000e+01,4.059000000000000000e+03,3.444678783416748047e-01,1.951489925384521484e+00,6.076420942460634134e-01,0.000000000000000000e+00,1.120000000000000000e+02
1.000000000000000000e+00,1.000000000000000000e+00,1.000000000000000000e+00,5.100000000000000000e+01,4.110000000000000000e+03,2.834470272064208984e-01,1.713232994079589844e+00,4.378150817647381565e-01,0.000000000000000000e+00,1.120000000000000000e+02
1.000000000000000000e+00,1.000000000000000000e+00,1.000000000000000000e+00,5.000000000000000000e+01,4.160000000000000000e+03,2.528889179229736328e-01,1.641865015029907227e+00,3.964544430831787869e-01,0.000000000000000000e+00,1.120000000000000000e+02
0.000000000000000000e+00,1.000000000000000000e+00,0.000000000000000000e+00,5.000000000000000000e+01,4.210000000000000000e+03,2.686090469360351562e-01,1.893352031707763672e+00,6.396477154748203553e-01,0.000000000000000000e+00,1.120000000000000000e+02
0.000000000000000000e+00,1.000000000000000000e+00,0.000000000000000000e+00,5.100000000000000000e+01,4.261000000000000000e+03,2.856450080871582031e-01,1.877007007598876953e+00,6.001289899520965143e-01,0.000000000000000000e+00,1.120000000000000000e+02
1.000000000000000000e+00,1.000000000000000000e+00,1.000000000000000000e+00,5.300000000000000000e+01,4.314000000000000000e+03,2.633769512176513672e-01,1.823491096496582031e+00,5.570774869958843301e-01,0.000000000000000000e+00,1.120000000000000000e+02
0.000000000000000000e+00,1.000000000000000000e+00,0.000000000000000000e+00,5.100000000000000000e+01,4.365000000000000000e+03,2.399370670318603516e-01,1.924629926681518555e+00,6.983079191354142345e-01,0.000000000000000000e+00,1.120000000000000000e+02
1.000000000000000000e+00,1.000000000000000000e+00,1.000000000000000000e+00,5.100000000000000000e+01,4.416000000000000000e+03,2.672419548034667969e-01,1.518891096115112305e+00,2.676960041360040288e-01,0.000000000000000000e+00,1.120000000000000000e+02
0.000000000000000000e+00,1.000000000000000000e+00,0.000000000000000000e+00,5.200000000000000000e+01,4.468000000000000000e+03,2.537891864776611328e-01,1.882224082946777344e+00,6.329611834733070985e-01,0.000000000000000000e+00,1.120000000000000000e+02
1.000000000000000000e+00,0.000000000000000000e+00,0.000000000000000000e+00,4.100000000000000000e+01,4.509000000000000000e+03,2.746839523315429688e-01,1.688228130340576172e+00,4.214776567502606652e-01,1.000000000000000000e+00,1.110000000000000000e+02
0.000000000000000000e+00,1.000000000000000000e+00,0.000000000000000000e+00,5.600000000000000000e+01,4.565000000000000000e+03,4.034028053283691406e-01,1.714804887771606445e+00,3.197967304908033159e-01,0.000000000000000000e+00,1.110000000000000000e+02
1.000000000000000000e+00,1.000000000000000000e+00,1.000000000000000000e+00,5.600000000000000000e+01,4.621000000000000000e+03,3.357300758361816406e-01,1.944940090179443359e+00,6.144894246440854024e-01,0.000000000000000000e+00,1.110000000000000000e+02
0.000000000000000000e+00,1.000000000000000000e+00,0.000000000000000000e+00,5.300000000000000000e+01,4.674000000000000000e+03,2.765259742736816406e-01,1.952938079833984375e+00,7.007281162243540473e-01,0.000000000000000000e+00,1.110000000000000000e+02
0.000000000000000000e+00,1.000000000000000000e+00,0.000000000000000000e+00,5.600000000000000000e+01,4.730000000000000000e+03,2.638669013977050781e-01,1.554111003875732422e+00,2.887087257173711619e-01,0.000000000000000000e+00,1.110000000000000000e+02
0.000000000000000000e+00,1.000000000000000000e+00,0.000000000000000000e+00,5.400000000000000000e+01,4.784000000000000000e+03,3.560600280761718750e-01,1.643900871276855469e+00,2.993437893151987828e-01,0.000000000000000000e+00,1.110000000000000000e+02
1.000000000000000000e+00,1.000000000000000000e+00,1.000000000000000000e+00,5.500000000000000000e+01,4.839000000000000000e+03,3.501892089843750000e-01,1.910930156707763672e+00,5.600581644080397936e-01,0.000000000000000000e+00,1.110000000000000000e+02
1.000000000000000000e+00,1.000000000000000000e+00,1.000000000000000000e+00,6.100000000000000000e+01,4.900000000000000000e+03,3.050539493560791016e-01,1.590886831283569336e+00,3.012589359034377745e-01,0.000000000000000000e+00,1.110000000000000000e+02
1.000000000000000000e+00,1.000000000000000000e+00,1.000000000000000000e+00,5.600000000000000000e+01,4.956000000000000000e+03,3.541162014007568359e-01,2.067109107971191406e+00,7.180082625934756102e-01,0.000000000000000000e+00,1.110000000000000000e+02
1.000000000000000000e+00,1.000000000000000000e+00,1.000000000000000000e+00,5.700000000000000000e+01,5.013000000000000000e+03,2.795708179473876953e-01,1.718977928161621094e+00,4.373968399136535234e-01,0.000000000000000000e+00,1.110000000000000000e+02
0.000000000000000000e+00,1.000000000000000000e+00,0.000000000000000000e+00,5.500000000000000000e+01,5.068000000000000000e+03,2.739689350128173828e-01,1.684205770492553711e+00,4.216429255977239832e-01,0.000000000000000000e+00,1.110000000000000000e+02
1.000000000000000000e+00,1.000000000000000000e+00,1.000000000000000000e+00,5.600000000000000000e+01,5.124000000000000000e+03,3.266389369964599609e-01,1.965448141098022461e+00,6.535680814328139743e-01,0.000000000000000000e+00,1.110000000000000000e+02
1.000000000000000000e+00,0.000000000000000000e+00,0.000000000000000000e+00,4.800000000000000000e+01,5.172000000000000000e+03,3.460259437561035156e-01,2.034569978713989258e+00,6.881779014929122473e-01,0.000000000000000000e+00,1.110000000000000000e+02
0.000000000000000000e+00,0.000000000000000000e+00,1.000000000000000000e+00,4.400000000000000000e+01,5.216000000000000000e+03,3.257501125335693359e-01,1.749131917953491211e+00,4.376881467893643518e-01,0.000000000000000000e+00,1.110000000000000000e+02
0.000000000000000000e+00,1.000000000000000000e+00,0.000000000000000000e+00,5.400000000000000000e+01,5.270000000000000000e+03,5.138180255889892578e-01,2.040852785110473633e+00,5.285064445644100939e-01,0.000000000000000000e+00,1.110000000000000000e+02
1.000000000000000000e+00,1.000000000000000000e+00,1.000000000000000000e+00,5.700000000000000000e+01,5.327000000000000000e+03,2.655761241912841797e-01,1.866339206695556641e+00,6.115194045904879250e-01,0.000000000000000000e+00,1.110000000000000000e+02
1.000000000000000000e+00,1.000000000000000000e+00,1.000000000000000000e+00,5.900000000000000000e+01,5.386000000000000000e+03,2.769699096679687500e-01,1.611089944839477539e+00,3.562794196425567161e-01,0.000000000000000000e+00,1.110000000000000000e+02
0.000000000000000000e+00,1.000000000000000000e+00,0.000000000000000000e+00,6.100000000000000000e+01,5.447000000000000000e+03,3.164510726928710938e-01,1.712747097015380859e+00,4.023751171551723238e-01,0.000000000000000000e+00,1.110000000000000000e+02
0.000000000000000000e+00,1.000000000000000000e+00,0.000000000000000000e+00,5.600000000000000000e+01,5.503000000000000000e+03,2.808430194854736328e-01,1.851242780685424805e+00,5.702004985804588477e-01,0.000000000000000000e+00,1.110000000000000000e+02
1.000000000000000000e+00,1.000000000000000000e+00,1.000000000000000000e+00,5.600000000000000000e+01,5.559000000000000000e+03,2.828471660614013672e-01,1.932226181030273438e+00,6.524287671484452211e-01,0.000000000000000000e+00,1.110000000000000000e+02
0.000000000000000000e+00,1.000000000000000000e+00,0.000000000000000000e+00,5.500000000000000000e+01,5.614000000000000000e+03,2.385730743408203125e-01,1.859768867492675781e+00,6.289821321483235472e-01,0.000000000000000000e+00,1.110000000000000000e+02
1.000000000000000000e+00,1.000000000000000000e+00,1.000000000000000000e+00,5.600000000000000000e+01,5.670000000000000000e+03,2.116189002990722656e-01,1.882171869277954102e+00,6.778308563465637038e-01,0.000000000000000000e+00,1.110000000000000000e+02
1.000000000000000000e+00,1.000000000000000000e+00,1.000000000000000000e+00,5.400000000000000000e+01,5.724000000000000000e+03,3.013641834259033203e-01,1.610379934310913086e+00,3.219587393089660687e-01,0.000000000000000000e+00,1.110000000000000000e+02
1.000000000000000000e+00,1.000000000000000000e+00,1.000000000000000000e+00,6.100000000000000000e+01,5.785000000000000000e+03,3.737149238586425781e-01,1.872192859649658203e+00,5.107257406751311013e-01,0.000000000000000000e+00,1.110000000000000000e+02
0.000000000000000000e+00,1.000000000000000000e+00,0.000000000000000000e+00,6.000000000000000000e+01,5.845000000000000000e+03,2.651100158691406250e-01,1.515841007232666016e+00,2.602263120500433180e-01,0.000000000000000000e+00,1.110000000000000000e+02
0.000000000000000000e+00,1.000000000000000000e+00,0.000000000000000000e+00,5.100000000000000000e+01,5.896000000000000000e+03,3.024928569793701172e-01,1.920042991638183594e+00,6.299440959178833621e-01,0.000000000000000000e+00,1.110000000000000000e+02
0.000000000000000000e+00,1.000000000000000000e+00,0.000000000000000000e+00,5.900000000000000000e+01,5.955000000000000000e+03,3.038899898529052734e-01,1.741936922073364258e+00,4.554856381097592832e-01,0.000000000000000000e+00,1.110000000000000000e+02
1.000000000000000000e+00,1.000000000000000000e+00,1.000000000000000000e+00,5.500000000000000000e+01,6.010000000000000000e+03,2.789578437805175781e-01,1.887906074523925781e+00,6.099781923099616421e-01,0.000000000000000000e+00,1.110000000000000000e+02
1.000000000000000000e+00,1.000000000000000000e+00,1.000000000000000000e+00,5.600000000000000000e+01,6.066000000000000000e+03,2.786879539489746094e-01,1.743713140487670898e+00,4.705455622056566867e-01,0.000000000000000000e+00,1.110000000000000000e+02
0.000000000000000000e+00,1.000000000000000000e+00,0.000000000000000000e+00,5.600000000000000000e+01,6.122000000000000000e+03,2.787668704986572266e-01,1.768954038619995117e+00,5.062170380045887264e-01,0.000000000000000000e+00,1.110000000000000000e+02
0.000000000000000000e+00,1.000000000000000000e+00,0.000000000000000000e+00,5.300000000000000000e+01,6.175000000000000000e+03,3.141469955444335938e-01,1.960546970367431641e+00,6.500368156843309153e-01,0.000000000000000000e+00,1.110000000000000000e+02
1.000000000000000000e+00,1.000000000000000000e+00,1.000000000000000000e+00,5.600000000000000000e+01,6.231000000000000000e+03,4.155440330505371094e-01,1.854365825653076172e+00,4.380493946013132578e-01,0.000000000000000000e+00,1.110000000000000000e+02
1.000000000000000000e+00,1.000000000000000000e+00,1.000000000000000000e+00,6.000000000000000000e+01,6.291000000000000000e+03,3.556699752807617188e-01,1.644345998764038086e+00,2.992476100687485596e-01,0.000000000000000000e+00,1.110000000000000000e+02
1.000000000000000000e+00,1.000000000000000000e+00,1.000000000000000000e+00,5.400000000000000000e+01,6.345000000000000000e+03,3.817069530487060547e-01,2.091012001037597656e+00,7.065903212664004229e-01,0.000000000000000000e+00,1.110000000000000000e+02
1.000000000000000000e+00,1.000000000000000000e+00,1.000000000000000000e+00,5.300000000000000000e+01,6.398000000000000000e+03,3.333880901336669922e-01,1.634128093719482422e+00,3.078911577423380508e-01,0.000000000000000000e+00,1.110000000000000000e+02
1.000000000000000000e+00,1.000000000000000000e+00,1.000000000000000000e+00,5.600000000000000000e+01,6.454000000000000000e+03,4.581708908081054688e-01,1.953427791595458984e+00,5.111786605999331101e-01,0.000000000000000000e+00,1.110000000000000000e+02
0.000000000000000000e+00,1.000000000000000000e+00,0.000000000000000000e+00,6.100000000000000000e+01,6.515000000000000000e+03,3.125050067901611328e-01,1.902131795883178711e+00,5.966197213272861344e-01,0.000000000000000000e+00,1.110000000000000000e+02
1.000000000000000000e+00,0.000000000000000000e+00,0.000000000000000000e+00,3.800000000000000000e+01,6.553000000000000000e+03,2.002999782562255859e-01,1.917119026184082031e+00,7.303506186121662136e-01,0.000000000000000000e+00,1.110000000000000000e+02
1.000000000000000000e+00,1.000000000000000000e+00,1.000000000000000000e+00,5.400000000000000000e+01,6.607000000000000000e+03,2.877140045166015625e-01,1.559091806411743164e+00,2.899771873964698266e-01,0.000000000000000000e+00,1.110000000000000000e+02
1.000000000000000000e+00,1.000000000000000000e+00,1.000000000000000000e+00,5.600000000000000000e+01,6.663000000000000000e+03,3.321321010589599609e-01,1.820504188537597656e+00,4.937015827506094912e-01,0.000000000000000000e+00,1.110000000000000000e+02
1.000000000000000000e+00,1.000000000000000000e+00,1.000000000000000000e+00,6.700000000000000000e+01,6.730000000000000000e+03,2.865648269653320312e-01,1.999830007553100586e+00,7.267204070901954749e-01,0.000000000000000000e+00,1.110000000000000000e+02
0.000000000000000000e+00,1.000000000000000000e+00,0.000000000000000000e+00,6.300000000000000000e+01,6.793000000000000000e+03,2.716028690338134766e-01,1.867589950561523438e+00,6.111670731066517481e-01,0.000000000000000000e+00,1.110000000000000000e+02
1.000000000000000000e+00,1.000000000000000000e+00,1.000000000000000000e+00,5.400000000000000000e+01,6.847000000000000000e+03,2.160971164703369141e-01,1.706602096557617188e+00,5.012823062973451593e-01,0.000000000000000000e+00,1.110000000000000000e+02
1.000000000000000000e+00,1.000000000000000000e+00,1.000000000000000000e+00,5.500000000000000000e+01,6.902000000000000000e+03,2.934439182281494141e-01,1.968762874603271484e+00,6.699616951671959475e-01,0.000000000000000000e+00,1.110000000000000000e+02
1.000000000000000000e+00,1.000000000000000000e+00,1.000000000000000000e+00,5.100000000000000000e+01,6.953000000000000000e+03,3.268039226531982422e-01,1.816124200820922852e+00,5.029936113639775774e-01,0.000000000000000000e+00,1.110000000000000000e+02
0.000000000000000000e+00,1.000000000000000000e+00,0.000000000000000000e+00,5.600000000000000000e+01,7.009000000000000000e+03,3.242018222808837891e-01,1.598769903182983398e+00,2.853816660082073020e-01,0.000000000000000000e+00,1.110000000000000000e+02
1.000000000000000000e+00,1.000000000000000000e+00,1.000000000000000000e+00,6.400000000000000000e+01,7.073000000000000000e+03,3.042581081390380859e-01,1.801038980484008789e+00,5.029420054539395224e-01,0.000000000000000000e+00,1.110000000000000000e+02
0.000000000000000000e+00,1.000000000000000000e+00,0.000000000000000000e+00,6.000000000000000000e+01,7.133000000000000000e+03,2.643439769744873047e-01,1.979231119155883789e+00,7.153719687481288059e-01,0.000000000000000000e+00,1.110000000000000000e+02
1.000000000000000000e+00,1.000000000000000000e+00,1.000000000000000000e+00,5.500000000000000000e+01,7.188000000000000000e+03,2.500522136688232422e-01,1.634315967559814453e+00,3.834354695642822053e-01,0.000000000000000000e+00,1.110000000000000000e+02
0.000000000000000000e+00,1.000000000000000000e+00,0.000000000000000000e+00,5.400000000000000000e+01,7.242000000000000000e+03,2.707490921020507812e-01,1.569672107696533203e+00,3.032132810082263652e-01,0.000000000000000000e+00,1.110000000000000000e+02
1.000000000000000000e+00,1.000000000000000000e+00,1.000000000000000000e+00,6.000000000000000000e+01,7.302000000000000000e+03,2.912859916687011719e-01,1.699347019195556641e+00,4.192239778091521596e-01,0.000000000000000000e+00,1.110000000000000000e+02
1.000000000000000000e+00,1.000000000000000000e+00,1.000000000000000000e+00,5.600000000000000000e+01,7.358000000000000000e+03,2.971959114074707031e-01,1.820941925048828125e+00,5.234215882916367635e-01,0.000000000000000000e+00,1.110000000000000000e+02
0.000000000000000000e+00,1.000000000000000000e+00,0.000000000000000000e+00,5.600000000000000000e+01,7.414000000000000000e+03,2.615818977355957031e-01,1.954729795455932617e+00,7.113413618541468697e-01,0.000000000000000000e+00,1.110000000000000000e+02
1.000000000000000000e+00,1.000000000000000000e+00,1.000000000000000000e+00,6.000000000000000000e+01,7.474000000000000000e+03,2.386999130249023438e-01,1.897158145904541016e+00,6.752806941945248553e-01,0.000000000000000000e+00,1.110000000000000000e+02
0.000000000000000000e+00,1.000000000000000000e+00,0.000000000000000000e+00,5.700000000000000000e+01,7.531000000000000000e+03,2.477059364318847656e-01,1.505511999130249023e+00,2.646324696574343660e-01,0.000000000000000000e+00,1.110000000000000000e+02
1.000000000000000000e+00,1.000000000000000000e+00,1.000000000000000000e+00,5.600000000000000000e+01,7.587000000000000000e+03,3.967630863189697266e-01,2.118505954742431641e+00,7.327377202108039667e-01,0.000000000000000000e+00,1.110000000000000000e+02
0.000000000000000000e+00,0.000000000000000000e+00,1.000000000000000000e+00,4.300000000000000000e+01,7.630000000000000000e+03,2.685048580169677734e-01,1.978919029235839844e+00,7.117164936103952400e-01,0.000000000000000000e+00,1.110000000000000000e+02
1.000000000000000000e+00,1.000000000000000000e+00,1.000000000000000000e+00,5.300000000000000000e+01,7.683000000000000000e+03,2.339079380035400391e-01,1.853763103485107422e+00,6.323424815632111562e-01,0.000000000000000000e+00,1.110000000000000000e+02
1.000000000000000000e+00,1.000000000000000000e+00,1.000000000000000000e+00,5.600000000000000000e+01,7.739000000000000000e+03,2.772979736328125000e-01,1.664767980575561523e+00,3.974482105005112675e-01,0.000000000000000000e+00,1.110000000000000000e+02
0.000000000000000000e+00,1.000000000000000000e+00,0.000000000000000000e+00,6.000000000000000000e+01,7.799000000000000000e+03,2.794048786163330078e-01,1.909657001495361328e+00,6.402859923015360444e-01,0.000000000000000000e+00,1.110000000000000000e+02
1.000000000000000000e+00,1.000000000000000000e+00,1.000000000000000000e+00,5.000000000000000000e+01,7.849000000000000000e+03,2.078731060028076172e-01,1.622125148773193359e+00,4.293692906946587340e-01,0.000000000000000000e+00,1.110000000000000000e+02
0.000000000000000000e+00,1.000000000000000000e+00,0.000000000000000000e+00,5.900000000000000000e+01,7.908000000000000000e+03,2.862298488616943359e-01,1.701050996780395508e+00,4.304560134317739761e-01,0.000000000000000000e+00,1.110000000000000000e+02
0.000000000000000000e+00,1.000000000000000000e+00,0.000000000000000000e+00,6.300000000000000000e+01,7.971000000000000000e+03,3.001079559326171875e-01,1.779618024826049805e+00,4.934103843045841153e-01,0.000000000000000000e+00,1.110000000000000000e+02
0.000000000000000000e+00,1.000000000000000000e+00,0.000000000000000000e+00,5.700000000000000000e+01,8.028000000000000000e+03,2.589271068572998047e-01,1.909105062484741211e+00,6.690491091024276527e-01,0.000000000000000000e+00,1.110000000000000000e+02
0.000000000000000000e+00,1.000000000000000000e+00,0.000000000000000000e+00,6.100000000000000000e+01,8.089000000000000000e+03,2.803220748901367188e-01,1.881737947463989258e+00,6.009566802277351849e-01,0.000000000000000000e+00,1.110000000000000000e+02
0.000000000000000000e+00,1.000000000000000000e+00,0.000000000000000000e+00,6.000000000000000000e+01,8.149000000000000000e+03,2.820699214935302734e-01,1.787924051284790039e+00,5.057312531791466892e-01,0.000000000000000000e+00,1.110000000000000000e+02
1.000000000000000000e+00,1.000000000000000000e+00,1.000000000000000000e+00,5.300000000000000000e+01,8.202000000000000000e+03,2.827939987182617188e-01,1.943209886550903320e+00,6.655344381140824161e-01,0.000000000000000000e+00,1.110000000000000000e+02
1.000000000000000000e+00,1.000000000000000000e+00,1.000000000000000000e+00,5.600000000000000000e+01,8.258000000000000000e+03,3.408548831939697266e-01,1.994735002517700195e+00,6.603103372422569617e-01,0.000000000000000000e+00,1.110000000000000000e+02
0.000000000000000000e+00,1.000000000000000000e+00,0.000000000000000000e+00,5.700000000000000000e+01,8.315000000000000000e+03,2.665879726409912109e-01,1.643916130065917969e+00,3.879549238593439919e-01,0.000000000000000000e+00,1.110000000000000000e+02
0.000000000000000000e+00,0.000000000000000000e+00,1.000000000000000000e+00,4.100000000000000000e+01,8.356000000000000000e+03,3.076369762420654297e-01,1.562223911285400391e+00,2.670413265880684506e-01,0.000000000000000000e+00,1.110000000000000000e+02
1.000000000000000000e+00,1.000000000000000000e+00,1.000000000000000000e+00,5.600000000000000000e+01,8.412000000000000000e+03,3.490071296691894531e-01,1.995404005050659180e+00,6.454574286377753323e-01,0.000000000000000000e+00,1.110000000000000000e+02
1.000000000000000000e+00,1.000000000000000000e+00,1.000000000000000000e+00,5.900000000000000000e+01,8.471000000000000000e+03,3.227591514587402344e-01,1.982260942459106445e+00,6.777731950100847058e-01,0.000000000000000000e+00,1.110000000000000000e+02
1.000000000000000000e+00,1.000000000000000000e+00,1.000000000000000000e+00,5.600000000000000000e+01,8.527000000000000000e+03,2.805809974670410156e-01,1.896369934082031250e+00,6.242728044876946214e-01,0.000000000000000000e+00,1.110000000000000000e+02
1.000000000000000000e+00,1.000000000000000000e+00,1.000000000000000000e+00,5.600000000000000000e+01,8.583000000000000000e+03,2.165789604187011719e-01,1.487891197204589844e+00,2.792654212543631553e-01,0.000000000000000000e+00,1.110000000000000000e+02
0.000000000000000000e+00,1.000000000000000000e+00,0.000000000000000000e+00,6.100000000000000000e+01,8.644000000000000000e+03,3.503100872039794922e-01,1.849588871002197266e+00,5.120101221777125788e-01,0.000000000000000000e+00,1.110000000000000000e+02
0.000000000000000000e+00,1.000000000000000000e+00,0.000000000000000000e+00,5.600000000000000000e+01,8.700000000000000000e+03,3.423790931701660156e-01,2.064262151718139648e+00,7.427855618041494523e-01,0.000000000000000000e+00,1.110000000000000000e+02
0.000000000000000000e+00,1.000000000000000000e+00,0.000000000000000000e+00,5.600000000000000000e+01,8.756000000000000000e+03,3.167240619659423828e-01,1.910980939865112305e+00,6.039737772157953710e-01,0.000000000000000000e+00,1.110000000000000000e+02
1.000000000000000000e+00,1.000000000000000000e+00,1.000000000000000000e+00,6.000000000000000000e+01,8.816000000000000000e+03,3.241810798645019531e-01,1.986664056777954102e+00,6.739648251542101898e-01,0.000000000000000000e+00,1.110000000000000000e+02
0.000000000000000000e+00,1.000000000000000000e+00,0.000000000000000000e+00,6.000000000000000000e+01,8.876000000000000000e+03,2.700159549713134766e-01,1.896706104278564453e+00,6.374619591615777736e-01,0.000000000000000000e+00,1.110000000000000000e+02
1.000000000000000000e+00,1.000000000000000000e+00,1.000000000000000000e+00,5.600000000000000000e+01,8.932000000000000000e+03,2.359678745269775391e-01,1.719960927963256836e+00,4.909778750980681172e-01,0.000000000000000000e+00,1.110000000000000000e+02
0.000000000000000000e+00,1.000000000000000000e+00,0.000000000000000000e+00,5.100000000000000000e+01,8.983000000000000000e+03,2.783350944519042969e-01,1.607002973556518555e+00,3.316072697384639389e-01,0.000000000000000000e+00,1.110000000000000000e+02
0.000000000000000000e+00,1.000000000000000000e+00,0.000000000000000000e+00,6.100000000000000000e+01,9.044000000000000000e+03,5.034179687500000000e-01,1.868394136428833008e+00,3.833251039017994133e-01,0.000000000000000000e+00,1.110000000000000000e+02
1.000000000000000000e+00,1.000000000000000000e+00,1.000000000000000000e+00,5.700000000000000000e+01,9.101000000000000000e+03,2.921280860900878906e-01,1.681731939315795898e+00,3.984263421221150292e-01,0.000000000000000000e+00,1.110000000000000000e+02
0.000000000000000000e+00,1.000000000000000000e+00,0.000000000000000000e+00,5.000000000000000000e+01,9.151000000000000000e+03,2.545559406280517578e-01,1.901467084884643555e+00,6.663905700136223409e-01,0.000000000000000000e+00,1.110000000000000000e+02
1.000000000000000000e+00,0.000000000000000000e+00,0.000000000000000000e+00,4.100000000000000000e+01,9.192000000000000000e+03,2.469451427459716797e-01,1.752709865570068359e+00,5.026205843731532674e-01,0.000000000000000000e+00,1.110000000000000000e+02
0.000000000000000000e+00,1.000000000000000000e+00,0.000000000000000000e+00,5.100000000000000000e+01,9.243000000000000000e+03,2.849509716033935547e-01,1.888662099838256836e+00,6.079525444248883304e-01,0.000000000000000000e+00,1.110000000000000000e+02
1.000000000000000000e+00,1.000000000000000000e+00,1.000000000000000000e+00,5.600000000000000000e+01,9.299000000000000000e+03,2.807028293609619141e-01,1.854983091354370117e+00,5.797075587990685452e-01,0.000000000000000000e+00,1.110000000000000000e+02
0.000000000000000000e+00,1.000000000000000000e+00,0.000000000000000000e+00,5.400000000000000000e+01,9.353000000000000000e+03,3.897829055786132812e-01,1.797411918640136719e+00,4.273403978058812336e-01,0.000000000000000000e+00,1.110000000000000000e+02
0.000000000000000000e+00,1.000000000000000000e+00,0.000000000000000000e+00,6.000000000000000000e+01,9.413000000000000000e+03,3.838608264923095703e-01,1.648394107818603516e+00,2.759902617494696675e-01,0.000000000000000000e+00,1.110000000000000000e+02
1.000000000000000000e+00,1.000000000000000000e+00,1.000000000000000000e+00,5.500000000000000000e+01,9.468000000000000000e+03,3.338959217071533203e-01,1.600958108901977539e+00,2.770319617452473016e-01,0.000000000000000000e+00,1.110000000000000000e+02
1.000000000000000000e+00,1.000000000000000000e+00,1.000000000000000000e+00,5.600000000000000000e+01,9.524000000000000000e+03,3.329119682312011719e-01,1.651979923248291016e+00,3.290267401603939601e-01,0.000000000000000000e+00,1.110000000000000000e+02
1.000000000000000000e+00,1.000000000000000000e+00,1.000000000000000000e+00,5.200000000000000000e+01,9.576000000000000000e+03,3.210449218750000000e-01,2.038902044296264648e+00,7.342188582488312631e-01,0.000000000000000000e+00,1.110000000000000000e+02
1.000000000000000000e+00,1.000000000000000000e+00,1.000000000000000000e+00,5.700000000000000000e+01,9.633000000000000000e+03,3.111019134521484375e-01,1.586062908172607422e+00,2.874677827844985267e-01,0.000000000000000000e+00,1.110000000000000000e+02
0.000000000000000000e+00,1.000000000000000000e+00,0.000000000000000000e+00,5.600000000000000000e+01,9.689000000000000000e+03,2.847900390625000000e-01,1.882101058959960938e+00,6.026718645600003255e-01,0.000000000000000000e+00,1.110000000000000000e+02
0.000000000000000000e+00,1.000000000000000000e+00,0.000000000000000000e+00,6.100000000000000000e+01,9.750000000000000000e+03,2.845339775085449219e-01,1.814189910888671875e+00,5.336758356444750717e-01,0.000000000000000000e+00,1.110000000000000000e+02
1.000000000000000000e+00,1.000000000000000000e+00,1.000000000000000000e+00,6.000000000000000000e+01,9.810000000000000000e+03,2.569210529327392578e-01,1.706560134887695312e+00,4.570541370789501512e-01,0.000000000000000000e+00,1.110000000000000000e+02
0.000000000000000000e+00,1.000000000000000000e+00,0.000000000000000000e+00,5.400000000000000000e+01,9.864000000000000000e+03,2.690060138702392578e-01,1.729876041412353516e+00,4.702778309864550921e-01,0.000000000000000000e+00,1.110000000000000000e+02
1.000000000000000000e+00,1.000000000000000000e+00,1.000000000000000000e+00,5.500000000000000000e+01,9.919000000000000000e+03,2.786500453948974609e-01,2.007045984268188477e+00,7.271853302877298031e-01,0.000000000000000000e+00,1.110000000000000000e+02
0.000000000000000000e+00,1.000000000000000000e+00,0.000000000000000000e+00,5.700000000000000000e+01,9.976000000000000000e+03,3.278100490570068359e-01,1.691190958023071289e+00,3.854373158452806813e-01,0.000000000000000000e+00,1.110000000000000000e+02
0.000000000000000000e+00,1.000000000000000000e+00,0.000000000000000000e+00,5.900000000000000000e+01,1.003500000000000000e+04,3.088850975036621094e-01,2.012198925018310547e+00,7.140690943444834016e-01,0.000000000000000000e+00,1.110000000000000000e+02
0.000000000000000000e+00,1.000000000000000000e+00,0.000000000000000000e+00,5.100000000000000000e+01,1.008600000000000000e+04,2.889440059661865234e-01,1.862571001052856445e+00,5.935046822215320761e-01,0.000000000000000000e+00,1.110000000000000000e+02
1.000000000000000000e+00,1.000000000000000000e+00,1.000000000000000000e+00,5.300000000000000000e+01,1.013900000000000000e+04,2.743299007415771484e-01,1.731867074966430664e+00,4.755742294852106644e-01,0.000000000000000000e+00,1.110000000000000000e+02
1.000000000000000000e+00,1.000000000000000000e+00,1.000000000000000000e+00,6.100000000000000000e+01,1.020000000000000000e+04,2.830791473388671875e-01,1.961905956268310547e+00,6.873561974426973809e-01,0.000000000000000000e+00,1.110000000000000000e+02
1.000000000000000000e+00,1.000000000000000000e+00,1.000000000000000000e+00,5.600000000000000000e+01,1.025600000000000000e+04,2.604620456695556641e-01,1.605788946151733398e+00,3.602023703856258585e-01,0.000000000000000000e+00,1.110000000000000000e+02
0.000000000000000000e+00,1.000000000000000000e+00,0.000000000000000000e+00,5.500000000000000000e+01,1.031100000000000000e+04,2.785599231719970703e-01,1.908979892730712891e+00,6.356596772603537726e-01,0.000000000000000000e+00,1.110000000000000000e+02
0.000000000000000000e+00,1.000000000000000000e+00,0.000000000000000000e+00,5.400000000000000000e+01,1.036500000000000000e+04,2.959079742431640625e-01,1.748413085937500000e+00,4.510102148167540181e-01,0.000000000000000000e+00,1.110000000000000000e+02
0.000000000000000000e+00,0.000000000000000000e+00,1.000000000000000000e+00,4.300000000000000000e+01,1.040800000000000000e+04,2.510259151458740234e-01,1.842494010925292969e+00,5.934093703337910419e-01,1.000000000000000000e+00,1.120000000000000000e+02
1.000000000000000000e+00,1.000000000000000000e+00,1.000000000000000000e+00,5.100000000000000000e+01,1.045900000000000000e+04,2.796590328216552734e-01,1.621830940246582031e+00,3.489144962827345209e-01,0.000000000000000000e+00,1.120000000000000000e+02
0.000000000000000000e+00,1.000000000000000000e+00,0.000000000000000000e+00,5.300000000000000000e+01,1.051200000000000000e+04,2.963840961456298828e-01,2.036022186279296875e+00,7.346310834956073510e-01,0.000000000000000000e+00,1.120000000000000000e+02
0.000000000000000000e+00,1.000000000000000000e+00,0.000000000000000000e+00,5.400000000000000000e+01,1.056600000000000000e+04,3.381559848785400391e-01,1.978832960128784180e+00,6.469656335306809281e-01,0.000000000000000000e+00,1.120000000000000000e+02
1.000000000000000000e+00,1.000000000000000000e+00,1.000000000000000000e+00,5.400000000000000000e+01,1.062000000000000000e+04,2.965400218963623047e-01,1.952152013778686523e+00,6.658188579750677905e-01,0.000000000000000000e+00,1.120000000000000000e+02
0.000000000000000000e+00,1.000000000000000000e+00,0.000000000000000000e+00,5.200000000000000000e+01,1.067200000000000000e+04,2.609682083129882812e-01,1.713839054107666016e+00,4.632781845480123950e-01,0.000000000000000000e+00,1.120000000000000000e+02
0.000000000000000000e+00,1.000000000000000000e+00,0.000000000000000000e+00,5.100000000000000000e+01,1.072300000000000000e+04,2.459990978240966797e-01,1.761605978012084961e+00,5.249062559440997866e-01,0.000000000000000000e+00,1.120000000000000000e+02
0.000000000000000000e+00,1.000000000000000000e+00,0.000000000000000000e+00,5.700000000000000000e+01,1.078000000000000000e+04,2.964749336242675781e-01,1.881725072860717773e+00,5.899753842057872122e-01,0.000000000000000000e+00,1.120000000000000000e+02
1.000000000000000000e+00,1.000000000000000000e+00,1.000000000000000000e+00,5.600000000000000000e+01,1.083600000000000000e+04,3.192098140716552734e-01,1.985693931579589844e+00,6.756619797984624309e-01,0.000000000000000000e+00,1.120000000000000000e+02
0.000000000000000000e+00,1.000000000000000000e+00,0.000000000000000000e+00,6.200000000000000000e+01,1.089800000000000000e+04,2.810001373291015625e-01,1.794296979904174805e+00,5.202067369516123474e-01,0.000000000000000000e+00,1.120000000000000000e+02
1.000000000000000000e+00,1.000000000000000000e+00,1.000000000000000000e+00,5.400000000000000000e+01,1.095200000000000000e+04,2.960200309753417969e-01,2.041908979415893555e+00,7.452868888581269946e-01,0.000000000000000000e+00,1.120000000000000000e+02
0.000000000000000000e+00,1.000000000000000000e+00,0.000000000000000000e+00,5.600000000000000000e+01,1.100800000000000000e+04,2.157318592071533203e-01,1.939706087112426758e+00,7.351206014991860105e-01,0.000000000000000000e+00,1.120000000000000000e+02
0.000000000000000000e+00,1.000000000000000000e+00,0.000000000000000000e+00,5.600000000000000000e+01,1.106400000000000000e+04,2.617070674896240234e-01,1.888818979263305664e+00,6.407729729267721552e-01,0.000000000000000000e+00,1.120000000000000000e+02
0.000000000000000000e+00,1.000000000000000000e+00,0.000000000000000000e+00,5.300000000000000000e+01,1.111700000000000000e+04,2.495160102844238281e-01,1.768610954284667969e+00,5.262439579901838638e-01,0.000000000000000000e+00,1.120000000000000000e+02
1.000000000000000000e+00,1.000000000000000000e+00,1.000000000000000000e+00,5.500000000000000000e+01,1.117200000000000000e+04,2.960021495819091797e-01,1.773173093795776367e+00,4.828718622160170781e-01,0.000000000000000000e+00,1.120000000000000000e+02
0.000000000000000000e+00,1.000000000000000000e+00,0.000000000000000000e+00,5.500000000000000000e+01,1.122700000000000000e+04,2.186849117279052734e-01,1.764251947402954102e+00,5.471331412258257920e-01,0.000000000000000000e+00,1.120000000000000000e+02
1.000000000000000000e+00,1.000000000000000000e+00,1.000000000000000000e+00,5.600000000000000000e+01,1.128300000000000000e+04,2.707068920135498047e-01,1.964648962020874023e+00,7.116795320418993764e-01,0.000000000000000000e+00,1.120000000000000000e+02
0.000000000000000000e+00,1.000000000000000000e+00,0.000000000000000000e+00,5.400000000000000000e+01,1.133700000000000000e+04,2.481141090393066406e-01,1.612146139144897461e+00,3.742602909775221698e-01,0.000000000000000000e+00,1.120000000000000000e+02
1.000000000000000000e+00,1.000000000000000000e+00,1.000000000000000000e+00,5.400000000000000000e+01,1.139100000000000000e+04,2.274279594421386719e-01,1.656574010848999023e+00,4.475065156018098178e-01,0.000000000000000000e+00,1.120000000000000000e+02
1.000000000000000000e+00,1.000000000000000000e+00,1.000000000000000000e+00,5.100000000000000000e+01,1.144200000000000000e+04,3.265368938446044922e-01,2.066339015960693359e+00,7.469358361396502000e-01,0.000000000000000000e+00,1.120000000000000000e+02
0.000000000000000000e+00,1.000000000000000000e+00,0.000000000000000000e+00,5.200000000000000000e+01,1.149400000000000000e+04,2.569148540496826172e-01,1.824472904205322266e+00,5.883432046562384610e-01,0.000000000000000000e+00,1.120000000000000000e+02
0.000000000000000000e+00,1.000000000000000000e+00,0.000000000000000000e+00,5.400000000000000000e+01,1.154800000000000000e+04,2.816329002380371094e-01,1.805487155914306641e+00,5.272419802669636724e-01,0.000000000000000000e+00,1.120000000000000000e+02
1.000000000000000000e+00,1.000000000000000000e+00,1.000000000000000000e+00,5.900000000000000000e+01,1.160700000000000000e+04,2.477009296417236328e-01,1.719446897506713867e+00,4.801936531584455325e-01,0.000000000000000000e+00,1.120000000000000000e+02
1.000000000000000000e+00,1.000000000000000000e+00,1.000000000000000000e+00,5.200000000000000000e+01,1.165900000000000000e+04,3.392479419708251953e-01,1.978013038635253906e+00,6.580781912490752950e-01,0.000000000000000000e+00,1.120000000000000000e+02
0.000000000000000000e+00,1.000000000000000000e+00,0.000000000000000000e+00,5.500000000000000000e+01,1.171400000000000000e+04,2.669270038604736328e-01,1.564429044723510742e+00,3.062852783124334621e-01,0.000000000000000000e+00,1.120000000000000000e+02
1.000000000000000000e+00,1.000000000000000000e+00,1.000000000000000000e+00,5.000000000000000000e+01,1.176400000000000000e+04,3.233149051666259766e-01,2.011970996856689453e+00,7.012788234525012543e-01,0.000000000000000000e+00,1.120000000000000000e+02
0.000000000000000000e+00,1.000000000000000000e+00,0.000000000000000000e+00,5.500000000000000000e+01,1.181900000000000000e+04,2.827260494232177734e-01,1.882287025451660156e+00,6.003809306297924753e-01,0.000000000000000000e+00,1.120000000000000000e+02
0.000000000000000000e+00,0.000000000000000000e+00,1.000000000000000000e+00,4.400000000000000000e+01,1.186300000000000000e+04,4.435069561004638672e-01,1.981307983398437500e+00,5.318471234019095384e-01,0.000000000000000000e+00,1.120000000000000000e+02
0.000000000000000000e+00,1.000000000000000000e+00,0.000000000000000000e+00,5.900000000000000000e+01,1.192200000000000000e+04,2.808730602264404297e-01,1.874853134155273438e+00,6.067207742318905250e-01,0.000000000000000000e+00,1.120000000000000000e+02
1.000000000000000000e+00,1.000000000000000000e+00,1.000000000000000000e+00,5.200000000000000000e+01,1.197400000000000000e+04,2.485370635986328125e-01,1.554800987243652344e+00,3.118443560205866882e-01,0.000000000000000000e+00,1.120000000000000000e+02
1.000000000000000000e+00,1.000000000000000000e+00,1.000000000000000000e+00,5.600000000000000000e+01,1.203000000000000000e+04,3.015599250793457031e-01,1.867455959320068359e+00,5.790846770486061112e-01,0.000000000000000000e+00,1.120000000000000000e+02
1.000000000000000000e+00,1.000000000000000000e+00,1.000000000000000000e+00,5.200000000000000000e+01,1.208200000000000000e+04,2.850430011749267578e-01,1.901257038116455078e+00,6.303578238501119646e-01,0.000000000000000000e+00,1.120000000000000000e+02
1.000000000000000000e+00,1.000000000000000000e+00,1.000000000000000000e+00,5.600000000000000000e+01,1.213800000000000000e+04,2.560069561004638672e-01,1.758152961730957031e+00,5.220297440895613761e-01,0.000000000000000000e+00,1.120000000000000000e+02
0.000000000000000000e+00,1.000000000000000000e+00,0.000000000000000000e+00,5.500000000000000000e+01,1.219300000000000000e+04,2.904829978942871094e-01,2.016979932785034180e+00,7.388722036372377122e-01,0.000000000000000000e+00,1.120000000000000000e+02
0.000000000000000000e+00,1.000000000000000000e+00,0.000000000000000000e+00,5.400000000000000000e+01,1.224700000000000000e+04,2.997870445251464844e-01,1.650719165802001953e+00,3.567188914995356730e-01,0.000000000000000000e+00,1.120000000000000000e+02
0.000000000000000000e+00,1.000000000000000000e+00,0.000000000000000000e+00,5.400000000000000000e+01,1.230100000000000000e+04,2.968828678131103516e-01,1.660966873168945312e+00,3.677587940331586425e-01,0.000000000000000000e+00,1.120000000000000000e+02
0.000000000000000000e+00,1.000000000000000000e+00,0.000000000000000000e+00,6.000000000000000000e+01,1.236100000000000000e+04,2.792990207672119141e-01,1.839730024337768555e+00,5.573770406165130531e-01,0.000000000000000000e+00,1.120000000000000000e+02
0.000000000000000000e+00,1.000000000000000000e+00,0.000000000000000000e+00,5.300000000000000000e+01,1.241400000000000000e+04,2.869930267333984375e-01,1.748967170715332031e+00,4.731561968974012378e-01,0.000000000000000000e+00,1.120000000000000000e+02
1.000000000000000000e+00,1.000000000000000000e+00,1.000000000000000000e+00,5.700000000000000000e+01,1.247100000000000000e+04,2.810540199279785156e-01,1.640254974365234375e+00,3.635951099495139394e-01,0.000000000000000000e+00,1.120000000000000000e+02
0.000000000000000000e+00,1.000000000000000000e+00,0.000000000000000000e+00,5.300000000000000000e+01,1.252400000000000000e+04,2.808268070220947266e-01,2.008237838745117188e+00,7.381800653319958716e-01,0.000000000000000000e+00,1.120000000000000000e+02
1.000000000000000000e+00,1.000000000000000000e+00,1.000000000000000000e+00,5.600000000000000000e+01,1.258000000000000000e+04,3.042061328887939453e-01,1.625641822814941406e+00,3.310017285848106394e-01,0.000000000000000000e+00,1.120000000000000000e+02
0.000000000000000000e+00,1.000000000000000000e+00,0.000000000000000000e+00,5.500000000000000000e+01,1.263500000000000000e+04,3.366689682006835938e-01,1.933978080749511719e+00,6.147384229169862158e-01,0.000000000000000000e+00,1.120000000000000000e+02
1.000000000000000000e+00,1.000000000000000000e+00,1.000000000000000000e+00,5.400000000000000000e+01,1.268900000000000000e+04,2.663259506225585938e-01,1.675772905349731445e+00,4.241358877926538207e-01,0.000000000000000000e+00,1.120000000000000000e+02
1.000000000000000000e+00,1.000000000000000000e+00,1.000000000000000000e+00,5.500000000000000000e+01,1.274400000000000000e+04,3.241059780120849609e-01,1.869948863983154297e+00,5.607201645926176425e-01,0.000000000000000000e+00,1.120000000000000000e+02
1.000000000000000000e+00,1.000000000000000000e+00,1.000000000000000000e+00,5.600000000000000000e+01,1.280000000000000000e+04,2.724289894104003906e-01,1.522925138473510742e+00,2.673149697399149205e-01,0.000000000000000000e+00,1.120000000000000000e+02
1.000000000000000000e+00,1.000000000000000000e+00,1.000000000000000000e+00,6.000000000000000000e+01,1.286000000000000000e+04,2.851848602294921875e-01,1.680884838104248047e+00,3.981210378560013918e-01,0.000000000000000000e+00,1.120000000000000000e+02
1.000000000000000000e+00,1.000000000000000000e+00,1.000000000000000000e+00,5.300000000000000000e+01,1.291300000000000000e+04,2.676620483398437500e-01,1.674759149551391602e+00,4.229690649234711941e-01,0.000000000000000000e+00,1.120000000000000000e+02
1.000000000000000000e+00,1.000000000000000000e+00,1.000000000000000000e+00,6.000000000000000000e+01,1.297300000000000000e+04,3.232581615447998047e-01,1.633198022842407227e+00,3.229702063997897943e-01,0.000000000000000000e+00,1.120000000000000000e+02
0.000000000000000000e+00,1.000000000000000000e+00,0.000000000000000000e+00,5.600000000000000000e+01,1.302900000000000000e+04,3.030209541320800781e-01,2.042860984802246094e+00,7.488233527123913102e-01,0.000000000000000000e+00,1.120000000000000000e+02
1.000000000000000000e+00,1.000000000000000000e+00,1.000000000000000000e+00,5.300000000000000000e+01,1.308200000000000000e+04,2.310969829559326172e-01,1.911286115646362305e+00,6.769227904831051079e-01,0.000000000000000000e+00,1.120000000000000000e+02
1.000000000000000000e+00,1.000000000000000000e+00,1.000000000000000000e+00,5.700000000000000000e+01,1.313900000000000000e+04,2.711977958679199219e-01,1.541441917419433594e+00,2.854898747698534911e-01,0.000000000000000000e+00,1.120000000000000000e+02
0.000000000000000000e+00,1.000000000000000000e+00,0.000000000000000000e+00,5.600000000000000000e+01,1.319500000000000000e+04,3.052699565887451172e-01,1.902029037475585938e+00,6.039578008697166212e-01,0.000000000000000000e+00,1.120000000000000000e+02
0.000000000000000000e+00,1.000000000000000000e+00,0.000000000000000000e+00,5.700000000000000000e+01,1.325200000000000000e+04,2.823290824890136719e-01,1.624799013137817383e+00,3.457376164236843352e-01,0.000000000000000000e+00,1.120000000000000000e+02
0.000000000000000000e+00,1.000000000000000000e+00,0.000000000000000000e+00,5.300000000000000000e+01,1.330500000000000000e+04,2.646479606628417969e-01,1.571605920791625977e+00,3.174218534814819970e-01,0.000000000000000000e+00,1.120000000000000000e+02
0.000000000000000000e+00,1.000000000000000000e+00,0.000000000000000000e+00,5.600000000000000000e+01,1.336100000000000000e+04,2.713408470153808594e-01,1.699249029159545898e+00,4.332944022736773815e-01,0.000000000000000000e+00,1.120000000000000000e+02
1.000000000000000000e+00,1.000000000000000000e+00,1.000000000000000000e+00,5.700000000000000000e+01,1.341800000000000000e+04,2.673778533935546875e-01,1.590559005737304688e+00,3.240351740478000231e-01,0.000000000000000000e+00,1.120000000000000000e+02
0.000000000000000000e+00,1.000000000000000000e+00,0.000000000000000000e+00,5.100000000000000000e+01,1.346900000000000000e+04,2.801830768585205078e-01,1.685554981231689453e+00,4.095717784580413245e-01,0.000000000000000000e+00,1.120000000000000000e+02
0.000000000000000000e+00,1.000000000000000000e+00,0.000000000000000000e+00,5.600000000000000000e+01,1.352500000000000000e+04,2.658510208129882812e-01,1.891340017318725586e+00,6.340960255620283759e-01,0.000000000000000000e+00,1.120000000000000000e+02
0.000000000000000000e+00,1.000000000000000000e+00,0.000000000000000000e+00,5.100000000000000000e+01,1.357600000000000000e+04,2.079942226409912109e-01,1.781423807144165039e+00,5.823352587263220803e-01,0.000000000000000000e+00,1.120000000000000000e+02
0.000000000000000000e+00,1.000000000000000000e+00,0.000000000000000000e+00,5.600000000000000000e+01,1.363200000000000000e+04,2.546730041503906250e-01,1.733532190322875977e+00,4.826803348993859433e-01,0.000000000000000000e+00,1.120000000000000000e+02
0.000000000000000000e+00,1.000000000000000000e+00,0.000000000000000000e+00,5.500000000000000000e+01,1.368700000000000000e+04,2.124061584472656250e-01,1.831060886383056641e+00,6.137036116759924109e-01,0.000000000000000000e+00,1.120000000000000000e+02
1.000000000000000000e+00,1.000000000000000000e+00,1.000000000000000000e+00,5.700000000000000000e+01,1.374400000000000000e+04,2.928979396820068359e-01,1.849892139434814453e+00,5.803726515359224347e-01,0.000000000000000000e+00,1.120000000000000000e+02
1.000000000000000000e+00,1.000000000000000000e+00,1.000000000000000000e+00,5.200000000000000000e+01,1.379600000000000000e+04,2.978749275207519531e-01,1.584671974182128906e+00,2.987286203725195710e-01,0.000000000000000000e+00,1.120000000000000000e+02
0.000000000000000000e+00,1.000000000000000000e+00,0.000000000000000000e+00,5.300000000000000000e+01,1.384900000000000000e+04,3.426129817962646484e-01,1.713474988937377930e+00,3.955105313174773207e-01,0.000000000000000000e+00,1.120000000000000000e+02
1.000000000000000000e+00,0.000000000000000000e+00,0.000000000000000000e+00,3.800000000000000000e+01,1.388700000000000000e+04,3.789639472961425781e-01,1.964920043945312500e+00,5.936247477818055174e-01,0.000000000000000000e+00,1.120000000000000000e+02
0.000000000000000000e+00,1.000000000000000000e+00,0.000000000000000000e+00,5.500000000000000000e+01,1.394200000000000000e+04,2.523949146270751953e-01,1.520931959152221680e+00,2.816116242085983101e-01,0.000000000000000000e+00,1.120000000000000000e+02
1.000000000000000000e+00,1.000000000000000000e+00,1.000000000000000000e+00,5.600000000000000000e+01,1.399800000000000000e+04,7.527441978454589844e-01,2.054546833038330078e+00,3.195434432482255893e-01,0.000000000000000000e+00,1.120000000000000000e+02
0.000000000000000000e+00,1.000000000000000000e+00,0.000000000000000000e+00,5.600000000000000000e+01,1.405400000000000000e+04,2.312078475952148438e-01,1.561058044433593750e+00,3.307019114919904079e-01,0.000000000000000000e+00,1.120000000000000000e+02
0.000000000000000000e+00,1.000000000000000000e+00,0.000000000000000000e+00,5.400000000000000000e+01,1.410800000000000000e+04,2.351880073547363281e-01,1.661273002624511719e+00,4.418825035816821289e-01,0.000000000000000000e+00,1.120000000000000000e+02
0.000000000000000000e+00,1.000000000000000000e+00,0.000000000000000000e+00,5.200000000000000000e+01,1.416000000000000000e+04,2.826728820800781250e-01,1.867259025573730469e+00,5.923951663876916296e-01,0.000000000000000000e+00,1.120000000000000000e+02
0.000000000000000000e+00,0.000000000000000000e+00,1.000000000000000000e+00,4.600000000000000000e+01,1.420600000000000000e+04,1.950118541717529297e-01,1.844889163970947266e+00,6.540168914483619478e-01,0.000000000000000000e+00,1.120000000000000000e+02
0.000000000000000000e+00,1.000000000000000000e+00,0.000000000000000000e+00,6.300000000000000000e+01,1.426900000000000000e+04,3.190610408782958984e-01,1.836478948593139648e+00,5.239888405853654341e-01,0.000000000000000000e+00,1.120000000000000000e+02
0.000000000000000000e+00,1.000000000000000000e+00,0.000000000000000000e+00,5.600000000000000000e+01,1.432500000000000000e+04,3.018031120300292969e-01,1.806444168090820312e+00,5.138717631909737182e-01,0.000000000000000000e+00,1.120000000000000000e+02
1.000000000000000000e+00,1.000000000000000000e+00,1.000000000000000000e+00,5.700000000000000000e+01,1.438200000000000000e+04,3.219139575958251953e-01,1.786480903625488281e+00,4.837548448612114527e-01,0.000000000000000000e+00,1.120000000000000000e+02
1.000000000000000000e+00,1.000000000000000000e+00,1.000000000000000000e+00,5.600000000000000000e+01,1.443800000000000000e+04,3.269281387329101562e-01,1.860432147979736328e+00,5.442268795051998787e-01,0.000000000000000000e+00,1.120000000000000000e+02
0.000000000000000000e+00,1.000000000000000000e+00,0.000000000000000000e+00,5.400000000000000000e+01,1.449200000000000000e+04,3.109908103942871094e-01,1.681275844573974609e+00,3.757565204996281549e-01,0.000000000000000000e+00,1.120000000000000000e+02
1.000000000000000000e+00,1.000000000000000000e+00,1.000000000000000000e+00,5.600000000000000000e+01,1.454800000000000000e+04,3.167281150817871094e-01,1.770845174789428711e+00,4.632211579639263221e-01,0.000000000000000000e+00,1.120000000000000000e+02
0.000000000000000000e+00,1.000000000000000000e+00,0.000000000000000000e+00,5.000000000000000000e+01,1.459800000000000000e+04,3.061299324035644531e-01,1.597768068313598633e+00,3.112363420963003002e-01,0.000000000000000000e+00,1.120000000000000000e+02
0.000000000000000000e+00,1.000000000000000000e+00,0.000000000000000000e+00,5.600000000000000000e+01,1.465400000000000000e+04,4.010651111602783203e-01,1.709696054458618164e+00,3.209884998781182275e-01,0.000000000000000000e+00,1.120000000000000000e+02
1.000000000000000000e+00,1.000000000000000000e+00,1.000000000000000000e+00,5.600000000000000000e+01,1.471000000000000000e+04,2.714650630950927734e-01,1.598946809768676758e+00,3.366335973852663255e-01,0.000000000000000000e+00,1.120000000000000000e+02
0.000000000000000000e+00,1.000000000000000000e+00,0.000000000000000000e+00,5.000000000000000000e+01,1.476000000000000000e+04,2.795081138610839844e-01,1.985424995422363281e+00,7.051005946782183953e-01,0.000000000000000000e+00,1.120000000000000000e+02
1.000000000000000000e+00,1.000000000000000000e+00,1.000000000000000000e+00,5.100000000000000000e+01,1.481100000000000000e+04,2.692840099334716797e-01,1.543224811553955078e+00,2.821736414191650111e-01,0.000000000000000000e+00,1.120000000000000000e+02
1.000000000000000000e+00,1.000000000000000000e+00,1.000000000000000000e+00,5.400000000000000000e+01,1.486500000000000000e+04,3.569710254669189453e-01,1.833570003509521484e+00,4.989409556854169092e-01,0.000000000000000000e+00,1.120000000000000000e+02
1.000000000000000000e+00,1.000000000000000000e+00,1.000000000000000000e+00,5.200000000000000000e+01,1.491700000000000000e+04,3.670389652252197266e-01,1.659268856048583984e+00,2.918211079375568340e-01,0.000000000000000000e+00,1.120000000000000000e+02
1.000000000000000000e+00,1.000000000000000000e+00,1.000000000000000000e+00,6.100000000000000000e+01,1.497800000000000000e+04,2.920870780944824219e-01,1.948263168334960938e+00,6.731035419510370543e-01,0.000000000000000000e+00,1.120000000000000000e+02
0.000000000000000000e+00,1.000000000000000000e+00,0.000000000000000000e+00,5.900000000000000000e+01,1.503700000000000000e+04,3.592119216918945312e-01,1.971323013305664062e+00,6.279025630465162600e-01,0.000000000000000000e+00,1.120000000000000000e+02
0.000000000000000000e+00,1.000000000000000000e+00,0.000000000000000000e+00,5.600000000000000000e+01,1.509300000000000000e+04,3.196320533752441406e-01,1.586032867431640625e+00,2.809976268122427179e-01,0.000000000000000000e+00,1.120000000000000000e+02
0.000000000000000000e+00,1.000000000000000000e+00,0.000000000000000000e+00,5.400000000000000000e+01,1.514700000000000000e+04,4.073598384857177734e-01,1.925648212432861328e+00,5.398100571013131344e-01,0.000000000000000000e+00,1.120000000000000000e+02
0.000000000000000000e+00,1.000000000000000000e+00,0.000000000000000000e+00,5.600000000000000000e+01,1.520300000000000000e+04,2.651488780975341797e-01,1.604074001312255859e+00,3.441325349101947428e-01,0.000000000000000000e+00,1.120000000000000000e+02
0.000000000000000000e+00,1.000000000000000000e+00,0.000000000000000000e+00,5.600000000000000000e+01,1.525900000000000000e+04,2.850861549377441406e-01,1.793526887893676758e+00,5.208736208932671641e-01,0.000000000000000000e+00,1.120000000000000000e+02
1.000000000000000000e+00,1.000000000000000000e+00,1.000000000000000000e+00,5.500000000000000000e+01,1.531400000000000000e+04,3.322231769561767578e-01,1.941874980926513672e+00,6.127408732939718661e-01,0.000000000000000000e+00,1.120000000000000000e+02
1.000000000000000000e+00,1.000000000000000000e+00,1.000000000000000000e+00,5.100000000000000000e+01,1.536500000000000000e+04,3.530189990997314453e-01,1.805486917495727539e+00,4.684440118691781674e-01,0.000000000000000000e+00,1.120000000000000000e+02
0.000000000000000000e+00,1.000000000000000000e+00,0.000000000000000000e+00,5.500000000000000000e+01,1.542000000000000000e+04,2.094001770019531250e-01,1.770482063293457031e+00,5.722384060408527429e-01,0.000000000000000000e+00,1.120000000000000000e+02
1.000000000000000000e+00,1.000000000000000000e+00,1.000000000000000000e+00,6.000000000000000000e+01,1.548000000000000000e+04,2.027018070220947266e-01,1.867415904998779297e+00,6.729687875561459753e-01,0.000000000000000000e+00,1.120000000000000000e+02
0.000000000000000000e+00,1.000000000000000000e+00,0.000000000000000000e+00,5.300000000000000000e+01,1.553300000000000000e+04,2.262260913848876953e-01,1.936889886856079102e+00,7.265760597355614969e-01,0.000000000000000000e+00,1.120000000000000000e+02
1.000000000000000000e+00,1.000000000000000000e+00,1.000000000000000000e+00,5.500000000000000000e+01,1.558800000000000000e+04,2.259480953216552734e-01,1.490881919860839844e+00,2.846201700481783003e-01,0.000000000000000000e+00,1.120000000000000000e+02
1.000000000000000000e+00,1.000000000000000000e+00,1.000000000000000000e+00,5.000000000000000000e+01,1.563800000000000000e+04,3.409130573272705078e-01,1.982980012893676758e+00,6.506232346019178436e-01,0.000000000000000000e+00,1.120000000000000000e+02
1.000000000000000000e+00,1.000000000000000000e+00,1.000000000000000000e+00,5.400000000000000000e+01,1.569200000000000000e+04,3.156731128692626953e-01,2.048946857452392578e+00,7.328921395425052054e-01,0.000000000000000000e+00,1.120000000000000000e+02
0.000000000000000000e+00,1.000000000000000000e+00,0.000000000000000000e+00,5.600000000000000000e+01,1.574800000000000000e+04,2.506899833679199219e-01,1.870004177093505859e+00,6.197562211390181819e-01,0.000000000000000000e+00,1.120000000000000000e+02
0.000000000000000000e+00,1.000000000000000000e+00,0.000000000000000000e+00,6.000000000000000000e+01,1.580800000000000000e+04,1.491658687591552734e-01,1.709666013717651367e+00,5.629212468712235795e-01,0.000000000000000000e+00,1.120000000000000000e+02
1.000000000000000000e+00,1.000000000000000000e+00,1.000000000000000000e+00,5.300000000000000000e+01,1.586100000000000000e+04,3.261330127716064453e-01,1.959555864334106445e+00,6.558073806266582206e-01,0.000000000000000000e+00,1.120000000000000000e+02
1.000000000000000000e+00,1.000000000000000000e+00,1.000000000000000000e+00,6.000000000000000000e+01,1.592100000000000000e+04,4.955458641052246094e-01,2.132378101348876953e+00,6.382379837549864154e-01,0.000000000000000000e+00,1.120000000000000000e+02
1.000000000000000000e+00,1.000000000000000000e+00,1.000000000000000000e+00,5.600000000000000000e+01,1.597700000000000000e+04,3.083481788635253906e-01,1.737915039062500000e+00,4.431333568004918178e-01,0.000000000000000000e+00,1.120000000000000000e+02
0.000000000000000000e+00,1.000000000000000000e+00,0.000000000000000000e+00,5.600000000000000000e+01,1.603300000000000000e+04,2.390539646148681641e-01,1.660403013229370117e+00,4.369403746576406289e-01,0.000000000000000000e+00,1.120000000000000000e+02
1.000000000000000000e+00,1.000000000000000000e+00,1.000000000000000000e+00,5.100000000000000000e+01,1.608400000000000000e+04,2.353830337524414062e-01,1.537160873413085938e+00,3.076406501270649296e-01,0.000000000000000000e+00,1.120000000000000000e+02
1.000000000000000000e+00,1.000000000000000000e+00,1.000000000000000000e+00,5.700000000000000000e+01,1.614100000000000000e+04,3.671751022338867188e-01,1.683655023574829102e+00,3.246706959449152663e-01,0.000000000000000000e+00,1.120000000000000000e+02
0.000000000000000000e+00,0.000000000000000000e+00,1.000000000000000000e+00,3.800000000000000000e+01,1.617900000000000000e+04,2.289390563964843750e-01,1.571331024169921875e+00,3.460486909782010678e-01,1.000000000000000000e+00,1.110000000000000000e+02
0.000000000000000000e+00,1.000000000000000000e+00,0.000000000000000000e+00,6.200000000000000000e+01,1.624100000000000000e+04,2.422368526458740234e-01,1.524158954620361328e+00,3.036649456352158438e-01,0.000000000000000000e+00,1.110000000000000000e+02
0.000000000000000000e+00,1.000000000000000000e+00,0.000000000000000000e+00,5.200000000000000000e+01,1.629300000000000000e+04,3.169600963592529297e-01,1.568159103393554688e+00,2.552401874389407799e-01,0.000000000000000000e+00,1.110000000000000000e+02
0.000000000000000000e+00,1.000000000000000000e+00,0.000000000000000000e+00,5.100000000000000000e+01,1.634400000000000000e+04,2.434239387512207031e-01,1.721461057662963867e+00,4.765603805213642907e-01,0.000000000000000000e+00,1.110000000000000000e+02
1.000000000000000000e+00,1.000000000000000000e+00,1.000000000000000000e+00,5.600000000000000000e+01,1.640000000000000000e+04,2.328071594238281250e-01,1.633894920349121094e+00,4.105921122154954084e-01,0.000000000000000000e+00,1.110000000000000000e+02
0.000000000000000000e+00,1.000000000000000000e+00,0.000000000000000000e+00,5.600000000000000000e+01,1.645600000000000000e+04,2.394409179687500000e-01,1.711769104003906250e+00,4.889929018571184116e-01,0.000000000000000000e+00,1.110000000000000000e+02
1.000000000000000000e+00,1.000000000000000000e+00,1.000000000000000000e+00,6.100000000000000000e+01,1.651700000000000000e+04,4.768581390380859375e-01,1.786241054534912109e+00,3.254997254272123941e-01,0.000000000000000000e+00,1.110000000000000000e+02
1.000000000000000000e+00,1.000000000000000000e+00,1.000000000000000000e+00,5.600000000000000000e+01,1.657300000000000000e+04,2.916069030761718750e-01,1.761122941970825195e+00,4.865323201724481295e-01,0.000000000000000000e+00,1.110000000000000000e+02
0.000000000000000000e+00,1.000000000000000000e+00,0.000000000000000000e+00,5.100000000000000000e+01,1.662400000000000000e+04,2.449719905853271484e-01,1.597655057907104492e+00,3.510423894445574011e-01,0.000000000000000000e+00,1.110000000000000000e+02
1.000000000000000000e+00,1.000000000000000000e+00,1.000000000000000000e+00,5.600000000000000000e+01,1.668000000000000000e+04,4.131150245666503906e-01,2.162482023239135742e+00,7.465472492309974673e-01,0.000000000000000000e+00,1.110000000000000000e+02
1.000000000000000000e+00,1.000000000000000000e+00,1.000000000000000000e+00,5.000000000000000000e+01,1.673000000000000000e+04,3.551659584045410156e-01,1.909368038177490234e+00,5.728313402680476063e-01,0.000000000000000000e+00,1.110000000000000000e+02
0.000000000000000000e+00,1.000000000000000000e+00,0.000000000000000000e+00,6.000000000000000000e+01,1.679000000000000000e+04,2.305531501770019531e-01,1.570902109146118164e+00,3.440448354625913474e-01,0.000000000000000000e+00,1.110000000000000000e+02
0.000000000000000000e+00,1.000000000000000000e+00,0.000000000000000000e+00,6.100000000000000000e+01,1.685100000000000000e+04,2.639420032501220703e-01,1.983250856399536133e+00,7.269898150204039400e-01,0.000000000000000000e+00,1.110000000000000000e+02
1.000000000000000000e+00,1.000000000000000000e+00,1.000000000000000000e+00,5.400000000000000000e+01,1.690500000000000000e+04,3.066651821136474609e-01,1.685283184051513672e+00,3.960150042783443514e-01,0.000000000000000000e+00,1.110000000000000000e+02
0.000000000000000000e+00,1.000000000000000000e+00,0.000000000000000000e+00,5.900000000000000000e+01,1.696400000000000000e+04,2.193961143493652344e-01,1.698020935058593750e+00,4.940042757852364241e-01,0.000000000000000000e+00,1.110000000000000000e+02
1.000000000000000000e+00,0.000000000000000000e+00,0.000000000000000000e+00,4.800000000000000000e+01,1.701200000000000000e+04,2.524600028991699219e-01,1.589338064193725586e+00,3.502235244377171486e-01,0.000000000000000000e+00,1.110000000000000000e+02
1.000000000000000000e+00,1.000000000000000000e+00,1.000000000000000000e+00,6.000000000000000000e+01,1.707200000000000000e+04,3.144958019256591797e-01,1.894860029220581055e+00,5.782487313974258303e-01,0.000000000000000000e+00,1.110000000000000000e+02
1.000000000000000000e+00,1.000000000000000000e+00,1.000000000000000000e+00,5.400000000000000000e+01,1.712600000000000000e+04,3.812530040740966797e-01,1.763386964797973633e+00,3.919118078731710919e-01,0.000000000000000000e+00,1.110000000000000000e+02
1.000000000000000000e+00,1.000000000000000000e+00,1.000000000000000000e+00,6.100000000000000000e+01,1.718700000000000000e+04,3.746850490570068359e-01,1.643654108047485352e+00,2.857646721677473134e-01,0.000000000000000000e+00,1.110000000000000000e+02
0.000000000000000000e+00,1.000000000000000000e+00,0.000000000000000000e+00,5.700000000000000000e+01,1.724400000000000000e+04,2.787311077117919922e-01,1.672844886779785156e+00,3.919002819815881611e-01,0.000000000000000000e+00,1.110000000000000000e+02
0.000000000000000000e+00,1.000000000000000000e+00,0.000000000000000000e+00,5.700000000000000000e+01,1.730100000000000000e+04,3.210978507995605469e-01,1.878801822662353516e+00,5.705918794583345610e-01,0.000000000000000000e+00,1.110000000000000000e+02
0.000000000000000000e+00,1.000000000000000000e+00,0.000000000000000000e+00,6.000000000000000000e+01,1.736100000000000000e+04,2.969169616699218750e-01,1.838149785995483398e+00,5.421760262603159131e-01,0.000000000000000000e+00,1.110000000000000000e+02
1.000000000000000000e+00,1.000000000000000000e+00,1.000000000000000000e+00,5.200000000000000000e+01,1.741300000000000000e+04,3.135561943054199219e-01,1.596740007400512695e+00,2.892598272374473645e-01,0.000000000000000000e+00,1.110000000000000000e+02
0.000000000000000000e+00,1.000000000000000000e+00,0.000000000000000000e+00,5.900000000000000000e+01,1.747200000000000000e+04,3.427050113677978516e-01,1.646208047866821289e+00,3.188226250657866245e-01,0.000000000000000000e+00,1.110000000000000000e+02
0.000000000000000000e+00,1.000000000000000000e+00,0.000000000000000000e+00,5.300000000000000000e+01,1.752500000000000000e+04,2.506771087646484375e-01,1.978544950485229492e+00,7.303611373997975775e-01,0.000000000000000000e+00,1.110000000000000000e+02
1.000000000000000000e+00,1.000000000000000000e+00,1.000000000000000000e+00,6.100000000000000000e+01,1.758600000000000000e+04,2.930982112884521484e-01,1.543129920959472656e+00,2.740187803593827076e-01,0.000000000000000000e+00,1.110000000000000000e+02
0.000000000000000000e+00,1.000000000000000000e+00,0.000000000000000000e+00,6.400000000000000000e+01,1.765000000000000000e+04,3.202519416809082031e-01,1.779658079147338867e+00,4.702322251438040834e-01,0.000000000000000000e+00,1.110000000000000000e+02
1.000000000000000000e+00,1.000000000000000000e+00,1.000000000000000000e+00,5.900000000000000000e+01,1.770900000000000000e+04,2.308650016784667969e-01,1.662744998931884766e+00,4.330785375750101918e-01,0.000000000000000000e+00,1.110000000000000000e+02
0.000000000000000000e+00,1.000000000000000000e+00,0.000000000000000000e+00,6.000000000000000000e+01,1.776900000000000000e+04,1.803281307220458984e-01,1.905687093734741211e+00,7.218716011641455044e-01,0.000000000000000000e+00,1.110000000000000000e+02
1.000000000000000000e+00,1.000000000000000000e+00,1.000000000000000000e+00,6.000000000000000000e+01,1.782900000000000000e+04,2.693829536437988281e-01,1.614455938339233398e+00,3.534374175401072682e-01,0.000000000000000000e+00,1.110000000000000000e+02
1.000000000000000000e+00,1.000000000000000000e+00,1.000000000000000000e+00,6.000000000000000000e+01,1.788900000000000000e+04,3.027279376983642578e-01,1.990839004516601562e+00,6.940082397426926564e-01,0.000000000000000000e+00,1.110000000000000000e+02
1.000000000000000000e+00,1.000000000000000000e+00,1.000000000000000000e+00,5.900000000000000000e+01,1.794800000000000000e+04,2.995128631591796875e-01,1.645173072814941406e+00,3.562920001578003815e-01,0.000000000000000000e+00,1.110000000000000000e+02
1.000000000000000000e+00,1.000000000000000000e+00,1.000000000000000000e+00,6.000000000000000000e+01,1.800800000000000000e+04,2.925579547882080078e-01,1.816155910491943359e+00,5.390195734462206456e-01,0.000000000000000000e+00,1.110000000000000000e+02
1.000000000000000000e+00,1.000000000000000000e+00,1.000000000000000000e+00,5.200000000000000000e+01,1.806000000000000000e+04,2.299380302429199219e-01,1.877518177032470703e+00,6.497769894245237765e-01,0.000000000000000000e+00,1.110000000000000000e+02
1.000000000000000000e+00,1.000000000000000000e+00,1.000000000000000000e+00,5.300000000000000000e+01,1.811300000000000000e+04,2.597348690032958984e-01,1.772912979125976562e+00,5.229183355196471705e-01,0.000000000000000000e+00,1.110000000000000000e+02
1.000000000000000000e+00,1.000000000000000000e+00,1.000000000000000000e+00,5.500000000000000000e+01,1.816800000000000000e+04,2.410829067230224609e-01,1.494165897369384766e+00,2.674093851638911779e-01,0.000000000000000000e+00,1.110000000000000000e+02
1.000000000000000000e+00,1.000000000000000000e+00,1.000000000000000000e+00,6.100000000000000000e+01,1.822900000000000000e+04,2.681341171264648438e-01,1.559122085571289062e+00,2.932049095257425186e-01,0.000000000000000000e+00,1.110000000000000000e+02
1.000000000000000000e+00,1.000000000000000000e+00,1.000000000000000000e+00,5.600000000000000000e+01,1.828500000000000000e+04,2.051959037780761719e-01,1.466059923171997070e+00,2.760458821408575125e-01,0.000000000000000000e+00,1.110000000000000000e+02
0.000000000000000000e+00,1.000000000000000000e+00,0.000000000000000000e+00,6.000000000000000000e+01,1.834500000000000000e+04,2.895820140838623047e-01,1.956868171691894531e+00,6.825163962257689843e-01,0.000000000000000000e+00,1.110000000000000000e+02
1.000000000000000000e+00,1.000000000000000000e+00,1.000000000000000000e+00,6.200000000000000000e+01,1.840700000000000000e+04,2.469868659973144531e-01,1.599011898040771484e+00,3.486621205521217570e-01,0.000000000000000000e+00,1.110000000000000000e+02
0.000000000000000000e+00,1.000000000000000000e+00,0.000000000000000000e+00,5.700000000000000000e+01,1.846400000000000000e+04,2.296259403228759766e-01,1.897267103195190430e+00,6.789996160714405482e-01,0.000000000000000000e+00,1.110000000000000000e+02
0.000000000000000000e+00,1.000000000000000000e+00,0.000000000000000000e+00,6.400000000000000000e+01,1.852800000000000000e+04,3.308691978454589844e-01,1.727937936782836914e+00,4.072839102654649546e-01,0.000000000000000000e+00,1.110000000000000000e+02
0.000000000000000000e+00,1.000000000000000000e+00,0.000000000000000000e+00,5.600000000000000000e+01,1.858400000000000000e+04,2.484219074249267578e-01,1.646476030349731445e+00,4.038339747145178737e-01,0.000000000000000000e+00,1.110000000000000000e+02
1.000000000000000000e+00,0.000000000000000000e+00,0.000000000000000000e+00,4.700000000000000000e+01,1.863100000000000000e+04,2.014749050140380859e-01,1.868640184402465820e+00,6.722532879406094564e-01,0.000000000000000000e+00,1.110000000000000000e+02
0.000000000000000000e+00,1.000000000000000000e+00,0.000000000000000000e+00,5.600000000000000000e+01,1.868700000000000000e+04,2.759320735931396484e-01,1.648048877716064453e+00,3.873657936076084218e-01,0.000000000000000000e+00,1.110000000000000000e+02
0.000000000000000000e+00,0.000000000000000000e+00,1.000000000000000000e+00,4.400000000000000000e+01,1.873100000000000000e+04,2.239120006561279297e-01,1.813338041305541992e+00,6.005522841513566412e-01,0.000000000000000000e+00,1.110000000000000000e+02
1.000000000000000000e+00,1.000000000000000000e+00,1.000000000000000000e+00,5.400000000000000000e+01,1.878500000000000000e+04,4.173378944396972656e-01,2.030662059783935547e+00,6.145922204713681891e-01,0.000000000000000000e+00,1.110000000000000000e+02
1.000000000000000000e+00,1.000000000000000000e+00,1.000000000000000000e+00,5.600000000000000000e+01,1.884100000000000000e+04,3.467371463775634766e-01,1.708222150802612305e+00,3.731560078072752584e-01,0.000000000000000000e+00,1.110000000000000000e+02
0.000000000000000000e+00,1.000000000000000000e+00,0.000000000000000000e+00,6.100000000000000000e+01,1.890200000000000000e+04,2.871251106262207031e-01,1.664381980895996094e+00,3.875711358622471736e-01,0.000000000000000000e+00,1.110000000000000000e+02
1.000000000000000000e+00,1.000000000000000000e+00,1.000000000000000000e+00,5.500000000000000000e+01,1.895700000000000000e+04,2.065880298614501953e-01,1.713490962982177734e+00,5.177039082231128519e-01,0.000000000000000000e+00,1.110000000000000000e+02
0.000000000000000000e+00,1.000000000000000000e+00,0.000000000000000000e+00,6.200000000000000000e+01,1.901900000000000000e+04,2.950010299682617188e-01,2.017371177673339844e+00,7.183034212791792328e-01,0.000000000000000000e+00,1.110000000000000000e+02
1.000000000000000000e+00,1.000000000000000000e+00,1.000000000000000000e+00,5.700000000000000000e+01,1.907600000000000000e+04,2.133898735046386719e-01,1.587076902389526367e+00,3.724709005484866942e-01,0.000000000000000000e+00,1.110000000000000000e+02
1.000000000000000000e+00,1.000000000000000000e+00,1.000000000000000000e+00,5.900000000000000000e+01,1.913500000000000000e+04,3.222959041595458984e-01,1.726577997207641602e+00,4.157095881623129596e-01,0.000000000000000000e+00,1.110000000000000000e+02
0.000000000000000000e+00,1.000000000000000000e+00,0.000000000000000000e+00,6.000000000000000000e+01,1.919500000000000000e+04,2.198660373687744141e-01,1.787378072738647461e+00,5.697017751706003885e-01,0.000000000000000000e+00,1.110000000000000000e+02
1.000000000000000000e+00,1.000000000000000000e+00,1.000000000000000000e+00,6.100000000000000000e+01,1.925600000000000000e+04,2.956080436706542969e-01,1.860069036483764648e+00,5.631675708224801458e-01,0.000000000000000000e+00,1.110000000000000000e+02
0.000000000000000000e+00,1.000000000000000000e+00,0.000000000000000000e+00,5.500000000000000000e+01,1.931100000000000000e+04,2.578730583190917969e-01,1.758837938308715820e+00,5.221240321320630429e-01,0.000000000000000000e+00,1.110000000000000000e+02
1.000000000000000000e+00,1.000000000000000000e+00,1.000000000000000000e+00,6.100000000000000000e+01,1.937200000000000000e+04,3.000400066375732422e-01,1.768833160400390625e+00,4.744164841022050494e-01,0.000000000000000000e+00,1.110000000000000000e+02
0.000000000000000000e+00,1.000000000000000000e+00,0.000000000000000000e+00,5.700000000000000000e+01,1.942900000000000000e+04,2.165229320526123047e-01,1.694910049438476562e+00,4.860770543883922712e-01,0.000000000000000000e+00,1.110000000000000000e+02
1.000000000000000000e+00,1.000000000000000000e+00,1.000000000000000000e+00,5.700000000000000000e+01,1.948600000000000000e+04,2.604010105133056641e-01,1.598653078079223633e+00,3.516040107991201258e-01,0.000000000000000000e+00,1.110000000000000000e+02
0.000000000000000000e+00,0.000000000000000000e+00,1.000000000000000000e+00,4.700000000000000000e+01,1.953300000000000000e+04,2.815430164337158203e-01,1.892834901809692383e+00,6.109144951310705451e-01,0.000000000000000000e+00,1.110000000000000000e+02
1.000000000000000000e+00,1.000000000000000000e+00,1.000000000000000000e+00,6.100000000000000000e+01,1.959400000000000000e+04,4.222800731658935547e-01,1.962460041046142578e+00,5.567973175907789951e-01,0.000000000000000000e+00,1.110000000000000000e+02
0.000000000000000000e+00,1.000000000000000000e+00,0.000000000000000000e+00,5.700000000000000000e+01,1.965100000000000000e+04,2.796468734741210938e-01,1.824462175369262695e+00,5.479872394553437775e-01,0.000000000000000000e+00,1.110000000000000000e+02
0.000000000000000000e+00,1.000000000000000000e+00,0.000000000000000000e+00,5.700000000000000000e+01,1.970800000000000000e+04,3.570680618286132812e-01,1.780905961990356445e+00,4.457673906090173221e-01,0.000000000000000000e+00,1.110000000000000000e+02
1.000000000000000000e+00,1.000000000000000000e+00,1.000000000000000000e+00,6.000000000000000000e+01,1.976800000000000000e+04,2.587530612945556641e-01,1.504885911941528320e+00,2.675849186260239598e-01,0.000000000000000000e+00,1.110000000000000000e+02
0.000000000000000000e+00,1.000000000000000000e+00,0.000000000000000000e+00,5.600000000000000000e+01,1.982400000000000000e+04,2.511398792266845703e-01,1.657796144485473633e+00,4.086144539162772094e-01,0.000000000000000000e+00,1.110000000000000000e+02
0.000000000000000000e+00,1.000000000000000000e+00,0.000000000000000000e+00,6.500000000000000000e+01,1.988900000000000000e+04,2.902059555053710938e-01,1.583811044692993164e+00,3.092693115492272660e-01,0.000000000000000000e+00,1.110000000000000000e+02
1.000000000000000000e+00,1.000000000000000000e+00,1.000000000000000000e+00,5.400000000000000000e+01,1.994300000000000000e+04,3.270130157470703125e-01,1.772156000137329102e+00,4.480119145221563848e-01,0.000000000000000000e+00,1.110000000000000000e+02
0.000000000000000000e+00,1.000000000000000000e+00,0.000000000000000000e+00,5.600000000000000000e+01,1.999900000000000000e+04,2.453351020812988281e-01,1.606837034225463867e+00,3.716867772341781451e-01,0.000000000000000000e+00,1.110000000000000000e+02
1.000000000000000000e+00,0.000000000000000000e+00,0.000000000000000000e+00,4.300000000000000000e+01,2.004200000000000000e+04,1.937320232391357422e-01,1.491613864898681641e+00,3.134055245844109550e-01,0.000000000000000000e+00,1.110000000000000000e+02
0.000000000000000000e+00,1.000000000000000000e+00,0.000000000000000000e+00,6.500000000000000000e+01,2.010700000000000000e+04,2.664389610290527344e-01,1.683907985687255859e+00,4.305914746336555465e-01,0.000000000000000000e+00,1.110000000000000000e+02
1.000000000000000000e+00,1.000000000000000000e+00,1.000000000000000000e+00,5.100000000000000000e+01,2.015800000000000000e+04,3.152198791503906250e-01,1.578073978424072266e+00,2.755621867382829215e-01,0.000000000000000000e+00,1.110000000000000000e+02
0.000000000000000000e+00,1.000000000000000000e+00,0.000000000000000000e+00,6.200000000000000000e+01,2.022000000000000000e+04,3.108980655670166016e-01,2.026618003845214844e+00,7.351171512204207614e-01,0.000000000000000000e+00,1.110000000000000000e+02
0.000000000000000000e+00,1.000000000000000000e+00,0.000000000000000000e+00,5.900000000000000000e+01,2.027900000000000000e+04,4.136238098144531250e-01,2.025806903839111328e+00,6.111366086815477328e-01,0.000000000000000000e+00,1.110000000000000000e+02
1.000000000000000000e+00,1.000000000000000000e+00,1.000000000000000000e+00,5.900000000000000000e+01,2.033800000000000000e+04,2.190320491790771484e-01,1.931259155273437500e+00,7.257259053376511337e-01,0.000000000000000000e+00,1.110000000000000000e+02
0.000000000000000000e+00,1.000000000000000000e+00,0.000000000000000000e+00,6.000000000000000000e+01,2.039800000000000000e+04,2.437710762023925781e-01,1.526830911636352539e+00,2.864047301260153611e-01,0.000000000000000000e+00,1.110000000000000000e+02
0.000000000000000000e+00,1.000000000000000000e+00,0.000000000000000000e+00,5.600000000000000000e+01,2.045400000000000000e+04,2.575008869171142578e-01,1.978446960449218750e+00,7.310748980266817965e-01,0.000000000000000000e+00,1.110000000000000000e+02
0.000000000000000000e+00,1.000000000000000000e+00,0.000000000000000000e+00,5.100000000000000000e+01,2.050500000000000000e+04,3.058559894561767578e-01,1.563675165176391602e+00,2.786579712713357360e-01,0.000000000000000000e+00,1.110000000000000000e+02
1.000000000000000000e+00,1.000000000000000000e+00,1.000000000000000000e+00,5.300000000000000000e+01,2.055800000000000000e+04,4.032800197601318359e-01,1.835102796554565430e+00,4.469966844903845438e-01,0.000000000000000000e+00,1.110000000000000000e+02
0.000000000000000000e+00,1.000000000000000000e+00,0.000000000000000000e+00,5.600000000000000000e+01,2.061400000000000000e+04,2.610280513763427734e-01,1.946094989776611328e+00,7.095037134936341694e-01,0.000000000000000000e+00,1.110000000000000000e+02
0.000000000000000000e+00,1.000000000000000000e+00,0.000000000000000000e+00,5.200000000000000000e+01,2.066600000000000000e+04,3.000640869140625000e-01,1.937155008316040039e+00,6.468015534824216317e-01,0.000000000000000000e+00,1.110000000000000000e+02
0.000000000000000000e+00,1.000000000000000000e+00,0.000000000000000000e+00,5.400000000000000000e+01,2.072000000000000000e+04,2.547950744628906250e-01,1.855726957321166992e+00,6.193409810391110604e-01,0.000000000000000000e+00,1.110000000000000000e+02
1.000000000000000000e+00,1.000000000000000000e+00,1.000000000000000000e+00,5.700000000000000000e+01,2.077700000000000000e+04,3.082079887390136719e-01,1.642962932586669922e+00,3.460328231087085871e-01,0.000000000000000000e+00,1.110000000000000000e+02
0.000000000000000000e+00,1.000000000000000000e+00,0.000000000000000000e+00,5.500000000000000000e+01,2.083200000000000000e+04,2.989790439605712891e-01,1.956790208816528320e+00,6.692674120967070373e-01,0.000000000000000000e+00,1.110000000000000000e+02
1.000000000000000000e+00,1.000000000000000000e+00,1.000000000000000000e+00,6.100000000000000000e+01,2.089300000000000000e+04,3.513550758361816406e-01,1.884451866149902344e+00,5.372609473591898333e-01,0.000000000000000000e+00,1.110000000000000000e+02
1.000000000000000000e+00,1.000000000000000000e+00,1.000000000000000000e+00,5.400000000000000000e+01,2.094700000000000000e+04,4.160840511322021484e-01,1.732328176498413086e+00,3.198878413238144813e-01,0.000000000000000000e+00,1.110000000000000000e+02
1.000000000000000000e+00,1.000000000000000000e+00,1.000000000000000000e+00,5.700000000000000000e+01,2.100400000000000000e+04,3.348209857940673828e-01,1.774428844451904297e+00,4.442493069608562939e-01,0.000000000000000000e+00,1.110000000000000000e+02
1.000000000000000000e+00,1.000000000000000000e+00,1.000000000000000000e+00,5.300000000000000000e+01,2.105700000000000000e+04,3.952162265777587891e-01,2.011005878448486328e+00,6.218124062094207982e-01,0.000000000000000000e+00,1.110000000000000000e+02
0.000000000000000000e+00,1.000000000000000000e+00,0.000000000000000000e+00,6.200000000000000000e+01,2.111900000000000000e+04,2.636270523071289062e-01,1.763111114501953125e+00,5.018075332773788144e-01,0.000000000000000000e+00,1.110000000000000000e+02
0.000000000000000000e+00,1.000000000000000000e+00,0.000000000000000000e+00,5.400000000000000000e+01,2.117300000000000000e+04,3.850259780883789062e-01,2.050443887710571289e+00,6.687785827880536882e-01,0.000000000000000000e+00,1.110000000000000000e+02
1.000000000000000000e+00,1.000000000000000000e+00,1.000000000000000000e+00,6.200000000000000000e+01,2.123500000000000000e+04,2.430510520935058594e-01,1.497601985931396484e+00,2.668663814457218897e-01,0.000000000000000000e+00,1.110000000000000000e+02
1.000000000000000000e+00,1.000000000000000000e+00,1.000000000000000000e+00,6.000000000000000000e+01,2.129500000000000000e+04,4.160611629486083984e-01,1.745208978652954102e+00,3.287668797090064210e-01,0.000000000000000000e+00,1.110000000000000000e+02
1.000000000000000000e+00,1.000000000000000000e+00,1.000000000000000000e+00,5.600000000000000000e+01,2.135100000000000000e+04,3.087921142578125000e-01,1.995193958282470703e+00,7.071686040999720646e-01,0.000000000000000000e+00,1.110000000000000000e+02
0.000000000000000000e+00,1.000000000000000000e+00,0.000000000000000000e+00,5.500000000000000000e+01,2.140600000000000000e+04,2.669150829315185547e-01,1.700536966323852539e+00,4.411828403334501769e-01,0.000000000000000000e+00,1.110000000000000000e+02
0.000000000000000000e+00,1.000000000000000000e+00,0.000000000000000000e+00,5.700000000000000000e+01,2.146300000000000000e+04,2.469022274017333984e-01,1.819662094116210938e+00,5.774420198693586137e-01,0.000000000000000000e+00,1.110000000000000000e+02
0.000000000000000000e+00,1.000000000000000000e+00,0.000000000000000000e+00,6.100000000000000000e+01,2.152400000000000000e+04,2.373170852661132812e-01,1.681802034378051758e+00,4.594445931614604128e-01,0.000000000000000000e+00,1.110000000000000000e+02
1.000000000000000000e+00,1.000000000000000000e+00,1.000000000000000000e+00,5.600000000000000000e+01,2.158000000000000000e+04,4.020559787750244141e-01,1.762567996978759766e+00,3.721891552060527797e-01,0.000000000000000000e+00,1.110000000000000000e+02
1.000000000000000000e+00,1.000000000000000000e+00,1.000000000000000000e+00,5.700000000000000000e+01,2.163700000000000000e+04,3.234319686889648438e-01,1.726987123489379883e+00,4.158815073406816887e-01,0.000000000000000000e+00,1.110000000000000000e+02
0.000000000000000000e+00,1.000000000000000000e+00,0.000000000000000000e+00,5.600000000000000000e+01,2.169300000000000000e+04,2.201869487762451172e-01,1.491924047470092773e+00,2.746620308050791159e-01,0.000000000000000000e+00,1.110000000000000000e+02
0.000000000000000000e+00,1.000000000000000000e+00,0.000000000000000000e+00,5.700000000000000000e+01,2.175000000000000000e+04,3.098769187927246094e-01,1.647300958633422852e+00,3.552567515684382782e-01,0.000000000000000000e+00,1.110000000000000000e+02
1.000000000000000000e+00,1.000000000000000000e+00,1.000000000000000000e+00,6.100000000000000000e+01,2.181100000000000000e+04,3.069350719451904297e-01,1.865859985351562500e+00,5.709980720393164066e-01,0.000000000000000000e+00,1.110000000000000000e+02
