choice, accuracy, solution,  reward, cumulative_reward, rt,  total_trial_time, iti, cp_with_slow_fast, high_val_cue
0.000000000000000000e+00,1.000000000000000000e+00,0.000000000000000000e+00,6.400000000000000000e+01,6.400000000000000000e+01,9.799249172210693359e-01,2.254071950912475586e+00,2.725526564017445863e-01,0.000000000000000000e+00,1.120000000000000000e+02
1.000000000000000000e+00,1.000000000000000000e+00,1.000000000000000000e+00,6.000000000000000000e+01,1.240000000000000000e+02,6.330461502075195312e-01,2.176429033279418945e+00,5.487643978392147126e-01,0.000000000000000000e+00,1.120000000000000000e+02
0.000000000000000000e+00,1.000000000000000000e+00,0.000000000000000000e+00,6.500000000000000000e+01,1.890000000000000000e+02,4.189631938934326172e-01,1.989938974380493164e+00,5.724336481229648221e-01,0.000000000000000000e+00,1.120000000000000000e+02
0.000000000000000000e+00,1.000000000000000000e+00,0.000000000000000000e+00,6.100000000000000000e+01,2.500000000000000000e+02,4.296832084655761719e-01,1.951992034912109375e+00,5.242211562474041742e-01,0.000000000000000000e+00,1.120000000000000000e+02
1.000000000000000000e+00,0.000000000000000000e+00,0.000000000000000000e+00,3.500000000000000000e+01,2.850000000000000000e+02,3.687560558319091797e-01,1.997343063354492188e+00,6.382296318821649717e-01,0.000000000000000000e+00,1.120000000000000000e+02
0.000000000000000000e+00,1.000000000000000000e+00,0.000000000000000000e+00,6.500000000000000000e+01,3.500000000000000000e+02,3.458321094512939453e-01,1.748432874679565430e+00,4.036156669068273195e-01,0.000000000000000000e+00,1.120000000000000000e+02
1.000000000000000000e+00,1.000000000000000000e+00,1.000000000000000000e+00,6.000000000000000000e+01,4.100000000000000000e+02,4.248628616333007812e-01,2.065433025360107422e+00,6.522386467943759314e-01,0.000000000000000000e+00,1.120000000000000000e+02
1.000000000000000000e+00,1.000000000000000000e+00,1.000000000000000000e+00,6.300000000000000000e+01,4.730000000000000000e+02,4.152090549468994141e-01,2.031839847564697266e+00,6.175063917908171218e-01,0.000000000000000000e+00,1.120000000000000000e+02
1.000000000000000000e+00,0.000000000000000000e+00,0.000000000000000000e+00,3.700000000000000000e+01,5.100000000000000000e+02,3.860402107238769531e-01,1.726173162460327148e+00,3.440368342784904110e-01,0.000000000000000000e+00,1.120000000000000000e+02
1.000000000000000000e+00,1.000000000000000000e+00,1.000000000000000000e+00,5.700000000000000000e+01,5.670000000000000000e+02,3.973619937896728516e-01,1.695965766906738281e+00,3.067824883022204907e-01,0.000000000000000000e+00,1.120000000000000000e+02
1.000000000000000000e+00,1.000000000000000000e+00,1.000000000000000000e+00,6.600000000000000000e+01,6.330000000000000000e+02,6.264259815216064453e-01,2.024739980697631836e+00,4.148214032236283155e-01,0.000000000000000000e+00,1.120000000000000000e+02
0.000000000000000000e+00,1.000000000000000000e+00,0.000000000000000000e+00,6.600000000000000000e+01,6.990000000000000000e+02,4.458441734313964844e-01,1.897032976150512695e+00,4.785318680420209692e-01,0.000000000000000000e+00,1.120000000000000000e+02
0.000000000000000000e+00,1.000000000000000000e+00,0.000000000000000000e+00,6.400000000000000000e+01,7.630000000000000000e+02,3.338861465454101562e-01,1.665546894073486328e+00,3.442957323540981052e-01,0.000000000000000000e+00,1.120000000000000000e+02
0.000000000000000000e+00,1.000000000000000000e+00,0.000000000000000000e+00,6.500000000000000000e+01,8.280000000000000000e+02,3.112888336181640625e-01,1.822628974914550781e+00,5.168166580010935540e-01,0.000000000000000000e+00,1.120000000000000000e+02
1.000000000000000000e+00,1.000000000000000000e+00,1.000000000000000000e+00,5.900000000000000000e+01,8.870000000000000000e+02,2.859919071197509766e-01,1.968935012817382812e+00,6.856006482420997639e-01,0.000000000000000000e+00,1.120000000000000000e+02
0.000000000000000000e+00,1.000000000000000000e+00,0.000000000000000000e+00,6.200000000000000000e+01,9.490000000000000000e+02,3.305139541625976562e-01,1.721939802169799805e+00,3.912999954964314075e-01,0.000000000000000000e+00,1.120000000000000000e+02
0.000000000000000000e+00,1.000000000000000000e+00,0.000000000000000000e+00,6.400000000000000000e+01,1.013000000000000000e+03,3.808100223541259766e-01,1.777631998062133789e+00,4.023100165076049506e-01,0.000000000000000000e+00,1.120000000000000000e+02
0.000000000000000000e+00,1.000000000000000000e+00,0.000000000000000000e+00,6.200000000000000000e+01,1.075000000000000000e+03,3.215429782867431641e-01,1.917341947555541992e+00,6.028785035022398153e-01,0.000000000000000000e+00,1.120000000000000000e+02
1.000000000000000000e+00,1.000000000000000000e+00,1.000000000000000000e+00,6.200000000000000000e+01,1.137000000000000000e+03,2.859280109405517578e-01,1.743856906890869141e+00,4.636099528523632829e-01,0.000000000000000000e+00,1.120000000000000000e+02
0.000000000000000000e+00,0.000000000000000000e+00,1.000000000000000000e+00,3.800000000000000000e+01,1.175000000000000000e+03,2.936620712280273438e-01,1.697657108306884766e+00,4.279894674594653114e-01,0.000000000000000000e+00,1.120000000000000000e+02
1.000000000000000000e+00,1.000000000000000000e+00,1.000000000000000000e+00,6.100000000000000000e+01,1.236000000000000000e+03,3.786699771881103516e-01,1.963786125183105469e+00,5.914383548246255895e-01,0.000000000000000000e+00,1.120000000000000000e+02
1.000000000000000000e+00,1.000000000000000000e+00,1.000000000000000000e+00,6.100000000000000000e+01,1.297000000000000000e+03,3.670718669891357422e-01,1.805836915969848633e+00,4.477619638038780603e-01,0.000000000000000000e+00,1.120000000000000000e+02
1.000000000000000000e+00,1.000000000000000000e+00,1.000000000000000000e+00,6.000000000000000000e+01,1.357000000000000000e+03,4.451220035552978516e-01,1.915650129318237305e+00,4.801428174673326166e-01,0.000000000000000000e+00,1.120000000000000000e+02
0.000000000000000000e+00,1.000000000000000000e+00,0.000000000000000000e+00,6.300000000000000000e+01,1.420000000000000000e+03,3.285880088806152344e-01,1.965679883956909180e+00,6.457026020465379545e-01,0.000000000000000000e+00,1.120000000000000000e+02
1.000000000000000000e+00,1.000000000000000000e+00,1.000000000000000000e+00,5.700000000000000000e+01,1.477000000000000000e+03,3.319540023803710938e-01,1.675182104110717773e+00,3.546044590299810562e-01,0.000000000000000000e+00,1.120000000000000000e+02
1.000000000000000000e+00,1.000000000000000000e+00,1.000000000000000000e+00,6.100000000000000000e+01,1.538000000000000000e+03,4.906489849090576172e-01,1.922523975372314453e+00,4.437866817658005503e-01,0.000000000000000000e+00,1.120000000000000000e+02
0.000000000000000000e+00,1.000000000000000000e+00,0.000000000000000000e+00,6.800000000000000000e+01,1.606000000000000000e+03,3.680009841918945312e-01,2.061380147933959961e+00,7.049733870469276908e-01,0.000000000000000000e+00,1.120000000000000000e+02
1.000000000000000000e+00,1.000000000000000000e+00,1.000000000000000000e+00,6.000000000000000000e+01,1.666000000000000000e+03,2.424740791320800781e-01,1.580592870712280273e+00,3.526660924034137889e-01,0.000000000000000000e+00,1.120000000000000000e+02
1.000000000000000000e+00,1.000000000000000000e+00,1.000000000000000000e+00,5.500000000000000000e+01,1.721000000000000000e+03,4.391849040985107422e-01,1.743113040924072266e+00,3.125733648958752275e-01,0.000000000000000000e+00,1.120000000000000000e+02
1.000000000000000000e+00,1.000000000000000000e+00,1.000000000000000000e+00,6.600000000000000000e+01,1.787000000000000000e+03,4.469299316406250000e-01,1.924165964126586914e+00,4.866395975645727012e-01,0.000000000000000000e+00,1.120000000000000000e+02
0.000000000000000000e+00,1.000000000000000000e+00,0.000000000000000000e+00,6.700000000000000000e+01,1.854000000000000000e+03,3.826801776885986328e-01,1.875256061553955078e+00,4.952726507242926623e-01,0.000000000000000000e+00,1.120000000000000000e+02
1.000000000000000000e+00,1.000000000000000000e+00,1.000000000000000000e+00,6.400000000000000000e+01,1.918000000000000000e+03,4.060518741607666016e-01,1.931257963180541992e+00,5.432346561171809141e-01,0.000000000000000000e+00,1.120000000000000000e+02
1.000000000000000000e+00,0.000000000000000000e+00,0.000000000000000000e+00,3.400000000000000000e+01,1.952000000000000000e+03,3.087840080261230469e-01,1.966295003890991211e+00,6.761415412067925956e-01,0.000000000000000000e+00,1.120000000000000000e+02
1.000000000000000000e+00,1.000000000000000000e+00,1.000000000000000000e+00,6.700000000000000000e+01,2.019000000000000000e+03,2.461860179901123047e-01,1.816174983978271484e+00,5.758285610614655159e-01,0.000000000000000000e+00,1.120000000000000000e+02
1.000000000000000000e+00,1.000000000000000000e+00,1.000000000000000000e+00,6.200000000000000000e+01,2.081000000000000000e+03,3.105609416961669922e-01,1.550801038742065430e+00,2.603615082008500226e-01,0.000000000000000000e+00,1.120000000000000000e+02
1.000000000000000000e+00,1.000000000000000000e+00,1.000000000000000000e+00,6.800000000000000000e+01,2.149000000000000000e+03,5.156290531158447266e-01,1.899904012680053711e+00,3.935546020901118380e-01,0.000000000000000000e+00,1.120000000000000000e+02
1.000000000000000000e+00,1.000000000000000000e+00,1.000000000000000000e+00,0.000000000000000000e+00,2.149000000000000000e+03,2.574300765991210938e-02,5.452115058898925781e+00,3.126194047674927812e-01,-2.000000000000000000e+00,1.120000000000000000e+02
1.000000000000000000e+00,1.000000000000000000e+00,1.000000000000000000e+00,6.500000000000000000e+01,2.214000000000000000e+03,3.339002132415771484e-01,1.629411935806274414e+00,3.087605480440127614e-01,0.000000000000000000e+00,1.120000000000000000e+02
1.000000000000000000e+00,1.000000000000000000e+00,1.000000000000000000e+00,6.000000000000000000e+01,2.274000000000000000e+03,4.056558609008789062e-01,1.972948074340820312e+00,5.814993651009492392e-01,0.000000000000000000e+00,1.120000000000000000e+02
0.000000000000000000e+00,1.000000000000000000e+00,0.000000000000000000e+00,6.600000000000000000e+01,2.340000000000000000e+03,3.520109653472900391e-01,1.917500972747802734e+00,5.824487285220391053e-01,0.000000000000000000e+00,1.120000000000000000e+02
1.000000000000000000e+00,1.000000000000000000e+00,1.000000000000000000e+00,6.300000000000000000e+01,2.403000000000000000e+03,3.707771301269531250e-01,1.658565044403076172e+00,2.913629396694610296e-01,0.000000000000000000e+00,1.120000000000000000e+02
0.000000000000000000e+00,0.000000000000000000e+00,1.000000000000000000e+00,4.000000000000000000e+01,2.443000000000000000e+03,5.667281150817871094e-01,2.297866106033325195e+00,7.388860407782784634e-01,1.000000000000000000e+00,1.110000000000000000e+02
1.000000000000000000e+00,1.000000000000000000e+00,1.000000000000000000e+00,5.600000000000000000e+01,2.499000000000000000e+03,3.398661613464355469e-01,2.017087936401367188e+00,6.894169845557600595e-01,0.000000000000000000e+00,1.110000000000000000e+02
0.000000000000000000e+00,1.000000000000000000e+00,0.000000000000000000e+00,5.400000000000000000e+01,2.553000000000000000e+03,2.582349777221679688e-01,1.793405055999755859e+00,5.497121335477708204e-01,0.000000000000000000e+00,1.110000000000000000e+02
1.000000000000000000e+00,1.000000000000000000e+00,1.000000000000000000e+00,6.100000000000000000e+01,2.614000000000000000e+03,3.163301944732666016e-01,1.942109107971191406e+00,6.251728089980599368e-01,0.000000000000000000e+00,1.110000000000000000e+02
1.000000000000000000e+00,1.000000000000000000e+00,1.000000000000000000e+00,5.400000000000000000e+01,2.668000000000000000e+03,2.620801925659179688e-01,1.856930971145629883e+00,5.988456920835854014e-01,0.000000000000000000e+00,1.110000000000000000e+02
0.000000000000000000e+00,1.000000000000000000e+00,0.000000000000000000e+00,5.600000000000000000e+01,2.724000000000000000e+03,3.104579448699951172e-01,1.605240106582641602e+00,3.044755466238818764e-01,0.000000000000000000e+00,1.110000000000000000e+02
0.000000000000000000e+00,1.000000000000000000e+00,0.000000000000000000e+00,5.700000000000000000e+01,2.781000000000000000e+03,4.155259132385253906e-01,2.077635049819946289e+00,6.651245587963139361e-01,0.000000000000000000e+00,1.110000000000000000e+02
0.000000000000000000e+00,1.000000000000000000e+00,0.000000000000000000e+00,5.900000000000000000e+01,2.840000000000000000e+03,3.552360534667968750e-01,1.944944143295288086e+00,5.935836821809929997e-01,0.000000000000000000e+00,1.110000000000000000e+02
1.000000000000000000e+00,0.000000000000000000e+00,0.000000000000000000e+00,4.600000000000000000e+01,2.886000000000000000e+03,3.699989318847656250e-01,2.057662010192871094e+00,7.012045160623604501e-01,0.000000000000000000e+00,1.110000000000000000e+02
0.000000000000000000e+00,1.000000000000000000e+00,0.000000000000000000e+00,5.700000000000000000e+01,2.943000000000000000e+03,3.093831539154052734e-01,1.985718011856079102e+00,6.870452661155632690e-01,0.000000000000000000e+00,1.110000000000000000e+02
1.000000000000000000e+00,1.000000000000000000e+00,1.000000000000000000e+00,6.100000000000000000e+01,3.004000000000000000e+03,3.271310329437255859e-01,1.656909942626953125e+00,3.443834197864151792e-01,0.000000000000000000e+00,1.110000000000000000e+02
0.000000000000000000e+00,1.000000000000000000e+00,0.000000000000000000e+00,6.000000000000000000e+01,3.064000000000000000e+03,4.581851959228515625e-01,2.095556974411010742e+00,6.563473988906030065e-01,0.000000000000000000e+00,1.110000000000000000e+02
1.000000000000000000e+00,1.000000000000000000e+00,1.000000000000000000e+00,5.700000000000000000e+01,3.121000000000000000e+03,2.892680168151855469e-01,1.861150026321411133e+00,5.843509212452870916e-01,0.000000000000000000e+00,1.110000000000000000e+02
0.000000000000000000e+00,1.000000000000000000e+00,0.000000000000000000e+00,6.200000000000000000e+01,3.183000000000000000e+03,2.886569499969482422e-01,1.819514036178588867e+00,5.372976716103095018e-01,0.000000000000000000e+00,1.110000000000000000e+02
0.000000000000000000e+00,1.000000000000000000e+00,0.000000000000000000e+00,6.000000000000000000e+01,3.243000000000000000e+03,3.350551128387451172e-01,1.940272092819213867e+00,6.108995941023251941e-01,0.000000000000000000e+00,1.110000000000000000e+02
0.000000000000000000e+00,1.000000000000000000e+00,0.000000000000000000e+00,5.400000000000000000e+01,3.297000000000000000e+03,2.968270778656005859e-01,1.659352064132690430e+00,3.705754675910826745e-01,0.000000000000000000e+00,1.110000000000000000e+02
0.000000000000000000e+00,1.000000000000000000e+00,0.000000000000000000e+00,5.900000000000000000e+01,3.356000000000000000e+03,3.781991004943847656e-01,2.014620065689086914e+00,6.349845959421001051e-01,0.000000000000000000e+00,1.110000000000000000e+02
1.000000000000000000e+00,1.000000000000000000e+00,1.000000000000000000e+00,5.600000000000000000e+01,3.412000000000000000e+03,2.737939357757568359e-01,1.781049966812133789e+00,5.162507163724475712e-01,0.000000000000000000e+00,1.110000000000000000e+02
0.000000000000000000e+00,1.000000000000000000e+00,0.000000000000000000e+00,5.900000000000000000e+01,3.471000000000000000e+03,3.143069744110107422e-01,1.725693941116333008e+00,4.087982953650180495e-01,0.000000000000000000e+00,1.110000000000000000e+02
1.000000000000000000e+00,1.000000000000000000e+00,1.000000000000000000e+00,5.700000000000000000e+01,3.528000000000000000e+03,4.037439823150634766e-01,1.777134180068969727e+00,3.860253222046740595e-01,0.000000000000000000e+00,1.110000000000000000e+02
0.000000000000000000e+00,1.000000000000000000e+00,0.000000000000000000e+00,6.400000000000000000e+01,3.592000000000000000e+03,3.984718322753906250e-01,1.879138946533203125e+00,4.818171613493451577e-01,0.000000000000000000e+00,1.110000000000000000e+02
0.000000000000000000e+00,1.000000000000000000e+00,0.000000000000000000e+00,6.200000000000000000e+01,3.654000000000000000e+03,3.748610019683837891e-01,1.883913040161132812e+00,5.324032975911487942e-01,0.000000000000000000e+00,1.110000000000000000e+02
1.000000000000000000e+00,1.000000000000000000e+00,1.000000000000000000e+00,5.900000000000000000e+01,3.713000000000000000e+03,3.229670524597167969e-01,1.890512943267822266e+00,5.729659203693696634e-01,0.000000000000000000e+00,1.110000000000000000e+02
1.000000000000000000e+00,1.000000000000000000e+00,1.000000000000000000e+00,5.900000000000000000e+01,3.772000000000000000e+03,3.126530647277832031e-01,2.012927055358886719e+00,7.191568798774372606e-01,0.000000000000000000e+00,1.110000000000000000e+02
1.000000000000000000e+00,1.000000000000000000e+00,1.000000000000000000e+00,5.900000000000000000e+01,3.831000000000000000e+03,3.110969066619873047e-01,2.017117023468017578e+00,7.196952464662047522e-01,0.000000000000000000e+00,1.110000000000000000e+02
0.000000000000000000e+00,1.000000000000000000e+00,0.000000000000000000e+00,5.900000000000000000e+01,3.890000000000000000e+03,3.094689846038818359e-01,1.663262844085693359e+00,3.667473925153032499e-01,0.000000000000000000e+00,1.110000000000000000e+02
1.000000000000000000e+00,0.000000000000000000e+00,0.000000000000000000e+00,4.400000000000000000e+01,3.934000000000000000e+03,4.808769226074218750e-01,2.077378988265991211e+00,5.939404714250098305e-01,0.000000000000000000e+00,1.110000000000000000e+02
1.000000000000000000e+00,0.000000000000000000e+00,0.000000000000000000e+00,4.300000000000000000e+01,3.977000000000000000e+03,2.572529315948486328e-01,1.724771976470947266e+00,4.855946807508186858e-01,0.000000000000000000e+00,1.110000000000000000e+02
0.000000000000000000e+00,1.000000000000000000e+00,0.000000000000000000e+00,6.000000000000000000e+01,4.037000000000000000e+03,3.770370483398437500e-01,1.631222963333129883e+00,2.504662000840466307e-01,0.000000000000000000e+00,1.110000000000000000e+02
0.000000000000000000e+00,1.000000000000000000e+00,0.000000000000000000e+00,6.000000000000000000e+01,4.097000000000000000e+03,5.367209911346435547e-01,2.153883934020996094e+00,6.207153588708241854e-01,0.000000000000000000e+00,1.110000000000000000e+02
1.000000000000000000e+00,1.000000000000000000e+00,1.000000000000000000e+00,6.200000000000000000e+01,4.159000000000000000e+03,3.097898960113525391e-01,1.867383003234863281e+00,5.712849946485070163e-01,0.000000000000000000e+00,1.110000000000000000e+02
0.000000000000000000e+00,0.000000000000000000e+00,1.000000000000000000e+00,4.400000000000000000e+01,4.203000000000000000e+03,3.151810169219970703e-01,1.603016138076782227e+00,2.915927636961128111e-01,0.000000000000000000e+00,1.110000000000000000e+02
1.000000000000000000e+00,1.000000000000000000e+00,1.000000000000000000e+00,6.200000000000000000e+01,4.265000000000000000e+03,5.491921901702880859e-01,2.076847791671752930e+00,5.349737664130881365e-01,0.000000000000000000e+00,1.110000000000000000e+02
1.000000000000000000e+00,1.000000000000000000e+00,1.000000000000000000e+00,5.100000000000000000e+01,4.316000000000000000e+03,4.029600620269775391e-01,1.663981199264526367e+00,2.659248507942842399e-01,0.000000000000000000e+00,1.110000000000000000e+02
1.000000000000000000e+00,1.000000000000000000e+00,1.000000000000000000e+00,6.100000000000000000e+01,4.377000000000000000e+03,5.503520965576171875e-01,2.026889801025390625e+00,4.760463361569710061e-01,0.000000000000000000e+00,1.110000000000000000e+02
0.000000000000000000e+00,1.000000000000000000e+00,0.000000000000000000e+00,5.200000000000000000e+01,4.429000000000000000e+03,4.957809448242187500e-01,1.748656988143920898e+00,2.583150645365800968e-01,0.000000000000000000e+00,1.110000000000000000e+02
1.000000000000000000e+00,1.000000000000000000e+00,1.000000000000000000e+00,5.400000000000000000e+01,4.483000000000000000e+03,5.308399200439453125e-01,2.018772840499877930e+00,4.935715161025870934e-01,0.000000000000000000e+00,1.110000000000000000e+02
1.000000000000000000e+00,0.000000000000000000e+00,0.000000000000000000e+00,4.000000000000000000e+01,4.523000000000000000e+03,4.101409912109375000e-01,1.869960069656372070e+00,4.802863664311702863e-01,0.000000000000000000e+00,1.110000000000000000e+02
0.000000000000000000e+00,1.000000000000000000e+00,0.000000000000000000e+00,5.500000000000000000e+01,4.578000000000000000e+03,5.245349407196044922e-01,2.069746971130371094e+00,5.666890561307464935e-01,0.000000000000000000e+00,1.110000000000000000e+02
1.000000000000000000e+00,1.000000000000000000e+00,1.000000000000000000e+00,5.600000000000000000e+01,4.634000000000000000e+03,3.912510871887207031e-01,1.968581914901733398e+00,5.853649798804858584e-01,0.000000000000000000e+00,1.110000000000000000e+02
0.000000000000000000e+00,1.000000000000000000e+00,0.000000000000000000e+00,5.900000000000000000e+01,4.693000000000000000e+03,3.686919212341308594e-01,1.662175893783569336e+00,2.978950210208008431e-01,0.000000000000000000e+00,1.110000000000000000e+02
1.000000000000000000e+00,1.000000000000000000e+00,1.000000000000000000e+00,5.500000000000000000e+01,4.748000000000000000e+03,5.078289508819580078e-01,2.005205154418945312e+00,5.196412801720591279e-01,0.000000000000000000e+00,1.110000000000000000e+02
1.000000000000000000e+00,1.000000000000000000e+00,1.000000000000000000e+00,6.300000000000000000e+01,4.811000000000000000e+03,3.551678657531738281e-01,1.794540882110595703e+00,4.476479903926203763e-01,0.000000000000000000e+00,1.110000000000000000e+02
0.000000000000000000e+00,1.000000000000000000e+00,0.000000000000000000e+00,5.700000000000000000e+01,4.868000000000000000e+03,5.918669700622558594e-01,2.128998994827270508e+00,5.599524025064968047e-01,0.000000000000000000e+00,1.110000000000000000e+02
0.000000000000000000e+00,0.000000000000000000e+00,1.000000000000000000e+00,4.100000000000000000e+01,4.909000000000000000e+03,4.056890010833740234e-01,1.834490060806274414e+00,4.446324214589004176e-01,1.000000000000000000e+00,1.120000000000000000e+02
1.000000000000000000e+00,1.000000000000000000e+00,1.000000000000000000e+00,5.700000000000000000e+01,4.966000000000000000e+03,4.644381999969482422e-01,1.986593961715698242e+00,5.312069519896498448e-01,0.000000000000000000e+00,1.120000000000000000e+02
1.000000000000000000e+00,1.000000000000000000e+00,1.000000000000000000e+00,6.200000000000000000e+01,5.028000000000000000e+03,3.672180175781250000e-01,1.839794874191284180e+00,4.878154390278579555e-01,0.000000000000000000e+00,1.120000000000000000e+02
1.000000000000000000e+00,1.000000000000000000e+00,1.000000000000000000e+00,6.300000000000000000e+01,5.091000000000000000e+03,3.872342109680175781e-01,1.851274013519287109e+00,4.724974470742469568e-01,0.000000000000000000e+00,1.120000000000000000e+02
1.000000000000000000e+00,1.000000000000000000e+00,1.000000000000000000e+00,5.500000000000000000e+01,5.146000000000000000e+03,3.372740745544433594e-01,1.795450925827026367e+00,4.680234569116639154e-01,0.000000000000000000e+00,1.120000000000000000e+02
1.000000000000000000e+00,1.000000000000000000e+00,1.000000000000000000e+00,5.600000000000000000e+01,5.202000000000000000e+03,3.443400859832763672e-01,1.691736936569213867e+00,3.599781285529740082e-01,0.000000000000000000e+00,1.120000000000000000e+02
1.000000000000000000e+00,1.000000000000000000e+00,1.000000000000000000e+00,5.600000000000000000e+01,5.258000000000000000e+03,4.851109981536865234e-01,2.081765174865722656e+00,6.082481474968592927e-01,0.000000000000000000e+00,1.120000000000000000e+02
0.000000000000000000e+00,1.000000000000000000e+00,0.000000000000000000e+00,6.100000000000000000e+01,5.319000000000000000e+03,3.728320598602294922e-01,1.638026952743530273e+00,2.799611916635896813e-01,0.000000000000000000e+00,1.120000000000000000e+02
0.000000000000000000e+00,1.000000000000000000e+00,0.000000000000000000e+00,6.000000000000000000e+01,5.379000000000000000e+03,4.555389881134033203e-01,2.011748075485229492e+00,5.748583233442068341e-01,0.000000000000000000e+00,1.120000000000000000e+02
0.000000000000000000e+00,1.000000000000000000e+00,0.000000000000000000e+00,5.600000000000000000e+01,5.435000000000000000e+03,3.509559631347656250e-01,2.023159980773925781e+00,6.813236405529216055e-01,0.000000000000000000e+00,1.120000000000000000e+02
1.000000000000000000e+00,1.000000000000000000e+00,1.000000000000000000e+00,5.200000000000000000e+01,5.487000000000000000e+03,3.213469982147216797e-01,1.973793029785156250e+00,6.718734257162073398e-01,0.000000000000000000e+00,1.120000000000000000e+02
0.000000000000000000e+00,1.000000000000000000e+00,0.000000000000000000e+00,5.600000000000000000e+01,5.543000000000000000e+03,3.090748786926269531e-01,1.958220958709716797e+00,6.635497335873502545e-01,0.000000000000000000e+00,1.120000000000000000e+02
0.000000000000000000e+00,0.000000000000000000e+00,1.000000000000000000e+00,3.600000000000000000e+01,5.579000000000000000e+03,3.351762294769287109e-01,1.780620098114013672e+00,4.610806721798496599e-01,0.000000000000000000e+00,1.120000000000000000e+02
1.000000000000000000e+00,1.000000000000000000e+00,1.000000000000000000e+00,6.000000000000000000e+01,5.639000000000000000e+03,4.978659152984619141e-01,1.755703926086425781e+00,2.670601031683151882e-01,0.000000000000000000e+00,1.120000000000000000e+02
0.000000000000000000e+00,1.000000000000000000e+00,0.000000000000000000e+00,5.600000000000000000e+01,5.695000000000000000e+03,4.452731609344482422e-01,1.886448860168457031e+00,4.367493039516279207e-01,0.000000000000000000e+00,1.120000000000000000e+02
0.000000000000000000e+00,1.000000000000000000e+00,0.000000000000000000e+00,6.400000000000000000e+01,5.759000000000000000e+03,3.629968166351318359e-01,1.833413124084472656e+00,4.701946160323567936e-01,0.000000000000000000e+00,1.120000000000000000e+02
0.000000000000000000e+00,1.000000000000000000e+00,0.000000000000000000e+00,5.600000000000000000e+01,5.815000000000000000e+03,3.567171096801757812e-01,1.804992914199829102e+00,4.586238956088737884e-01,0.000000000000000000e+00,1.120000000000000000e+02
1.000000000000000000e+00,1.000000000000000000e+00,1.000000000000000000e+00,5.600000000000000000e+01,5.871000000000000000e+03,3.928000926971435547e-01,2.000467061996459961e+00,6.256491676597348839e-01,0.000000000000000000e+00,1.120000000000000000e+02
0.000000000000000000e+00,1.000000000000000000e+00,0.000000000000000000e+00,6.000000000000000000e+01,5.931000000000000000e+03,2.898638248443603516e-01,1.997765064239501953e+00,7.234124250827866920e-01,0.000000000000000000e+00,1.120000000000000000e+02
0.000000000000000000e+00,1.000000000000000000e+00,0.000000000000000000e+00,6.000000000000000000e+01,5.991000000000000000e+03,3.500189781188964844e-01,1.704849958419799805e+00,3.620222202854060378e-01,0.000000000000000000e+00,1.120000000000000000e+02
0.000000000000000000e+00,1.000000000000000000e+00,0.000000000000000000e+00,5.600000000000000000e+01,6.047000000000000000e+03,5.429689884185791016e-01,1.859892129898071289e+00,3.386937216936449224e-01,0.000000000000000000e+00,1.120000000000000000e+02
1.000000000000000000e+00,1.000000000000000000e+00,1.000000000000000000e+00,0.000000000000000000e+00,6.047000000000000000e+03,1.112394094467163086e+00,2.867651939392089844e+00,7.393539565328148822e-01,-1.000000000000000000e+00,1.120000000000000000e+02
1.000000000000000000e+00,1.000000000000000000e+00,1.000000000000000000e+00,5.600000000000000000e+01,6.103000000000000000e+03,3.959031105041503906e-01,2.065963029861450195e+00,6.721299851386717261e-01,0.000000000000000000e+00,1.120000000000000000e+02
0.000000000000000000e+00,1.000000000000000000e+00,0.000000000000000000e+00,5.600000000000000000e+01,6.159000000000000000e+03,3.342177867889404297e-01,1.824279069900512695e+00,4.966983538815435972e-01,0.000000000000000000e+00,1.120000000000000000e+02
1.000000000000000000e+00,1.000000000000000000e+00,1.000000000000000000e+00,6.000000000000000000e+01,6.219000000000000000e+03,3.316600322723388672e-01,1.780616044998168945e+00,4.607534559199372715e-01,0.000000000000000000e+00,1.120000000000000000e+02
0.000000000000000000e+00,1.000000000000000000e+00,0.000000000000000000e+00,6.000000000000000000e+01,6.279000000000000000e+03,3.543570041656494141e-01,2.001113891601562500e+00,6.617398012510400385e-01,0.000000000000000000e+00,1.120000000000000000e+02
1.000000000000000000e+00,1.000000000000000000e+00,1.000000000000000000e+00,5.600000000000000000e+01,6.335000000000000000e+03,3.764069080352783203e-01,2.002136230468750000e+00,6.473121917279622828e-01,0.000000000000000000e+00,1.120000000000000000e+02
0.000000000000000000e+00,1.000000000000000000e+00,0.000000000000000000e+00,5.400000000000000000e+01,6.389000000000000000e+03,2.925550937652587891e-01,1.701852798461914062e+00,4.328103026564240619e-01,0.000000000000000000e+00,1.120000000000000000e+02
0.000000000000000000e+00,1.000000000000000000e+00,0.000000000000000000e+00,5.600000000000000000e+01,6.445000000000000000e+03,4.078621864318847656e-01,1.786350965499877930e+00,3.859304571577265031e-01,0.000000000000000000e+00,1.120000000000000000e+02
0.000000000000000000e+00,1.000000000000000000e+00,0.000000000000000000e+00,5.700000000000000000e+01,6.502000000000000000e+03,4.016120433807373047e-01,1.907967090606689453e+00,5.105269425329843624e-01,0.000000000000000000e+00,1.120000000000000000e+02
0.000000000000000000e+00,1.000000000000000000e+00,0.000000000000000000e+00,5.600000000000000000e+01,6.558000000000000000e+03,2.936801910400390625e-01,1.605063915252685547e+00,3.325050771072364242e-01,0.000000000000000000e+00,1.120000000000000000e+02
0.000000000000000000e+00,1.000000000000000000e+00,0.000000000000000000e+00,6.000000000000000000e+01,6.618000000000000000e+03,3.900442123413085938e-01,1.748878002166748047e+00,3.647501166650957694e-01,0.000000000000000000e+00,1.120000000000000000e+02
1.000000000000000000e+00,1.000000000000000000e+00,1.000000000000000000e+00,6.200000000000000000e+01,6.680000000000000000e+03,3.997750282287597656e-01,2.079715013504028320e+00,6.942090044567387208e-01,0.000000000000000000e+00,1.120000000000000000e+02
1.000000000000000000e+00,1.000000000000000000e+00,1.000000000000000000e+00,6.000000000000000000e+01,6.740000000000000000e+03,3.684689998626708984e-01,1.656570911407470703e+00,3.012663894153182476e-01,0.000000000000000000e+00,1.120000000000000000e+02
1.000000000000000000e+00,1.000000000000000000e+00,1.000000000000000000e+00,6.200000000000000000e+01,6.802000000000000000e+03,4.629042148590087891e-01,2.037483930587768555e+00,5.718482660316281940e-01,0.000000000000000000e+00,1.120000000000000000e+02
1.000000000000000000e+00,0.000000000000000000e+00,0.000000000000000000e+00,3.000000000000000000e+01,6.832000000000000000e+03,4.146351814270019531e-01,1.792277097702026367e+00,3.810902870845161439e-01,1.000000000000000000e+00,1.110000000000000000e+02
1.000000000000000000e+00,1.000000000000000000e+00,1.000000000000000000e+00,6.700000000000000000e+01,6.899000000000000000e+03,4.104199409484863281e-01,1.914880037307739258e+00,5.292437643565546246e-01,0.000000000000000000e+00,1.110000000000000000e+02
0.000000000000000000e+00,1.000000000000000000e+00,0.000000000000000000e+00,6.500000000000000000e+01,6.964000000000000000e+03,4.037790298461914062e-01,2.102166891098022461e+00,7.146349478569467006e-01,0.000000000000000000e+00,1.110000000000000000e+02
1.000000000000000000e+00,1.000000000000000000e+00,1.000000000000000000e+00,6.000000000000000000e+01,7.024000000000000000e+03,2.938609123229980469e-01,1.702025175094604492e+00,4.336468469602339781e-01,0.000000000000000000e+00,1.110000000000000000e+02
0.000000000000000000e+00,1.000000000000000000e+00,0.000000000000000000e+00,6.400000000000000000e+01,7.088000000000000000e+03,3.232500553131103516e-01,1.778806924819946289e+00,4.625359171356517307e-01,0.000000000000000000e+00,1.110000000000000000e+02
0.000000000000000000e+00,1.000000000000000000e+00,0.000000000000000000e+00,5.700000000000000000e+01,7.145000000000000000e+03,3.906331062316894531e-01,2.055611133575439453e+00,6.846550926475196697e-01,0.000000000000000000e+00,1.110000000000000000e+02
0.000000000000000000e+00,1.000000000000000000e+00,0.000000000000000000e+00,6.700000000000000000e+01,7.212000000000000000e+03,2.860510349273681641e-01,1.866989850997924805e+00,5.851940626486038521e-01,0.000000000000000000e+00,1.110000000000000000e+02
1.000000000000000000e+00,1.000000000000000000e+00,1.000000000000000000e+00,6.000000000000000000e+01,7.272000000000000000e+03,3.654780387878417969e-01,1.704182147979736328e+00,3.396849245219513147e-01,0.000000000000000000e+00,1.110000000000000000e+02
0.000000000000000000e+00,1.000000000000000000e+00,0.000000000000000000e+00,6.400000000000000000e+01,7.336000000000000000e+03,4.974579811096191406e-01,2.190397977828979492e+00,6.962274373544253825e-01,0.000000000000000000e+00,1.110000000000000000e+02
1.000000000000000000e+00,1.000000000000000000e+00,1.000000000000000000e+00,6.300000000000000000e+01,7.399000000000000000e+03,3.163220882415771484e-01,1.941083908081054688e+00,6.376637214493321437e-01,0.000000000000000000e+00,1.110000000000000000e+02
0.000000000000000000e+00,1.000000000000000000e+00,0.000000000000000000e+00,6.900000000000000000e+01,7.468000000000000000e+03,2.323451042175292969e-01,1.551388025283813477e+00,3.228043311836096274e-01,0.000000000000000000e+00,1.110000000000000000e+02
1.000000000000000000e+00,1.000000000000000000e+00,1.000000000000000000e+00,6.500000000000000000e+01,7.533000000000000000e+03,4.353621006011962891e-01,2.043013095855712891e+00,6.155785782448053300e-01,0.000000000000000000e+00,1.110000000000000000e+02
1.000000000000000000e+00,1.000000000000000000e+00,1.000000000000000000e+00,6.300000000000000000e+01,7.596000000000000000e+03,4.684870243072509766e-01,2.070365905761718750e+00,6.027253954599376407e-01,0.000000000000000000e+00,1.110000000000000000e+02
1.000000000000000000e+00,1.000000000000000000e+00,1.000000000000000000e+00,6.600000000000000000e+01,7.662000000000000000e+03,3.628230094909667969e-01,2.006532192230224609e+00,6.426358297458956148e-01,0.000000000000000000e+00,1.110000000000000000e+02
0.000000000000000000e+00,1.000000000000000000e+00,0.000000000000000000e+00,5.900000000000000000e+01,7.721000000000000000e+03,2.369539737701416016e-01,1.889067888259887695e+00,6.650912938471051916e-01,0.000000000000000000e+00,1.110000000000000000e+02
0.000000000000000000e+00,1.000000000000000000e+00,0.000000000000000000e+00,6.800000000000000000e+01,7.789000000000000000e+03,2.709708213806152344e-01,1.883025884628295898e+00,6.149098825850697336e-01,0.000000000000000000e+00,1.110000000000000000e+02
0.000000000000000000e+00,1.000000000000000000e+00,0.000000000000000000e+00,6.700000000000000000e+01,7.856000000000000000e+03,2.603600025177001953e-01,1.830286026000976562e+00,5.952913864901894225e-01,0.000000000000000000e+00,1.110000000000000000e+02
1.000000000000000000e+00,1.000000000000000000e+00,1.000000000000000000e+00,6.900000000000000000e+01,7.925000000000000000e+03,3.371770381927490234e-01,1.671876907348632812e+00,3.508189737481750559e-01,0.000000000000000000e+00,1.110000000000000000e+02
0.000000000000000000e+00,1.000000000000000000e+00,0.000000000000000000e+00,6.800000000000000000e+01,7.993000000000000000e+03,4.748191833496093750e-01,2.135417222976684570e+00,6.693477512035601595e-01,0.000000000000000000e+00,1.110000000000000000e+02
1.000000000000000000e+00,1.000000000000000000e+00,1.000000000000000000e+00,6.500000000000000000e+01,8.058000000000000000e+03,3.415668010711669922e-01,1.828076839447021484e+00,4.976825470087195002e-01,0.000000000000000000e+00,1.110000000000000000e+02
1.000000000000000000e+00,1.000000000000000000e+00,1.000000000000000000e+00,7.000000000000000000e+01,8.128000000000000000e+03,2.979831695556640625e-01,2.021386861801147461e+00,7.355738214761877725e-01,0.000000000000000000e+00,1.110000000000000000e+02
1.000000000000000000e+00,1.000000000000000000e+00,1.000000000000000000e+00,6.600000000000000000e+01,8.194000000000000000e+03,3.467071056365966797e-01,2.084721088409423828e+00,7.370265657768461098e-01,0.000000000000000000e+00,1.110000000000000000e+02
0.000000000000000000e+00,1.000000000000000000e+00,0.000000000000000000e+00,6.500000000000000000e+01,8.259000000000000000e+03,3.284428119659423828e-01,2.045964956283569336e+00,7.166118731692376898e-01,0.000000000000000000e+00,1.110000000000000000e+02
1.000000000000000000e+00,1.000000000000000000e+00,1.000000000000000000e+00,6.600000000000000000e+01,8.325000000000000000e+03,2.705140113830566406e-01,1.914901971817016602e+00,6.481678175215175308e-01,0.000000000000000000e+00,1.110000000000000000e+02
1.000000000000000000e+00,1.000000000000000000e+00,1.000000000000000000e+00,6.900000000000000000e+01,8.394000000000000000e+03,3.175711631774902344e-01,1.777619838714599609e+00,4.760275481141382770e-01,0.000000000000000000e+00,1.110000000000000000e+02
0.000000000000000000e+00,1.000000000000000000e+00,0.000000000000000000e+00,6.500000000000000000e+01,8.459000000000000000e+03,3.472769260406494141e-01,1.688625097274780273e+00,3.481971699965857314e-01,0.000000000000000000e+00,1.110000000000000000e+02
1.000000000000000000e+00,1.000000000000000000e+00,1.000000000000000000e+00,6.500000000000000000e+01,8.524000000000000000e+03,3.719480037689208984e-01,2.032916069030761719e+00,6.808354743551234822e-01,0.000000000000000000e+00,1.110000000000000000e+02
0.000000000000000000e+00,0.000000000000000000e+00,1.000000000000000000e+00,3.500000000000000000e+01,8.559000000000000000e+03,1.976659297943115234e-01,1.454450845718383789e+00,2.690912335220931872e-01,0.000000000000000000e+00,1.110000000000000000e+02
1.000000000000000000e+00,1.000000000000000000e+00,1.000000000000000000e+00,6.500000000000000000e+01,8.624000000000000000e+03,3.931438922882080078e-01,1.899986028671264648e+00,5.189087017771689681e-01,0.000000000000000000e+00,1.110000000000000000e+02
1.000000000000000000e+00,1.000000000000000000e+00,1.000000000000000000e+00,6.600000000000000000e+01,8.690000000000000000e+03,3.131251335144042969e-01,1.993244171142578125e+00,6.787324142916848491e-01,0.000000000000000000e+00,1.110000000000000000e+02
0.000000000000000000e+00,1.000000000000000000e+00,0.000000000000000000e+00,6.400000000000000000e+01,8.754000000000000000e+03,3.039278984069824219e-01,2.018334865570068359e+00,7.304363842682455310e-01,0.000000000000000000e+00,1.110000000000000000e+02
0.000000000000000000e+00,1.000000000000000000e+00,0.000000000000000000e+00,6.200000000000000000e+01,8.816000000000000000e+03,3.153491020202636719e-01,1.930122137069702148e+00,6.273884490123118329e-01,0.000000000000000000e+00,1.110000000000000000e+02
1.000000000000000000e+00,1.000000000000000000e+00,1.000000000000000000e+00,6.700000000000000000e+01,8.883000000000000000e+03,2.891080379486083984e-01,1.768012046813964844e+00,4.956256508802381888e-01,0.000000000000000000e+00,1.110000000000000000e+02
1.000000000000000000e+00,0.000000000000000000e+00,0.000000000000000000e+00,4.400000000000000000e+01,8.927000000000000000e+03,3.993918895721435547e-01,1.715095043182373047e+00,3.276772447125057552e-01,1.000000000000000000e+00,1.120000000000000000e+02
1.000000000000000000e+00,1.000000000000000000e+00,1.000000000000000000e+00,6.300000000000000000e+01,8.990000000000000000e+03,4.758670330047607422e-01,1.888669013977050781e+00,4.329406166556887259e-01,0.000000000000000000e+00,1.120000000000000000e+02
1.000000000000000000e+00,1.000000000000000000e+00,1.000000000000000000e+00,5.900000000000000000e+01,9.049000000000000000e+03,3.679199218750000000e-01,2.024832963943481445e+00,6.576192467348562776e-01,0.000000000000000000e+00,1.120000000000000000e+02
1.000000000000000000e+00,1.000000000000000000e+00,1.000000000000000000e+00,5.600000000000000000e+01,9.105000000000000000e+03,2.723660469055175781e-01,1.702035903930664062e+00,4.432984382481996444e-01,0.000000000000000000e+00,1.120000000000000000e+02
1.000000000000000000e+00,1.000000000000000000e+00,1.000000000000000000e+00,5.900000000000000000e+01,9.164000000000000000e+03,3.944380283355712891e-01,1.896775007247924805e+00,5.067637000578210094e-01,0.000000000000000000e+00,1.120000000000000000e+02
1.000000000000000000e+00,1.000000000000000000e+00,1.000000000000000000e+00,6.200000000000000000e+01,9.226000000000000000e+03,3.464379310607910156e-01,2.005406856536865234e+00,6.620892743226634014e-01,0.000000000000000000e+00,1.120000000000000000e+02
1.000000000000000000e+00,1.000000000000000000e+00,1.000000000000000000e+00,6.300000000000000000e+01,9.289000000000000000e+03,2.835221290588378906e-01,1.679564952850341797e+00,4.086152526092541870e-01,0.000000000000000000e+00,1.120000000000000000e+02
1.000000000000000000e+00,1.000000000000000000e+00,1.000000000000000000e+00,5.700000000000000000e+01,9.346000000000000000e+03,4.032618999481201172e-01,1.953866958618164062e+00,5.624310004809841557e-01,0.000000000000000000e+00,1.120000000000000000e+02
1.000000000000000000e+00,1.000000000000000000e+00,1.000000000000000000e+00,6.000000000000000000e+01,9.406000000000000000e+03,2.923018932342529297e-01,1.744299888610839844e+00,4.735608399489601994e-01,0.000000000000000000e+00,1.120000000000000000e+02
1.000000000000000000e+00,1.000000000000000000e+00,1.000000000000000000e+00,5.900000000000000000e+01,9.465000000000000000e+03,3.723800182342529297e-01,1.967571020126342773e+00,6.077215900268941873e-01,0.000000000000000000e+00,1.120000000000000000e+02
0.000000000000000000e+00,1.000000000000000000e+00,0.000000000000000000e+00,5.900000000000000000e+01,9.524000000000000000e+03,3.647520542144775391e-01,1.717139005661010742e+00,3.585380813774441400e-01,0.000000000000000000e+00,1.120000000000000000e+02
1.000000000000000000e+00,1.000000000000000000e+00,1.000000000000000000e+00,5.700000000000000000e+01,9.581000000000000000e+03,4.951550960540771484e-01,1.974507093429565430e+00,4.829881969769764805e-01,0.000000000000000000e+00,1.120000000000000000e+02
0.000000000000000000e+00,1.000000000000000000e+00,0.000000000000000000e+00,6.200000000000000000e+01,9.643000000000000000e+03,3.378839492797851562e-01,1.972406864166259766e+00,6.386473500695151184e-01,0.000000000000000000e+00,1.120000000000000000e+02
0.000000000000000000e+00,1.000000000000000000e+00,0.000000000000000000e+00,5.600000000000000000e+01,9.699000000000000000e+03,2.993538379669189453e-01,1.904216051101684570e+00,6.096799437365602037e-01,0.000000000000000000e+00,1.120000000000000000e+02
1.000000000000000000e+00,1.000000000000000000e+00,1.000000000000000000e+00,6.100000000000000000e+01,9.760000000000000000e+03,3.313660621643066406e-01,1.713230133056640625e+00,3.898412307416192490e-01,0.000000000000000000e+00,1.120000000000000000e+02
0.000000000000000000e+00,1.000000000000000000e+00,0.000000000000000000e+00,6.500000000000000000e+01,9.825000000000000000e+03,3.337719440460205078e-01,1.954396009445190430e+00,6.276808902664179346e-01,0.000000000000000000e+00,1.120000000000000000e+02
1.000000000000000000e+00,1.000000000000000000e+00,1.000000000000000000e+00,6.100000000000000000e+01,9.886000000000000000e+03,3.127980232238769531e-01,1.893244981765747070e+00,5.874613322896469203e-01,0.000000000000000000e+00,1.120000000000000000e+02
1.000000000000000000e+00,1.000000000000000000e+00,1.000000000000000000e+00,5.600000000000000000e+01,9.942000000000000000e+03,3.548989295959472656e-01,1.963748931884765625e+00,6.179272216699618347e-01,0.000000000000000000e+00,1.120000000000000000e+02
0.000000000000000000e+00,1.000000000000000000e+00,0.000000000000000000e+00,5.900000000000000000e+01,1.000100000000000000e+04,2.603280544281005859e-01,1.976608991622924805e+00,7.278404191467382489e-01,0.000000000000000000e+00,1.120000000000000000e+02
1.000000000000000000e+00,1.000000000000000000e+00,1.000000000000000000e+00,6.000000000000000000e+01,1.006100000000000000e+04,2.707200050354003906e-01,1.583786964416503906e+00,3.287685629248882080e-01,0.000000000000000000e+00,1.120000000000000000e+02
0.000000000000000000e+00,1.000000000000000000e+00,0.000000000000000000e+00,5.400000000000000000e+01,1.011500000000000000e+04,3.923599720001220703e-01,1.759833097457885742e+00,3.886091098317428494e-01,0.000000000000000000e+00,1.120000000000000000e+02
0.000000000000000000e+00,1.000000000000000000e+00,0.000000000000000000e+00,6.700000000000000000e+01,1.018200000000000000e+04,4.228820800781250000e-01,1.946500778198242188e+00,5.350376779583575493e-01,0.000000000000000000e+00,1.120000000000000000e+02
1.000000000000000000e+00,0.000000000000000000e+00,0.000000000000000000e+00,3.900000000000000000e+01,1.022100000000000000e+04,5.258839130401611328e-01,1.813767910003662109e+00,2.991286396554741489e-01,0.000000000000000000e+00,1.120000000000000000e+02
0.000000000000000000e+00,1.000000000000000000e+00,0.000000000000000000e+00,6.000000000000000000e+01,1.028100000000000000e+04,5.053069591522216797e-01,2.212707996368408203e+00,7.114837331338534909e-01,0.000000000000000000e+00,1.120000000000000000e+02
1.000000000000000000e+00,1.000000000000000000e+00,1.000000000000000000e+00,6.400000000000000000e+01,1.034500000000000000e+04,2.763640880584716797e-01,1.987715005874633789e+00,7.325985269767727459e-01,0.000000000000000000e+00,1.120000000000000000e+02
0.000000000000000000e+00,0.000000000000000000e+00,1.000000000000000000e+00,4.100000000000000000e+01,1.038600000000000000e+04,2.554938793182373047e-01,1.894083023071289062e+00,6.435124076663334414e-01,0.000000000000000000e+00,1.120000000000000000e+02
1.000000000000000000e+00,1.000000000000000000e+00,1.000000000000000000e+00,6.000000000000000000e+01,1.044600000000000000e+04,3.202180862426757812e-01,1.873180150985717773e+00,5.669017287747066813e-01,0.000000000000000000e+00,1.120000000000000000e+02
0.000000000000000000e+00,1.000000000000000000e+00,0.000000000000000000e+00,5.700000000000000000e+01,1.050300000000000000e+04,3.479089736938476562e-01,1.626919984817504883e+00,2.774614206006545958e-01,0.000000000000000000e+00,1.120000000000000000e+02
1.000000000000000000e+00,1.000000000000000000e+00,1.000000000000000000e+00,6.300000000000000000e+01,1.056600000000000000e+04,5.042901039123535156e-01,1.883868932723999023e+00,3.946436882871455776e-01,0.000000000000000000e+00,1.120000000000000000e+02
0.000000000000000000e+00,1.000000000000000000e+00,0.000000000000000000e+00,5.600000000000000000e+01,1.062200000000000000e+04,4.010131359100341797e-01,1.998209953308105469e+00,6.093738356987399296e-01,0.000000000000000000e+00,1.120000000000000000e+02
0.000000000000000000e+00,1.000000000000000000e+00,0.000000000000000000e+00,6.100000000000000000e+01,1.068300000000000000e+04,4.161310195922851562e-01,2.003802061080932617e+00,5.965941747058336464e-01,0.000000000000000000e+00,1.120000000000000000e+02
1.000000000000000000e+00,0.000000000000000000e+00,0.000000000000000000e+00,3.400000000000000000e+01,1.071700000000000000e+04,4.671509265899658203e-01,2.072814941406250000e+00,6.194827068746988630e-01,1.000000000000000000e+00,1.110000000000000000e+02
1.000000000000000000e+00,1.000000000000000000e+00,1.000000000000000000e+00,6.600000000000000000e+01,1.078300000000000000e+04,3.459339141845703125e-01,1.733821153640747070e+00,3.869654332792019091e-01,0.000000000000000000e+00,1.110000000000000000e+02
1.000000000000000000e+00,1.000000000000000000e+00,1.000000000000000000e+00,6.200000000000000000e+01,1.084500000000000000e+04,4.406068325042724609e-01,2.009256839752197266e+00,5.793948498046068707e-01,0.000000000000000000e+00,1.110000000000000000e+02
0.000000000000000000e+00,1.000000000000000000e+00,0.000000000000000000e+00,6.800000000000000000e+01,1.091300000000000000e+04,4.196929931640625000e-01,2.113087177276611328e+00,7.091131019110374911e-01,0.000000000000000000e+00,1.110000000000000000e+02
0.000000000000000000e+00,1.000000000000000000e+00,0.000000000000000000e+00,6.500000000000000000e+01,1.097800000000000000e+04,4.230711460113525391e-01,1.680922985076904297e+00,2.739110437905243889e-01,0.000000000000000000e+00,1.110000000000000000e+02
0.000000000000000000e+00,1.000000000000000000e+00,0.000000000000000000e+00,6.600000000000000000e+01,1.104400000000000000e+04,6.208078861236572266e-01,2.138633966445922852e+00,5.290380076558296452e-01,0.000000000000000000e+00,1.110000000000000000e+02
1.000000000000000000e+00,1.000000000000000000e+00,1.000000000000000000e+00,6.400000000000000000e+01,1.110800000000000000e+04,4.085779190063476562e-01,1.717622041702270508e+00,3.302909097086220158e-01,0.000000000000000000e+00,1.110000000000000000e+02
0.000000000000000000e+00,1.000000000000000000e+00,0.000000000000000000e+00,6.200000000000000000e+01,1.117000000000000000e+04,5.170059204101562500e-01,2.204967021942138672e+00,7.016182323210264915e-01,0.000000000000000000e+00,1.110000000000000000e+02
1.000000000000000000e+00,1.000000000000000000e+00,1.000000000000000000e+00,6.600000000000000000e+01,1.123600000000000000e+04,3.123800754547119141e-01,1.989589929580688477e+00,6.746375517867833072e-01,0.000000000000000000e+00,1.110000000000000000e+02
1.000000000000000000e+00,1.000000000000000000e+00,1.000000000000000000e+00,6.900000000000000000e+01,1.130500000000000000e+04,4.081661701202392578e-01,2.037899971008300781e+00,6.459911498686590203e-01,0.000000000000000000e+00,1.110000000000000000e+02
0.000000000000000000e+00,1.000000000000000000e+00,0.000000000000000000e+00,6.500000000000000000e+01,1.137000000000000000e+04,4.478278160095214844e-01,1.862877130508422852e+00,4.258360164219999189e-01,0.000000000000000000e+00,1.110000000000000000e+02
1.000000000000000000e+00,1.000000000000000000e+00,1.000000000000000000e+00,6.400000000000000000e+01,1.143400000000000000e+04,4.802639484405517578e-01,1.769103050231933594e+00,2.951415243571728908e-01,0.000000000000000000e+00,1.110000000000000000e+02
0.000000000000000000e+00,1.000000000000000000e+00,0.000000000000000000e+00,6.300000000000000000e+01,1.149700000000000000e+04,4.386019706726074219e-01,1.877708911895751953e+00,4.560885022393908472e-01,0.000000000000000000e+00,1.110000000000000000e+02
1.000000000000000000e+00,1.000000000000000000e+00,1.000000000000000000e+00,6.400000000000000000e+01,1.156100000000000000e+04,3.903481960296630859e-01,1.989401102066040039e+00,6.120707874598753095e-01,0.000000000000000000e+00,1.110000000000000000e+02
1.000000000000000000e+00,1.000000000000000000e+00,1.000000000000000000e+00,6.800000000000000000e+01,1.162900000000000000e+04,3.751020431518554688e-01,1.651162862777709961e+00,2.969878150327858735e-01,0.000000000000000000e+00,1.110000000000000000e+02
1.000000000000000000e+00,1.000000000000000000e+00,1.000000000000000000e+00,6.500000000000000000e+01,1.169400000000000000e+04,4.621798992156982422e-01,2.108206033706665039e+00,6.548715811480941840e-01,0.000000000000000000e+00,1.110000000000000000e+02
1.000000000000000000e+00,1.000000000000000000e+00,1.000000000000000000e+00,6.500000000000000000e+01,1.175900000000000000e+04,3.195700645446777344e-01,1.817302227020263672e+00,5.057577380224023145e-01,0.000000000000000000e+00,1.110000000000000000e+02
1.000000000000000000e+00,1.000000000000000000e+00,1.000000000000000000e+00,7.000000000000000000e+01,1.182900000000000000e+04,4.619829654693603516e-01,2.096421003341674805e+00,6.354256683025831798e-01,0.000000000000000000e+00,1.110000000000000000e+02
1.000000000000000000e+00,1.000000000000000000e+00,1.000000000000000000e+00,6.300000000000000000e+01,1.189200000000000000e+04,3.780269622802734375e-01,1.746284961700439453e+00,3.821046989562963958e-01,0.000000000000000000e+00,1.110000000000000000e+02
0.000000000000000000e+00,1.000000000000000000e+00,0.000000000000000000e+00,6.500000000000000000e+01,1.195700000000000000e+04,4.711649417877197266e-01,1.749387025833129883e+00,2.816516154126227911e-01,0.000000000000000000e+00,1.110000000000000000e+02
0.000000000000000000e+00,1.000000000000000000e+00,0.000000000000000000e+00,6.600000000000000000e+01,1.202300000000000000e+04,4.668509960174560547e-01,2.070798873901367188e+00,6.188669359586764784e-01,0.000000000000000000e+00,1.110000000000000000e+02
1.000000000000000000e+00,1.000000000000000000e+00,1.000000000000000000e+00,6.500000000000000000e+01,1.208800000000000000e+04,3.815779685974121094e-01,1.724375009536743164e+00,3.435941535280962467e-01,0.000000000000000000e+00,1.110000000000000000e+02
1.000000000000000000e+00,1.000000000000000000e+00,1.000000000000000000e+00,6.700000000000000000e+01,1.215500000000000000e+04,4.489641189575195312e-01,1.995505809783935547e+00,5.555794203385703289e-01,0.000000000000000000e+00,1.110000000000000000e+02
1.000000000000000000e+00,1.000000000000000000e+00,1.000000000000000000e+00,6.600000000000000000e+01,1.222100000000000000e+04,3.790810108184814453e-01,1.776395082473754883e+00,3.989286643441110614e-01,0.000000000000000000e+00,1.110000000000000000e+02
1.000000000000000000e+00,1.000000000000000000e+00,1.000000000000000000e+00,6.200000000000000000e+01,1.228300000000000000e+04,4.287319183349609375e-01,1.740596055984497070e+00,3.063617926415270754e-01,0.000000000000000000e+00,1.110000000000000000e+02
0.000000000000000000e+00,1.000000000000000000e+00,0.000000000000000000e+00,6.400000000000000000e+01,1.234700000000000000e+04,4.624760150909423828e-01,1.922664165496826172e+00,4.622798224179188176e-01,0.000000000000000000e+00,1.110000000000000000e+02
1.000000000000000000e+00,1.000000000000000000e+00,1.000000000000000000e+00,6.900000000000000000e+01,1.241600000000000000e+04,3.198659420013427734e-01,1.716631889343261719e+00,4.123538179665351411e-01,0.000000000000000000e+00,1.110000000000000000e+02
1.000000000000000000e+00,1.000000000000000000e+00,1.000000000000000000e+00,6.400000000000000000e+01,1.248000000000000000e+04,3.702800273895263672e-01,1.809883117675781250e+00,4.556165357240263836e-01,0.000000000000000000e+00,1.110000000000000000e+02
0.000000000000000000e+00,1.000000000000000000e+00,0.000000000000000000e+00,6.300000000000000000e+01,1.254300000000000000e+04,3.697390556335449219e-01,1.672237873077392578e+00,3.114043702532169333e-01,0.000000000000000000e+00,1.110000000000000000e+02
1.000000000000000000e+00,1.000000000000000000e+00,1.000000000000000000e+00,6.300000000000000000e+01,1.260600000000000000e+04,4.910540580749511719e-01,2.080848217010498047e+00,6.086945063310531534e-01,0.000000000000000000e+00,1.110000000000000000e+02
0.000000000000000000e+00,1.000000000000000000e+00,0.000000000000000000e+00,6.500000000000000000e+01,1.267100000000000000e+04,3.259129524230957031e-01,1.942162990570068359e+00,6.342411723981444815e-01,0.000000000000000000e+00,1.110000000000000000e+02
1.000000000000000000e+00,1.000000000000000000e+00,1.000000000000000000e+00,5.700000000000000000e+01,1.272800000000000000e+04,2.438418865203857422e-01,1.501454830169677734e+00,2.694803754799565132e-01,0.000000000000000000e+00,1.110000000000000000e+02
0.000000000000000000e+00,0.000000000000000000e+00,1.000000000000000000e+00,3.900000000000000000e+01,1.276700000000000000e+04,4.219808578491210938e-01,1.968904972076416016e+00,5.548315065004958413e-01,1.000000000000000000e+00,1.120000000000000000e+02
0.000000000000000000e+00,0.000000000000000000e+00,1.000000000000000000e+00,4.200000000000000000e+01,1.280900000000000000e+04,4.603018760681152344e-01,2.081559896469116211e+00,6.197561618030178465e-01,0.000000000000000000e+00,1.120000000000000000e+02
1.000000000000000000e+00,0.000000000000000000e+00,0.000000000000000000e+00,3.900000000000000000e+01,1.284800000000000000e+04,2.661700248718261719e-01,1.531278133392333984e+00,2.680893928114279623e-01,0.000000000000000000e+00,1.120000000000000000e+02
0.000000000000000000e+00,0.000000000000000000e+00,1.000000000000000000e+00,3.400000000000000000e+01,1.288200000000000000e+04,4.617509841918945312e-01,1.820235967636108398e+00,3.550046115687261472e-01,0.000000000000000000e+00,1.120000000000000000e+02
0.000000000000000000e+00,0.000000000000000000e+00,1.000000000000000000e+00,3.900000000000000000e+01,1.292100000000000000e+04,4.181680679321289062e-01,2.093413829803466797e+00,6.814826140327139292e-01,0.000000000000000000e+00,1.120000000000000000e+02
0.000000000000000000e+00,0.000000000000000000e+00,1.000000000000000000e+00,4.100000000000000000e+01,1.296200000000000000e+04,3.789608478546142578e-01,1.622522115707397461e+00,2.545444492243282841e-01,0.000000000000000000e+00,1.120000000000000000e+02
0.000000000000000000e+00,0.000000000000000000e+00,1.000000000000000000e+00,3.800000000000000000e+01,1.300000000000000000e+04,5.536711215972900391e-01,1.809587955474853516e+00,2.641876745592167675e-01,0.000000000000000000e+00,1.120000000000000000e+02
0.000000000000000000e+00,0.000000000000000000e+00,1.000000000000000000e+00,3.500000000000000000e+01,1.303500000000000000e+04,4.137859344482421875e-01,1.812258005142211914e+00,4.096870724965648303e-01,0.000000000000000000e+00,1.120000000000000000e+02
0.000000000000000000e+00,0.000000000000000000e+00,1.000000000000000000e+00,3.700000000000000000e+01,1.307200000000000000e+04,3.480970859527587891e-01,1.893959045410156250e+00,5.535923589689561997e-01,0.000000000000000000e+00,1.120000000000000000e+02
0.000000000000000000e+00,0.000000000000000000e+00,1.000000000000000000e+00,4.000000000000000000e+01,1.311200000000000000e+04,3.084628582000732422e-01,2.028003931045532227e+00,7.148160903301259417e-01,0.000000000000000000e+00,1.120000000000000000e+02
1.000000000000000000e+00,0.000000000000000000e+00,0.000000000000000000e+00,3.900000000000000000e+01,1.315100000000000000e+04,3.585669994354248047e-01,1.918465852737426758e+00,5.835419091632902955e-01,0.000000000000000000e+00,1.120000000000000000e+02
0.000000000000000000e+00,0.000000000000000000e+00,1.000000000000000000e+00,3.900000000000000000e+01,1.319000000000000000e+04,2.823958396911621094e-01,1.926607131958007812e+00,6.434856553649481725e-01,0.000000000000000000e+00,1.120000000000000000e+02
0.000000000000000000e+00,0.000000000000000000e+00,1.000000000000000000e+00,4.700000000000000000e+01,1.323700000000000000e+04,4.018459320068359375e-01,1.731983900070190430e+00,3.425817931283240414e-01,0.000000000000000000e+00,1.120000000000000000e+02
0.000000000000000000e+00,0.000000000000000000e+00,1.000000000000000000e+00,4.100000000000000000e+01,1.327800000000000000e+04,4.884669780731201172e-01,1.918022871017456055e+00,4.438837986599495355e-01,0.000000000000000000e+00,1.120000000000000000e+02
1.000000000000000000e+00,0.000000000000000000e+00,0.000000000000000000e+00,4.700000000000000000e+01,1.332500000000000000e+04,4.538838863372802734e-01,2.075709104537963867e+00,6.361594697397303655e-01,0.000000000000000000e+00,1.120000000000000000e+02
0.000000000000000000e+00,0.000000000000000000e+00,1.000000000000000000e+00,4.100000000000000000e+01,1.336600000000000000e+04,3.846478462219238281e-01,1.744858980178833008e+00,3.647034925810000439e-01,0.000000000000000000e+00,1.120000000000000000e+02
1.000000000000000000e+00,0.000000000000000000e+00,0.000000000000000000e+00,4.800000000000000000e+01,1.341400000000000000e+04,4.343831539154052734e-01,1.953358173370361328e+00,5.346132226393417453e-01,0.000000000000000000e+00,1.120000000000000000e+02
0.000000000000000000e+00,0.000000000000000000e+00,1.000000000000000000e+00,4.100000000000000000e+01,1.345500000000000000e+04,3.477060794830322266e-01,2.053381919860839844e+00,7.045554000007256956e-01,0.000000000000000000e+00,1.120000000000000000e+02
1.000000000000000000e+00,1.000000000000000000e+00,1.000000000000000000e+00,6.200000000000000000e+01,1.351700000000000000e+04,5.087389945983886719e-01,2.011581182479858398e+00,5.164518914728902788e-01,0.000000000000000000e+00,1.120000000000000000e+02
0.000000000000000000e+00,1.000000000000000000e+00,0.000000000000000000e+00,6.000000000000000000e+01,1.357700000000000000e+04,4.071528911590576172e-01,1.883978843688964844e+00,4.838613484868433123e-01,0.000000000000000000e+00,1.120000000000000000e+02
0.000000000000000000e+00,1.000000000000000000e+00,0.000000000000000000e+00,6.200000000000000000e+01,1.363900000000000000e+04,3.970239162445068359e-01,1.658327102661132812e+00,2.591777061716334374e-01,0.000000000000000000e+00,1.120000000000000000e+02
1.000000000000000000e+00,1.000000000000000000e+00,1.000000000000000000e+00,5.600000000000000000e+01,1.369500000000000000e+04,5.820741653442382812e-01,2.273674011230468750e+00,6.991262605881725101e-01,0.000000000000000000e+00,1.120000000000000000e+02
1.000000000000000000e+00,1.000000000000000000e+00,1.000000000000000000e+00,5.900000000000000000e+01,1.375400000000000000e+04,4.458479881286621094e-01,1.746485948562622070e+00,2.961100288218096455e-01,0.000000000000000000e+00,1.120000000000000000e+02
0.000000000000000000e+00,1.000000000000000000e+00,0.000000000000000000e+00,6.000000000000000000e+01,1.381400000000000000e+04,4.815399646759033203e-01,1.835155010223388672e+00,3.646362914013824286e-01,0.000000000000000000e+00,1.120000000000000000e+02
0.000000000000000000e+00,1.000000000000000000e+00,0.000000000000000000e+00,5.600000000000000000e+01,1.387000000000000000e+04,4.172251224517822266e-01,1.705499172210693359e+00,3.035998312494047058e-01,0.000000000000000000e+00,1.120000000000000000e+02
0.000000000000000000e+00,1.000000000000000000e+00,0.000000000000000000e+00,5.700000000000000000e+01,1.392700000000000000e+04,4.365890026092529297e-01,2.111083984375000000e+00,6.810180050103655791e-01,0.000000000000000000e+00,1.120000000000000000e+02
1.000000000000000000e+00,1.000000000000000000e+00,1.000000000000000000e+00,5.900000000000000000e+01,1.398600000000000000e+04,3.747758865356445312e-01,1.717422962188720703e+00,3.655198343017735385e-01,0.000000000000000000e+00,1.120000000000000000e+02
0.000000000000000000e+00,1.000000000000000000e+00,0.000000000000000000e+00,6.600000000000000000e+01,1.405200000000000000e+04,4.736711978912353516e-01,1.977008104324340820e+00,4.924843582355192262e-01,0.000000000000000000e+00,1.120000000000000000e+02
0.000000000000000000e+00,1.000000000000000000e+00,0.000000000000000000e+00,6.400000000000000000e+01,1.411600000000000000e+04,4.027349948883056641e-01,2.095397949218750000e+00,7.043862790701478360e-01,0.000000000000000000e+00,1.120000000000000000e+02
0.000000000000000000e+00,1.000000000000000000e+00,0.000000000000000000e+00,6.200000000000000000e+01,1.417800000000000000e+04,4.829530715942382812e-01,1.797981023788452148e+00,3.195286962840406253e-01,0.000000000000000000e+00,1.120000000000000000e+02
0.000000000000000000e+00,1.000000000000000000e+00,0.000000000000000000e+00,5.600000000000000000e+01,1.423400000000000000e+04,4.309201240539550781e-01,2.022327899932861328e+00,5.916579696590714699e-01,0.000000000000000000e+00,1.120000000000000000e+02
0.000000000000000000e+00,1.000000000000000000e+00,0.000000000000000000e+00,6.300000000000000000e+01,1.429700000000000000e+04,4.393169879913330078e-01,1.909427881240844727e+00,4.846194102602481291e-01,0.000000000000000000e+00,1.120000000000000000e+02
0.000000000000000000e+00,1.000000000000000000e+00,0.000000000000000000e+00,6.000000000000000000e+01,1.435700000000000000e+04,4.416940212249755859e-01,2.124850988388061523e+00,6.926286544293919212e-01,0.000000000000000000e+00,1.120000000000000000e+02
0.000000000000000000e+00,0.000000000000000000e+00,1.000000000000000000e+00,3.400000000000000000e+01,1.439100000000000000e+04,3.471679687500000000e-01,1.906793832778930664e+00,5.663294451055407297e-01,1.000000000000000000e+00,1.110000000000000000e+02
1.000000000000000000e+00,1.000000000000000000e+00,1.000000000000000000e+00,6.600000000000000000e+01,1.445700000000000000e+04,4.054670333862304688e-01,2.141209125518798828e+00,7.407555269715087043e-01,0.000000000000000000e+00,1.110000000000000000e+02
0.000000000000000000e+00,1.000000000000000000e+00,0.000000000000000000e+00,6.800000000000000000e+01,1.452500000000000000e+04,3.792078495025634766e-01,1.836549997329711914e+00,4.610309035388577281e-01,0.000000000000000000e+00,1.110000000000000000e+02
1.000000000000000000e+00,1.000000000000000000e+00,1.000000000000000000e+00,6.600000000000000000e+01,1.459100000000000000e+04,7.309560775756835938e-01,2.373634099960327148e+00,6.512320607629461522e-01,0.000000000000000000e+00,1.110000000000000000e+02
1.000000000000000000e+00,1.000000000000000000e+00,1.000000000000000000e+00,6.700000000000000000e+01,1.465800000000000000e+04,3.666930198669433594e-01,1.770507812500000000e+00,4.054127608535122440e-01,0.000000000000000000e+00,1.110000000000000000e+02
0.000000000000000000e+00,1.000000000000000000e+00,0.000000000000000000e+00,5.400000000000000000e+01,1.471200000000000000e+04,5.780980587005615234e-01,2.091418027877807617e+00,5.134661369629467398e-01,0.000000000000000000e+00,1.110000000000000000e+02
0.000000000000000000e+00,1.000000000000000000e+00,0.000000000000000000e+00,6.800000000000000000e+01,1.478000000000000000e+04,4.559791088104248047e-01,1.918853998184204102e+00,4.824431135878091692e-01,0.000000000000000000e+00,1.110000000000000000e+02
1.000000000000000000e+00,1.000000000000000000e+00,1.000000000000000000e+00,6.200000000000000000e+01,1.484200000000000000e+04,4.346377849578857422e-01,1.952040195465087891e+00,5.178475938280846513e-01,0.000000000000000000e+00,1.110000000000000000e+02
0.000000000000000000e+00,1.000000000000000000e+00,0.000000000000000000e+00,6.500000000000000000e+01,1.490700000000000000e+04,4.367780685424804688e-01,2.130407810211181641e+00,6.981206983156347246e-01,0.000000000000000000e+00,1.110000000000000000e+02
1.000000000000000000e+00,1.000000000000000000e+00,1.000000000000000000e+00,7.100000000000000000e+01,1.497800000000000000e+04,3.500759601593017578e-01,1.743292808532714844e+00,4.084945044368376577e-01,0.000000000000000000e+00,1.110000000000000000e+02
0.000000000000000000e+00,1.000000000000000000e+00,0.000000000000000000e+00,6.700000000000000000e+01,1.504500000000000000e+04,5.451040267944335938e-01,2.100212097167968750e+00,5.586143748136160880e-01,0.000000000000000000e+00,1.110000000000000000e+02
1.000000000000000000e+00,1.000000000000000000e+00,1.000000000000000000e+00,6.800000000000000000e+01,1.511300000000000000e+04,3.602199554443359375e-01,1.648324966430664062e+00,3.072598161075799084e-01,0.000000000000000000e+00,1.110000000000000000e+02
1.000000000000000000e+00,1.000000000000000000e+00,1.000000000000000000e+00,6.500000000000000000e+01,1.517800000000000000e+04,4.692699909210205078e-01,1.886835098266601562e+00,4.274033772239440032e-01,0.000000000000000000e+00,1.110000000000000000e+02
1.000000000000000000e+00,1.000000000000000000e+00,1.000000000000000000e+00,6.800000000000000000e+01,1.524600000000000000e+04,4.130260944366455078e-01,2.101989030838012695e+00,6.958207675346572696e-01,0.000000000000000000e+00,1.110000000000000000e+02
0.000000000000000000e+00,1.000000000000000000e+00,0.000000000000000000e+00,6.400000000000000000e+01,1.531000000000000000e+04,3.800561428070068359e-01,1.782711982727050781e+00,4.122380690805824699e-01,0.000000000000000000e+00,1.110000000000000000e+02
1.000000000000000000e+00,1.000000000000000000e+00,1.000000000000000000e+00,6.400000000000000000e+01,1.537400000000000000e+04,4.658639430999755859e-01,1.940603971481323242e+00,4.861909275364844629e-01,0.000000000000000000e+00,1.110000000000000000e+02
1.000000000000000000e+00,1.000000000000000000e+00,1.000000000000000000e+00,6.500000000000000000e+01,1.543900000000000000e+04,3.768520355224609375e-01,1.722198009490966797e+00,3.585977015311614391e-01,0.000000000000000000e+00,1.110000000000000000e+02
1.000000000000000000e+00,1.000000000000000000e+00,1.000000000000000000e+00,6.700000000000000000e+01,1.550600000000000000e+04,4.501900672912597656e-01,1.839434862136840820e+00,3.980500100820233422e-01,0.000000000000000000e+00,1.110000000000000000e+02
0.000000000000000000e+00,1.000000000000000000e+00,0.000000000000000000e+00,6.700000000000000000e+01,1.557300000000000000e+04,4.579038619995117188e-01,1.930215120315551758e+00,4.949219030202096081e-01,0.000000000000000000e+00,1.110000000000000000e+02
1.000000000000000000e+00,1.000000000000000000e+00,1.000000000000000000e+00,6.600000000000000000e+01,1.563900000000000000e+04,4.386498928070068359e-01,1.895919084548950195e+00,4.742898127703432110e-01,0.000000000000000000e+00,1.110000000000000000e+02
0.000000000000000000e+00,1.000000000000000000e+00,0.000000000000000000e+00,6.600000000000000000e+01,1.570500000000000000e+04,4.367101192474365234e-01,1.676566839218139648e+00,2.511348777163176504e-01,0.000000000000000000e+00,1.110000000000000000e+02
1.000000000000000000e+00,1.000000000000000000e+00,1.000000000000000000e+00,6.100000000000000000e+01,1.576600000000000000e+04,4.804370403289794922e-01,2.043533086776733398e+00,5.611309489683440344e-01,0.000000000000000000e+00,1.110000000000000000e+02
0.000000000000000000e+00,1.000000000000000000e+00,0.000000000000000000e+00,6.400000000000000000e+01,1.583000000000000000e+04,3.182940483093261719e-01,2.012499094009399414e+00,7.068515028170805348e-01,0.000000000000000000e+00,1.110000000000000000e+02
0.000000000000000000e+00,1.000000000000000000e+00,0.000000000000000000e+00,6.300000000000000000e+01,1.589300000000000000e+04,3.706221580505371094e-01,1.908004999160766602e+00,5.484529315603475785e-01,0.000000000000000000e+00,1.110000000000000000e+02
1.000000000000000000e+00,1.000000000000000000e+00,1.000000000000000000e+00,6.600000000000000000e+01,1.595900000000000000e+04,4.846210479736328125e-01,2.065716028213500977e+00,5.975690316473976083e-01,0.000000000000000000e+00,1.110000000000000000e+02
0.000000000000000000e+00,1.000000000000000000e+00,0.000000000000000000e+00,6.800000000000000000e+01,1.602700000000000000e+04,4.391269683837890625e-01,1.988178014755249023e+00,5.691787813857274170e-01,0.000000000000000000e+00,1.110000000000000000e+02
1.000000000000000000e+00,1.000000000000000000e+00,1.000000000000000000e+00,6.200000000000000000e+01,1.608900000000000000e+04,4.082298278808593750e-01,2.012948989868164062e+00,6.154519936935207713e-01,0.000000000000000000e+00,1.110000000000000000e+02
0.000000000000000000e+00,1.000000000000000000e+00,0.000000000000000000e+00,6.400000000000000000e+01,1.615300000000000000e+04,3.065049648284912109e-01,1.558480978012084961e+00,2.577235675631546208e-01,0.000000000000000000e+00,1.110000000000000000e+02
1.000000000000000000e+00,1.000000000000000000e+00,1.000000000000000000e+00,6.800000000000000000e+01,1.622100000000000000e+04,5.425510406494140625e-01,1.901492118835449219e+00,3.758494304737152736e-01,0.000000000000000000e+00,1.110000000000000000e+02
1.000000000000000000e+00,1.000000000000000000e+00,1.000000000000000000e+00,6.400000000000000000e+01,1.628500000000000000e+04,3.896250724792480469e-01,1.743118047714233398e+00,3.690577513075818383e-01,0.000000000000000000e+00,1.110000000000000000e+02
1.000000000000000000e+00,1.000000000000000000e+00,1.000000000000000000e+00,6.800000000000000000e+01,1.635300000000000000e+04,4.167459011077880859e-01,1.755326986312866211e+00,3.411599542091254267e-01,0.000000000000000000e+00,1.110000000000000000e+02
1.000000000000000000e+00,1.000000000000000000e+00,1.000000000000000000e+00,6.400000000000000000e+01,1.641700000000000000e+04,4.607508182525634766e-01,2.000934123992919922e+00,5.419565874605940525e-01,0.000000000000000000e+00,1.110000000000000000e+02
1.000000000000000000e+00,1.000000000000000000e+00,1.000000000000000000e+00,6.300000000000000000e+01,1.648000000000000000e+04,4.708077907562255859e-01,1.848453998565673828e+00,3.906718957691663330e-01,0.000000000000000000e+00,1.110000000000000000e+02
1.000000000000000000e+00,1.000000000000000000e+00,1.000000000000000000e+00,6.500000000000000000e+01,1.654500000000000000e+04,3.859019279479980469e-01,2.112193107604980469e+00,7.358898039088095366e-01,0.000000000000000000e+00,1.110000000000000000e+02
1.000000000000000000e+00,1.000000000000000000e+00,1.000000000000000000e+00,6.800000000000000000e+01,1.661300000000000000e+04,2.982950210571289062e-01,1.926805973052978516e+00,6.297819973041494102e-01,0.000000000000000000e+00,1.110000000000000000e+02
1.000000000000000000e+00,1.000000000000000000e+00,1.000000000000000000e+00,6.200000000000000000e+01,1.667500000000000000e+04,4.466910362243652344e-01,1.893929004669189453e+00,4.570604378465755180e-01,0.000000000000000000e+00,1.110000000000000000e+02
1.000000000000000000e+00,0.000000000000000000e+00,0.000000000000000000e+00,4.000000000000000000e+01,1.671500000000000000e+04,4.378740787506103516e-01,1.721665143966674805e+00,2.956653069115093291e-01,1.000000000000000000e+00,1.120000000000000000e+02
1.000000000000000000e+00,0.000000000000000000e+00,0.000000000000000000e+00,3.800000000000000000e+01,1.675300000000000000e+04,5.131578445434570312e-01,2.050612926483154297e+00,5.460777988789360382e-01,0.000000000000000000e+00,1.120000000000000000e+02
1.000000000000000000e+00,1.000000000000000000e+00,1.000000000000000000e+00,5.600000000000000000e+01,1.680900000000000000e+04,3.532299995422363281e-01,1.845006942749023438e+00,5.078707068724794826e-01,0.000000000000000000e+00,1.120000000000000000e+02
1.000000000000000000e+00,1.000000000000000000e+00,1.000000000000000000e+00,5.500000000000000000e+01,1.686400000000000000e+04,4.374449253082275391e-01,1.692499160766601562e+00,2.673840452365218168e-01,0.000000000000000000e+00,1.120000000000000000e+02
1.000000000000000000e+00,1.000000000000000000e+00,1.000000000000000000e+00,6.200000000000000000e+01,1.692600000000000000e+04,5.974900722503662109e-01,2.102092981338500977e+00,5.026304899448927888e-01,0.000000000000000000e+00,1.120000000000000000e+02
1.000000000000000000e+00,1.000000000000000000e+00,1.000000000000000000e+00,5.600000000000000000e+01,1.698200000000000000e+04,4.045879840850830078e-01,1.770874977111816406e+00,3.737186357081248023e-01,0.000000000000000000e+00,1.120000000000000000e+02
0.000000000000000000e+00,1.000000000000000000e+00,0.000000000000000000e+00,6.200000000000000000e+01,1.704400000000000000e+04,6.819210052490234375e-01,2.125353097915649414e+00,4.490707397468195472e-01,0.000000000000000000e+00,1.120000000000000000e+02
0.000000000000000000e+00,1.000000000000000000e+00,0.000000000000000000e+00,5.100000000000000000e+01,1.709500000000000000e+04,4.106559753417968750e-01,2.053869962692260742e+00,6.361411304056269200e-01,0.000000000000000000e+00,1.120000000000000000e+02
1.000000000000000000e+00,1.000000000000000000e+00,1.000000000000000000e+00,5.600000000000000000e+01,1.715100000000000000e+04,3.357491493225097656e-01,1.592978000640869141e+00,2.629402320537318483e-01,0.000000000000000000e+00,1.120000000000000000e+02
0.000000000000000000e+00,1.000000000000000000e+00,0.000000000000000000e+00,6.800000000000000000e+01,1.721900000000000000e+04,5.934898853302001953e-01,2.047286033630371094e+00,4.767700147001390776e-01,0.000000000000000000e+00,1.120000000000000000e+02
0.000000000000000000e+00,1.000000000000000000e+00,0.000000000000000000e+00,5.600000000000000000e+01,1.727500000000000000e+04,4.045147895812988281e-01,2.108915090560913086e+00,7.191786432912474769e-01,0.000000000000000000e+00,1.120000000000000000e+02
1.000000000000000000e+00,1.000000000000000000e+00,1.000000000000000000e+00,6.200000000000000000e+01,1.733700000000000000e+04,3.959479331970214844e-01,1.747396945953369141e+00,3.500387520572734168e-01,0.000000000000000000e+00,1.120000000000000000e+02
1.000000000000000000e+00,1.000000000000000000e+00,1.000000000000000000e+00,5.600000000000000000e+01,1.739300000000000000e+04,5.699939727783203125e-01,1.921373128890991211e+00,3.548194320738102259e-01,0.000000000000000000e+00,1.120000000000000000e+02
0.000000000000000000e+00,1.000000000000000000e+00,0.000000000000000000e+00,6.200000000000000000e+01,1.745500000000000000e+04,3.904528617858886719e-01,1.762254953384399414e+00,3.837560752351395488e-01,0.000000000000000000e+00,1.120000000000000000e+02
0.000000000000000000e+00,1.000000000000000000e+00,0.000000000000000000e+00,5.500000000000000000e+01,1.751000000000000000e+04,3.807959556579589844e-01,2.101660013198852539e+00,7.185128897788297664e-01,0.000000000000000000e+00,1.120000000000000000e+02
0.000000000000000000e+00,1.000000000000000000e+00,0.000000000000000000e+00,5.900000000000000000e+01,1.756900000000000000e+04,3.578851222991943359e-01,1.932600975036621094e+00,5.847412359006183280e-01,0.000000000000000000e+00,1.120000000000000000e+02
1.000000000000000000e+00,1.000000000000000000e+00,1.000000000000000000e+00,5.900000000000000000e+01,1.762800000000000000e+04,4.616308212280273438e-01,2.147474050521850586e+00,6.987890337018520803e-01,0.000000000000000000e+00,1.120000000000000000e+02
1.000000000000000000e+00,1.000000000000000000e+00,1.000000000000000000e+00,5.700000000000000000e+01,1.768500000000000000e+04,3.806879520416259766e-01,1.837578058242797852e+00,4.533686645855199426e-01,0.000000000000000000e+00,1.120000000000000000e+02
1.000000000000000000e+00,1.000000000000000000e+00,1.000000000000000000e+00,6.100000000000000000e+01,1.774600000000000000e+04,4.624261856079101562e-01,1.725960969924926758e+00,2.629106750005264503e-01,0.000000000000000000e+00,1.120000000000000000e+02
1.000000000000000000e+00,1.000000000000000000e+00,1.000000000000000000e+00,5.600000000000000000e+01,1.780200000000000000e+04,4.417500495910644531e-01,2.009356021881103516e+00,5.887084460097894434e-01,0.000000000000000000e+00,1.120000000000000000e+02
0.000000000000000000e+00,1.000000000000000000e+00,0.000000000000000000e+00,5.700000000000000000e+01,1.785900000000000000e+04,6.851720809936523438e-01,2.016895055770874023e+00,3.392313323399091529e-01,0.000000000000000000e+00,1.120000000000000000e+02
1.000000000000000000e+00,1.000000000000000000e+00,1.000000000000000000e+00,5.600000000000000000e+01,1.791500000000000000e+04,4.166290760040283203e-01,1.845735073089599609e+00,4.350195675361239189e-01,0.000000000000000000e+00,1.120000000000000000e+02
0.000000000000000000e+00,1.000000000000000000e+00,0.000000000000000000e+00,5.500000000000000000e+01,1.797000000000000000e+04,4.286770820617675781e-01,1.704721927642822266e+00,2.732813645796943192e-01,0.000000000000000000e+00,1.120000000000000000e+02
1.000000000000000000e+00,1.000000000000000000e+00,1.000000000000000000e+00,5.600000000000000000e+01,1.802600000000000000e+04,5.277101993560791016e-01,2.051067113876342773e+00,5.408103171102311979e-01,0.000000000000000000e+00,1.120000000000000000e+02
1.000000000000000000e+00,1.000000000000000000e+00,1.000000000000000000e+00,6.400000000000000000e+01,1.809000000000000000e+04,3.918030261993408203e-01,2.079029083251953125e+00,7.031018283116299283e-01,0.000000000000000000e+00,1.120000000000000000e+02
0.000000000000000000e+00,1.000000000000000000e+00,0.000000000000000000e+00,5.700000000000000000e+01,1.814700000000000000e+04,3.995871543884277344e-01,1.920825958251953125e+00,5.241806407946421054e-01,0.000000000000000000e+00,1.120000000000000000e+02
1.000000000000000000e+00,1.000000000000000000e+00,1.000000000000000000e+00,5.400000000000000000e+01,1.820100000000000000e+04,4.139740467071533203e-01,2.037528038024902344e+00,6.283450422714440542e-01,0.000000000000000000e+00,1.120000000000000000e+02
1.000000000000000000e+00,1.000000000000000000e+00,1.000000000000000000e+00,5.300000000000000000e+01,1.825400000000000000e+04,3.446350097656250000e-01,2.020349025726318359e+00,6.820395229648371638e-01,0.000000000000000000e+00,1.120000000000000000e+02
0.000000000000000000e+00,1.000000000000000000e+00,0.000000000000000000e+00,5.600000000000000000e+01,1.831000000000000000e+04,3.443911075592041016e-01,2.028988122940063477e+00,6.944278458256780695e-01,0.000000000000000000e+00,1.120000000000000000e+02
0.000000000000000000e+00,1.000000000000000000e+00,0.000000000000000000e+00,5.400000000000000000e+01,1.836400000000000000e+04,3.857858180999755859e-01,1.801800966262817383e+00,4.299563427061401932e-01,0.000000000000000000e+00,1.120000000000000000e+02
0.000000000000000000e+00,1.000000000000000000e+00,0.000000000000000000e+00,5.700000000000000000e+01,1.842100000000000000e+04,5.248529911041259766e-01,2.040730953216552734e+00,5.373074546086686887e-01,0.000000000000000000e+00,1.120000000000000000e+02
1.000000000000000000e+00,1.000000000000000000e+00,1.000000000000000000e+00,6.000000000000000000e+01,1.848100000000000000e+04,3.879148960113525391e-01,1.955321073532104492e+00,5.759898741036696412e-01,0.000000000000000000e+00,1.120000000000000000e+02
0.000000000000000000e+00,1.000000000000000000e+00,0.000000000000000000e+00,6.200000000000000000e+01,1.854300000000000000e+04,3.990559577941894531e-01,1.948930978775024414e+00,5.583677041676687880e-01,0.000000000000000000e+00,1.120000000000000000e+02
1.000000000000000000e+00,1.000000000000000000e+00,1.000000000000000000e+00,5.700000000000000000e+01,1.860000000000000000e+04,4.131119251251220703e-01,1.742686986923217773e+00,3.347160510714998760e-01,0.000000000000000000e+00,1.120000000000000000e+02
0.000000000000000000e+00,1.000000000000000000e+00,0.000000000000000000e+00,5.300000000000000000e+01,1.865300000000000000e+04,4.832029342651367188e-01,1.734956026077270508e+00,2.531511296057129545e-01,0.000000000000000000e+00,1.120000000000000000e+02
0.000000000000000000e+00,0.000000000000000000e+00,1.000000000000000000e+00,3.400000000000000000e+01,1.868700000000000000e+04,4.458088874816894531e-01,2.174072980880737305e+00,7.267909834880416087e-01,1.000000000000000000e+00,1.110000000000000000e+02
1.000000000000000000e+00,1.000000000000000000e+00,1.000000000000000000e+00,6.600000000000000000e+01,1.875300000000000000e+04,3.852717876434326172e-01,1.646474123001098633e+00,2.738448389515324433e-01,0.000000000000000000e+00,1.110000000000000000e+02
0.000000000000000000e+00,1.000000000000000000e+00,0.000000000000000000e+00,6.200000000000000000e+01,1.881500000000000000e+04,4.453940391540527344e-01,1.986996889114379883e+00,5.439704001359011443e-01,0.000000000000000000e+00,1.110000000000000000e+02
0.000000000000000000e+00,1.000000000000000000e+00,0.000000000000000000e+00,6.400000000000000000e+01,1.887900000000000000e+04,3.600511550903320312e-01,2.039928913116455078e+00,7.004260734215980166e-01,0.000000000000000000e+00,1.110000000000000000e+02
1.000000000000000000e+00,1.000000000000000000e+00,1.000000000000000000e+00,6.600000000000000000e+01,1.894500000000000000e+04,3.611071109771728516e-01,2.020931959152221680e+00,6.715489476557151560e-01,0.000000000000000000e+00,1.110000000000000000e+02
0.000000000000000000e+00,1.000000000000000000e+00,0.000000000000000000e+00,6.200000000000000000e+01,1.900700000000000000e+04,3.786008358001708984e-01,2.049469947814941406e+00,6.710955712736835777e-01,0.000000000000000000e+00,1.110000000000000000e+02
1.000000000000000000e+00,1.000000000000000000e+00,1.000000000000000000e+00,6.100000000000000000e+01,1.906800000000000000e+04,3.006110191345214844e-01,1.929906129837036133e+00,6.344572016326774921e-01,0.000000000000000000e+00,1.110000000000000000e+02
0.000000000000000000e+00,1.000000000000000000e+00,0.000000000000000000e+00,6.500000000000000000e+01,1.913300000000000000e+04,3.503251075744628906e-01,1.882506132125854492e+00,5.338005045484226496e-01,0.000000000000000000e+00,1.110000000000000000e+02
1.000000000000000000e+00,1.000000000000000000e+00,1.000000000000000000e+00,6.400000000000000000e+01,1.919700000000000000e+04,3.641281127929687500e-01,2.097149848937988281e+00,7.308395696612492998e-01,0.000000000000000000e+00,1.110000000000000000e+02
0.000000000000000000e+00,1.000000000000000000e+00,0.000000000000000000e+00,6.400000000000000000e+01,1.926100000000000000e+04,3.298552036285400391e-01,1.667476177215576172e+00,3.488052735427972784e-01,0.000000000000000000e+00,1.110000000000000000e+02
1.000000000000000000e+00,1.000000000000000000e+00,1.000000000000000000e+00,5.900000000000000000e+01,1.932000000000000000e+04,4.772529602050781250e-01,2.160140991210937500e+00,7.086466140155727178e-01,0.000000000000000000e+00,1.110000000000000000e+02
1.000000000000000000e+00,1.000000000000000000e+00,1.000000000000000000e+00,6.600000000000000000e+01,1.938600000000000000e+04,4.107449054718017578e-01,1.758932113647460938e+00,3.513766097026266300e-01,0.000000000000000000e+00,1.110000000000000000e+02
0.000000000000000000e+00,1.000000000000000000e+00,0.000000000000000000e+00,6.200000000000000000e+01,1.944800000000000000e+04,4.330739974975585938e-01,1.829770803451538086e+00,3.978481039302306232e-01,0.000000000000000000e+00,1.110000000000000000e+02
1.000000000000000000e+00,1.000000000000000000e+00,1.000000000000000000e+00,6.000000000000000000e+01,1.950800000000000000e+04,3.184940814971923828e-01,1.970535993576049805e+00,6.681639411430502218e-01,0.000000000000000000e+00,1.110000000000000000e+02
1.000000000000000000e+00,1.000000000000000000e+00,1.000000000000000000e+00,6.000000000000000000e+01,1.956800000000000000e+04,3.591718673706054688e-01,2.085337162017822266e+00,7.368472899183133862e-01,0.000000000000000000e+00,1.110000000000000000e+02
0.000000000000000000e+00,1.000000000000000000e+00,0.000000000000000000e+00,6.100000000000000000e+01,1.962900000000000000e+04,2.999310493469238281e-01,1.839138031005859375e+00,5.429346164958072096e-01,0.000000000000000000e+00,1.110000000000000000e+02
1.000000000000000000e+00,1.000000000000000000e+00,1.000000000000000000e+00,6.600000000000000000e+01,1.969500000000000000e+04,2.886500358581542969e-01,1.864600896835327148e+00,5.908943470843990298e-01,0.000000000000000000e+00,1.110000000000000000e+02
0.000000000000000000e+00,1.000000000000000000e+00,0.000000000000000000e+00,6.400000000000000000e+01,1.975900000000000000e+04,3.540191650390625000e-01,1.807090997695922852e+00,4.648705251927818249e-01,0.000000000000000000e+00,1.110000000000000000e+02
1.000000000000000000e+00,1.000000000000000000e+00,1.000000000000000000e+00,6.500000000000000000e+01,1.982400000000000000e+04,3.601491451263427734e-01,1.793054103851318359e+00,4.413499205733006914e-01,0.000000000000000000e+00,1.110000000000000000e+02
1.000000000000000000e+00,1.000000000000000000e+00,1.000000000000000000e+00,6.500000000000000000e+01,1.988900000000000000e+04,4.441800117492675781e-01,1.738667964935302734e+00,3.135322529641795253e-01,0.000000000000000000e+00,1.110000000000000000e+02
1.000000000000000000e+00,1.000000000000000000e+00,1.000000000000000000e+00,6.600000000000000000e+01,1.995500000000000000e+04,5.859451293945312500e-01,2.318088054656982422e+00,7.479550745089317276e-01,0.000000000000000000e+00,1.110000000000000000e+02
1.000000000000000000e+00,1.000000000000000000e+00,1.000000000000000000e+00,6.400000000000000000e+01,2.001900000000000000e+04,3.473172187805175781e-01,1.724477052688598633e+00,3.895282254293567226e-01,0.000000000000000000e+00,1.110000000000000000e+02
1.000000000000000000e+00,1.000000000000000000e+00,1.000000000000000000e+00,5.900000000000000000e+01,2.007800000000000000e+04,7.590239048004150391e-01,2.271098136901855469e+00,5.272298602113432153e-01,0.000000000000000000e+00,1.110000000000000000e+02
1.000000000000000000e+00,1.000000000000000000e+00,1.000000000000000000e+00,6.500000000000000000e+01,2.014300000000000000e+04,4.404230117797851562e-01,1.712409973144531250e+00,2.899664727499033923e-01,0.000000000000000000e+00,1.110000000000000000e+02
1.000000000000000000e+00,1.000000000000000000e+00,1.000000000000000000e+00,6.300000000000000000e+01,2.020600000000000000e+04,4.547991752624511719e-01,2.025689840316772461e+00,5.820991779977330305e-01,0.000000000000000000e+00,1.110000000000000000e+02
0.000000000000000000e+00,1.000000000000000000e+00,0.000000000000000000e+00,6.300000000000000000e+01,2.026900000000000000e+04,3.955409526824951172e-01,2.119057178497314453e+00,7.177721076181655668e-01,0.000000000000000000e+00,1.110000000000000000e+02
1.000000000000000000e+00,1.000000000000000000e+00,1.000000000000000000e+00,7.000000000000000000e+01,2.033900000000000000e+04,3.129479885101318359e-01,1.582578897476196289e+00,2.675507379061089486e-01,0.000000000000000000e+00,1.110000000000000000e+02
1.000000000000000000e+00,1.000000000000000000e+00,1.000000000000000000e+00,6.100000000000000000e+01,2.040000000000000000e+04,6.476929187774658203e-01,1.930370092391967773e+00,2.813151087206260947e-01,0.000000000000000000e+00,1.110000000000000000e+02
0.000000000000000000e+00,1.000000000000000000e+00,0.000000000000000000e+00,5.900000000000000000e+01,2.045900000000000000e+04,5.230550765991210938e-01,2.237526893615722656e+00,7.351253786052804884e-01,0.000000000000000000e+00,1.110000000000000000e+02
0.000000000000000000e+00,1.000000000000000000e+00,0.000000000000000000e+00,6.100000000000000000e+01,2.052000000000000000e+04,3.781599998474121094e-01,2.028881072998046875e+00,6.475256433999927452e-01,0.000000000000000000e+00,1.110000000000000000e+02
0.000000000000000000e+00,1.000000000000000000e+00,0.000000000000000000e+00,6.500000000000000000e+01,2.058500000000000000e+04,4.635500907897949219e-01,1.865103960037231445e+00,4.129433321093461395e-01,0.000000000000000000e+00,1.110000000000000000e+02
1.000000000000000000e+00,1.000000000000000000e+00,1.000000000000000000e+00,6.700000000000000000e+01,2.065200000000000000e+04,5.469419956207275391e-01,1.987150907516479492e+00,4.501229960814421838e-01,0.000000000000000000e+00,1.110000000000000000e+02
0.000000000000000000e+00,1.000000000000000000e+00,0.000000000000000000e+00,6.800000000000000000e+01,2.072000000000000000e+04,3.920218944549560547e-01,2.132727861404418945e+00,7.493087396487950747e-01,0.000000000000000000e+00,1.110000000000000000e+02
0.000000000000000000e+00,1.000000000000000000e+00,0.000000000000000000e+00,5.900000000000000000e+01,2.077900000000000000e+04,3.717617988586425781e-01,1.757033824920654297e+00,3.901111137399947970e-01,0.000000000000000000e+00,1.110000000000000000e+02
0.000000000000000000e+00,1.000000000000000000e+00,0.000000000000000000e+00,6.000000000000000000e+01,2.083900000000000000e+04,5.708310604095458984e-01,1.855456113815307617e+00,2.957995211892073262e-01,0.000000000000000000e+00,1.110000000000000000e+02
0.000000000000000000e+00,1.000000000000000000e+00,0.000000000000000000e+00,6.200000000000000000e+01,2.090100000000000000e+04,4.889218807220458984e-01,1.963956117630004883e+00,4.929572425772244526e-01,0.000000000000000000e+00,1.110000000000000000e+02
0.000000000000000000e+00,0.000000000000000000e+00,1.000000000000000000e+00,3.700000000000000000e+01,2.093800000000000000e+04,4.163670539855957031e-01,2.124132871627807617e+00,7.169493501191158691e-01,0.000000000000000000e+00,1.110000000000000000e+02
0.000000000000000000e+00,1.000000000000000000e+00,0.000000000000000000e+00,5.600000000000000000e+01,2.099400000000000000e+04,3.351020812988281250e-01,2.053710937500000000e+00,7.207354506494165758e-01,0.000000000000000000e+00,1.110000000000000000e+02
0.000000000000000000e+00,0.000000000000000000e+00,1.000000000000000000e+00,4.200000000000000000e+01,2.103600000000000000e+04,3.501529693603515625e-01,1.816154003143310547e+00,4.705529313974198269e-01,1.000000000000000000e+00,1.120000000000000000e+02
1.000000000000000000e+00,1.000000000000000000e+00,1.000000000000000000e+00,6.400000000000000000e+01,2.110000000000000000e+04,5.425488948822021484e-01,1.911120891571044922e+00,3.818534341511853336e-01,0.000000000000000000e+00,1.120000000000000000e+02
1.000000000000000000e+00,1.000000000000000000e+00,1.000000000000000000e+00,5.700000000000000000e+01,2.115700000000000000e+04,4.417200088500976562e-01,2.072124958038330078e+00,6.537562207710703177e-01,0.000000000000000000e+00,1.120000000000000000e+02
0.000000000000000000e+00,1.000000000000000000e+00,0.000000000000000000e+00,6.700000000000000000e+01,2.122400000000000000e+04,3.133590221405029297e-01,1.923139095306396484e+00,6.103415805526396509e-01,0.000000000000000000e+00,1.120000000000000000e+02
1.000000000000000000e+00,1.000000000000000000e+00,1.000000000000000000e+00,6.100000000000000000e+01,2.128500000000000000e+04,4.007370471954345703e-01,2.131809949874877930e+00,7.421236869786661527e-01,0.000000000000000000e+00,1.120000000000000000e+02
0.000000000000000000e+00,1.000000000000000000e+00,0.000000000000000000e+00,5.600000000000000000e+01,2.134100000000000000e+04,2.673959732055664062e-01,1.662735939025878906e+00,4.052477961623027758e-01,0.000000000000000000e+00,1.120000000000000000e+02
1.000000000000000000e+00,1.000000000000000000e+00,1.000000000000000000e+00,6.200000000000000000e+01,2.140300000000000000e+04,4.268548488616943359e-01,1.978878021240234375e+00,5.507431169020644557e-01,0.000000000000000000e+00,1.120000000000000000e+02
0.000000000000000000e+00,1.000000000000000000e+00,0.000000000000000000e+00,6.200000000000000000e+01,2.146500000000000000e+04,3.665270805358886719e-01,1.999776840209960938e+00,6.338437223202990634e-01,0.000000000000000000e+00,1.120000000000000000e+02
1.000000000000000000e+00,1.000000000000000000e+00,1.000000000000000000e+00,6.200000000000000000e+01,2.152700000000000000e+04,3.605902194976806641e-01,1.978460073471069336e+00,6.290439152346766205e-01,0.000000000000000000e+00,1.120000000000000000e+02
1.000000000000000000e+00,1.000000000000000000e+00,1.000000000000000000e+00,6.000000000000000000e+01,2.158700000000000000e+04,3.661351203918457031e-01,1.937680959701538086e+00,5.835383017647441939e-01,0.000000000000000000e+00,1.120000000000000000e+02
0.000000000000000000e+00,1.000000000000000000e+00,0.000000000000000000e+00,6.100000000000000000e+01,2.164800000000000000e+04,4.511160850524902344e-01,1.702466011047363281e+00,2.530930864691419702e-01,0.000000000000000000e+00,1.120000000000000000e+02
0.000000000000000000e+00,1.000000000000000000e+00,0.000000000000000000e+00,5.900000000000000000e+01,2.170700000000000000e+04,4.722459316253662109e-01,1.752750158309936523e+00,2.892205170643425971e-01,0.000000000000000000e+00,1.120000000000000000e+02
1.000000000000000000e+00,1.000000000000000000e+00,1.000000000000000000e+00,6.400000000000000000e+01,2.177100000000000000e+04,4.062688350677490234e-01,1.752947092056274414e+00,3.588104824396506909e-01,0.000000000000000000e+00,1.120000000000000000e+02
0.000000000000000000e+00,1.000000000000000000e+00,0.000000000000000000e+00,6.700000000000000000e+01,2.183800000000000000e+04,3.563411235809326172e-01,1.758656978607177734e+00,4.174623967398330970e-01,0.000000000000000000e+00,1.120000000000000000e+02
0.000000000000000000e+00,1.000000000000000000e+00,0.000000000000000000e+00,6.000000000000000000e+01,2.189800000000000000e+04,5.316641330718994141e-01,2.163464069366455078e+00,6.307870521570742017e-01,0.000000000000000000e+00,1.120000000000000000e+02
1.000000000000000000e+00,1.000000000000000000e+00,1.000000000000000000e+00,5.900000000000000000e+01,2.195700000000000000e+04,3.067560195922851562e-01,1.668627977371215820e+00,3.831097161098909187e-01,0.000000000000000000e+00,1.120000000000000000e+02
1.000000000000000000e+00,1.000000000000000000e+00,1.000000000000000000e+00,5.700000000000000000e+01,2.201400000000000000e+04,4.754941463470458984e-01,1.798912048339843750e+00,3.321692698896223095e-01,0.000000000000000000e+00,1.120000000000000000e+02
1.000000000000000000e+00,1.000000000000000000e+00,1.000000000000000000e+00,6.500000000000000000e+01,2.207900000000000000e+04,4.240031242370605469e-01,1.798480033874511719e+00,3.640032515758100939e-01,0.000000000000000000e+00,1.120000000000000000e+02
1.000000000000000000e+00,1.000000000000000000e+00,1.000000000000000000e+00,6.700000000000000000e+01,2.214600000000000000e+04,4.502680301666259766e-01,1.739799976348876953e+00,3.039477894356257814e-01,0.000000000000000000e+00,1.120000000000000000e+02
0.000000000000000000e+00,1.000000000000000000e+00,0.000000000000000000e+00,6.200000000000000000e+01,2.220800000000000000e+04,3.954269886016845703e-01,1.914206981658935547e+00,5.179893409944631433e-01,0.000000000000000000e+00,1.120000000000000000e+02
0.000000000000000000e+00,1.000000000000000000e+00,0.000000000000000000e+00,6.100000000000000000e+01,2.226900000000000000e+04,3.729119300842285156e-01,2.001099109649658203e+00,6.357643953049321173e-01,0.000000000000000000e+00,1.120000000000000000e+02
0.000000000000000000e+00,1.000000000000000000e+00,0.000000000000000000e+00,6.200000000000000000e+01,2.233100000000000000e+04,3.578159809112548828e-01,1.643558979034423828e+00,2.964100365222507860e-01,0.000000000000000000e+00,1.120000000000000000e+02
1.000000000000000000e+00,1.000000000000000000e+00,1.000000000000000000e+00,6.200000000000000000e+01,2.239300000000000000e+04,4.445071220397949219e-01,1.888895988464355469e+00,4.684956451481191442e-01,0.000000000000000000e+00,1.120000000000000000e+02
0.000000000000000000e+00,1.000000000000000000e+00,0.000000000000000000e+00,6.300000000000000000e+01,2.245600000000000000e+04,3.666291236877441406e-01,2.084687948226928711e+00,7.196803872929576906e-01,0.000000000000000000e+00,1.120000000000000000e+02
1.000000000000000000e+00,1.000000000000000000e+00,1.000000000000000000e+00,5.700000000000000000e+01,2.251300000000000000e+04,3.533818721771240234e-01,1.626183986663818359e+00,2.797161778125149545e-01,0.000000000000000000e+00,1.120000000000000000e+02
1.000000000000000000e+00,1.000000000000000000e+00,1.000000000000000000e+00,5.600000000000000000e+01,2.256900000000000000e+04,5.177121162414550781e-01,1.920617818832397461e+00,4.169094183953626076e-01,0.000000000000000000e+00,1.120000000000000000e+02
1.000000000000000000e+00,1.000000000000000000e+00,1.000000000000000000e+00,6.000000000000000000e+01,2.262900000000000000e+04,4.374308586120605469e-01,2.179495096206665039e+00,7.461561483708156750e-01,0.000000000000000000e+00,1.120000000000000000e+02
0.000000000000000000e+00,1.000000000000000000e+00,0.000000000000000000e+00,5.600000000000000000e+01,2.268500000000000000e+04,3.808798789978027344e-01,2.058319091796875000e+00,6.879742885731658930e-01,0.000000000000000000e+00,1.120000000000000000e+02
0.000000000000000000e+00,1.000000000000000000e+00,0.000000000000000000e+00,6.400000000000000000e+01,2.274900000000000000e+04,3.873059749603271484e-01,2.006089925765991211e+00,6.275524331478399276e-01,0.000000000000000000e+00,1.120000000000000000e+02
0.000000000000000000e+00,1.000000000000000000e+00,0.000000000000000000e+00,6.500000000000000000e+01,2.281400000000000000e+04,3.823311328887939453e-01,1.859240055084228516e+00,4.869973093877000836e-01,0.000000000000000000e+00,1.120000000000000000e+02
0.000000000000000000e+00,1.000000000000000000e+00,0.000000000000000000e+00,6.200000000000000000e+01,2.287600000000000000e+04,5.017449855804443359e-01,1.764132022857666016e+00,2.681329753600056875e-01,0.000000000000000000e+00,1.120000000000000000e+02
1.000000000000000000e+00,1.000000000000000000e+00,1.000000000000000000e+00,6.300000000000000000e+01,2.293900000000000000e+04,4.561460018157958984e-01,2.180251836776733398e+00,7.313093319075352206e-01,0.000000000000000000e+00,1.120000000000000000e+02
0.000000000000000000e+00,1.000000000000000000e+00,0.000000000000000000e+00,6.200000000000000000e+01,2.300100000000000000e+04,3.426070213317871094e-01,1.816180229187011719e+00,4.977766103985882817e-01,0.000000000000000000e+00,1.120000000000000000e+02
1.000000000000000000e+00,1.000000000000000000e+00,1.000000000000000000e+00,6.600000000000000000e+01,2.306700000000000000e+04,4.249820709228515625e-01,2.143605947494506836e+00,7.412090321620325994e-01,0.000000000000000000e+00,1.120000000000000000e+02
1.000000000000000000e+00,0.000000000000000000e+00,0.000000000000000000e+00,3.700000000000000000e+01,2.310400000000000000e+04,3.920500278472900391e-01,2.114197015762329102e+00,7.388457792623331910e-01,1.000000000000000000e+00,1.110000000000000000e+02
1.000000000000000000e+00,1.000000000000000000e+00,1.000000000000000000e+00,5.600000000000000000e+01,2.316000000000000000e+04,3.464498519897460938e-01,1.834774971008300781e+00,4.906672623691171742e-01,0.000000000000000000e+00,1.110000000000000000e+02
0.000000000000000000e+00,1.000000000000000000e+00,0.000000000000000000e+00,6.400000000000000000e+01,2.322400000000000000e+04,4.472129344940185547e-01,2.095926046371459961e+00,6.531228332907099698e-01,0.000000000000000000e+00,1.110000000000000000e+02
1.000000000000000000e+00,1.000000000000000000e+00,1.000000000000000000e+00,6.400000000000000000e+01,2.328800000000000000e+04,3.111698627471923828e-01,1.888484954833984375e+00,5.917607790629426656e-01,0.000000000000000000e+00,1.110000000000000000e+02
0.000000000000000000e+00,1.000000000000000000e+00,0.000000000000000000e+00,6.400000000000000000e+01,2.335200000000000000e+04,3.709559440612792969e-01,1.818802118301391602e+00,4.609755797060120508e-01,0.000000000000000000e+00,1.110000000000000000e+02
0.000000000000000000e+00,1.000000000000000000e+00,0.000000000000000000e+00,6.200000000000000000e+01,2.341400000000000000e+04,4.133551120758056641e-01,1.835479021072387695e+00,4.297060982669883566e-01,0.000000000000000000e+00,1.110000000000000000e+02
1.000000000000000000e+00,1.000000000000000000e+00,1.000000000000000000e+00,6.400000000000000000e+01,2.347800000000000000e+04,3.760869503021240234e-01,1.754992961883544922e+00,4.014838778725477453e-01,0.000000000000000000e+00,1.110000000000000000e+02
