choice, accuracy, solution,  reward, cumulative_reward, rt,  total_trial_time, iti, cp_with_slow_fast, high_val_cue
0.000000000000000000e+00,0.000000000000000000e+00,1.000000000000000000e+00,4.600000000000000000e+01,4.600000000000000000e+01,5.711059570312500000e-01,1.853767871856689453e+00,2.900221387792643046e-01,0.000000000000000000e+00,1.120000000000000000e+02
1.000000000000000000e+00,1.000000000000000000e+00,1.000000000000000000e+00,5.500000000000000000e+01,1.010000000000000000e+02,2.760839462280273438e-01,1.947055101394653320e+00,6.867240585718904500e-01,0.000000000000000000e+00,1.120000000000000000e+02
0.000000000000000000e+00,0.000000000000000000e+00,1.000000000000000000e+00,4.200000000000000000e+01,1.430000000000000000e+02,1.761808395385742188e-01,1.549247026443481445e+00,3.863462308329193018e-01,0.000000000000000000e+00,1.120000000000000000e+02
0.000000000000000000e+00,1.000000000000000000e+00,0.000000000000000000e+00,5.600000000000000000e+01,1.990000000000000000e+02,3.022091388702392578e-01,1.688901901245117188e+00,3.919803043901085027e-01,0.000000000000000000e+00,1.120000000000000000e+02
0.000000000000000000e+00,1.000000000000000000e+00,0.000000000000000000e+00,5.500000000000000000e+01,2.540000000000000000e+02,3.010101318359375000e-01,1.809247016906738281e+00,5.177682181054243937e-01,0.000000000000000000e+00,1.120000000000000000e+02
1.000000000000000000e+00,1.000000000000000000e+00,1.000000000000000000e+00,5.600000000000000000e+01,3.100000000000000000e+02,4.254519939422607422e-01,2.155686855316162109e+00,7.399528137076303302e-01,0.000000000000000000e+00,1.120000000000000000e+02
0.000000000000000000e+00,1.000000000000000000e+00,0.000000000000000000e+00,5.200000000000000000e+01,3.620000000000000000e+02,2.785370349884033203e-01,1.762708902359008789e+00,4.863478526918382228e-01,0.000000000000000000e+00,1.120000000000000000e+02
0.000000000000000000e+00,1.000000000000000000e+00,0.000000000000000000e+00,5.200000000000000000e+01,4.140000000000000000e+02,3.357961177825927734e-01,1.978315114974975586e+00,6.478806998187790489e-01,0.000000000000000000e+00,1.120000000000000000e+02
0.000000000000000000e+00,1.000000000000000000e+00,0.000000000000000000e+00,5.200000000000000000e+01,4.660000000000000000e+02,3.113131523132324219e-01,1.592693805694580078e+00,3.076728891744420769e-01,0.000000000000000000e+00,1.120000000000000000e+02
1.000000000000000000e+00,1.000000000000000000e+00,1.000000000000000000e+00,5.600000000000000000e+01,5.220000000000000000e+02,3.653600215911865234e-01,1.712075948715209961e+00,3.530725736089179723e-01,0.000000000000000000e+00,1.120000000000000000e+02
0.000000000000000000e+00,1.000000000000000000e+00,0.000000000000000000e+00,5.100000000000000000e+01,5.730000000000000000e+02,3.347420692443847656e-01,1.674865007400512695e+00,3.446840566818244467e-01,0.000000000000000000e+00,1.120000000000000000e+02
1.000000000000000000e+00,1.000000000000000000e+00,1.000000000000000000e+00,6.000000000000000000e+01,6.330000000000000000e+02,3.510899543762207031e-01,1.979859113693237305e+00,6.409583528250113460e-01,0.000000000000000000e+00,1.120000000000000000e+02
0.000000000000000000e+00,1.000000000000000000e+00,0.000000000000000000e+00,5.500000000000000000e+01,6.880000000000000000e+02,1.358900070190429688e-01,1.521686077117919922e+00,3.963217775468307891e-01,0.000000000000000000e+00,1.120000000000000000e+02
0.000000000000000000e+00,1.000000000000000000e+00,0.000000000000000000e+00,5.300000000000000000e+01,7.410000000000000000e+02,3.592798709869384766e-01,1.857272863388061523e+00,5.201289984342682970e-01,0.000000000000000000e+00,1.120000000000000000e+02
0.000000000000000000e+00,1.000000000000000000e+00,0.000000000000000000e+00,5.100000000000000000e+01,7.920000000000000000e+02,2.975690364837646484e-01,1.557058095932006836e+00,2.608639060118395081e-01,0.000000000000000000e+00,1.120000000000000000e+02
0.000000000000000000e+00,1.000000000000000000e+00,0.000000000000000000e+00,5.300000000000000000e+01,8.450000000000000000e+02,4.476990699768066406e-01,2.133102178573608398e+00,6.936069443191099637e-01,0.000000000000000000e+00,1.120000000000000000e+02
1.000000000000000000e+00,1.000000000000000000e+00,1.000000000000000000e+00,5.700000000000000000e+01,9.020000000000000000e+02,2.744529247283935547e-01,1.996940851211547852e+00,7.405248813516234208e-01,0.000000000000000000e+00,1.120000000000000000e+02
0.000000000000000000e+00,1.000000000000000000e+00,0.000000000000000000e+00,5.500000000000000000e+01,9.570000000000000000e+02,2.804539203643798828e-01,1.591071844100952148e+00,3.154390333849185213e-01,0.000000000000000000e+00,1.120000000000000000e+02
1.000000000000000000e+00,1.000000000000000000e+00,1.000000000000000000e+00,6.000000000000000000e+01,1.017000000000000000e+03,5.862338542938232422e-01,2.196316957473754883e+00,6.281715670052492317e-01,0.000000000000000000e+00,1.120000000000000000e+02
1.000000000000000000e+00,1.000000000000000000e+00,1.000000000000000000e+00,5.100000000000000000e+01,1.068000000000000000e+03,3.432929515838623047e-01,1.908819913864135742e+00,5.870651039349221723e-01,0.000000000000000000e+00,1.120000000000000000e+02
0.000000000000000000e+00,1.000000000000000000e+00,0.000000000000000000e+00,5.400000000000000000e+01,1.122000000000000000e+03,3.226180076599121094e-01,1.755867958068847656e+00,4.431630097029092274e-01,0.000000000000000000e+00,1.120000000000000000e+02
0.000000000000000000e+00,1.000000000000000000e+00,0.000000000000000000e+00,5.100000000000000000e+01,1.173000000000000000e+03,3.496508598327636719e-01,1.697935104370117188e+00,3.579010943951122514e-01,0.000000000000000000e+00,1.120000000000000000e+02
0.000000000000000000e+00,1.000000000000000000e+00,0.000000000000000000e+00,5.400000000000000000e+01,1.227000000000000000e+03,6.986989974975585938e-01,2.304291963577270508e+00,6.119967071639305090e-01,0.000000000000000000e+00,1.120000000000000000e+02
1.000000000000000000e+00,1.000000000000000000e+00,1.000000000000000000e+00,5.400000000000000000e+01,1.281000000000000000e+03,2.918369770050048828e-01,1.769110918045043945e+00,4.979440970787572529e-01,0.000000000000000000e+00,1.120000000000000000e+02
1.000000000000000000e+00,1.000000000000000000e+00,1.000000000000000000e+00,5.400000000000000000e+01,1.335000000000000000e+03,3.471939563751220703e-01,1.732696771621704102e+00,3.974742719836273919e-01,0.000000000000000000e+00,1.120000000000000000e+02
0.000000000000000000e+00,1.000000000000000000e+00,0.000000000000000000e+00,5.600000000000000000e+01,1.391000000000000000e+03,3.820199966430664062e-01,2.061678886413574219e+00,6.922625929031465120e-01,0.000000000000000000e+00,1.120000000000000000e+02
1.000000000000000000e+00,1.000000000000000000e+00,1.000000000000000000e+00,5.100000000000000000e+01,1.442000000000000000e+03,3.484189510345458984e-01,1.826137065887451172e+00,4.853489888914772066e-01,0.000000000000000000e+00,1.120000000000000000e+02
0.000000000000000000e+00,1.000000000000000000e+00,0.000000000000000000e+00,5.600000000000000000e+01,1.498000000000000000e+03,3.591520786285400391e-01,1.737534999847412109e+00,3.896853143323268376e-01,0.000000000000000000e+00,1.120000000000000000e+02
0.000000000000000000e+00,1.000000000000000000e+00,0.000000000000000000e+00,5.900000000000000000e+01,1.557000000000000000e+03,4.269931316375732422e-01,1.993847846984863281e+00,5.667482963290544351e-01,0.000000000000000000e+00,1.120000000000000000e+02
0.000000000000000000e+00,1.000000000000000000e+00,0.000000000000000000e+00,5.300000000000000000e+01,1.610000000000000000e+03,4.409680366516113281e-01,2.156785011291503906e+00,7.234339676340284520e-01,0.000000000000000000e+00,1.120000000000000000e+02
0.000000000000000000e+00,1.000000000000000000e+00,0.000000000000000000e+00,5.600000000000000000e+01,1.666000000000000000e+03,3.090298175811767578e-01,2.042376995086669922e+00,7.491725669489954775e-01,0.000000000000000000e+00,1.120000000000000000e+02
1.000000000000000000e+00,1.000000000000000000e+00,1.000000000000000000e+00,5.600000000000000000e+01,1.722000000000000000e+03,3.241081237792968750e-01,1.865135908126831055e+00,5.479223475031824719e-01,0.000000000000000000e+00,1.120000000000000000e+02
0.000000000000000000e+00,1.000000000000000000e+00,0.000000000000000000e+00,5.600000000000000000e+01,1.778000000000000000e+03,5.590498447418212891e-01,1.919471025466918945e+00,3.843215288311579991e-01,0.000000000000000000e+00,1.120000000000000000e+02
1.000000000000000000e+00,1.000000000000000000e+00,1.000000000000000000e+00,5.900000000000000000e+01,1.837000000000000000e+03,4.378731250762939453e-01,1.822584152221679688e+00,3.902425549885731315e-01,0.000000000000000000e+00,1.120000000000000000e+02
0.000000000000000000e+00,1.000000000000000000e+00,0.000000000000000000e+00,5.400000000000000000e+01,1.891000000000000000e+03,3.771688938140869141e-01,1.651893854141235352e+00,2.923294742458160678e-01,0.000000000000000000e+00,1.120000000000000000e+02
0.000000000000000000e+00,1.000000000000000000e+00,0.000000000000000000e+00,5.600000000000000000e+01,1.947000000000000000e+03,4.163169860839843750e-01,1.783477067947387695e+00,3.757644773009561345e-01,0.000000000000000000e+00,1.120000000000000000e+02
0.000000000000000000e+00,1.000000000000000000e+00,0.000000000000000000e+00,5.600000000000000000e+01,2.003000000000000000e+03,3.479309082031250000e-01,1.911239147186279297e+00,5.701816834093853537e-01,0.000000000000000000e+00,1.120000000000000000e+02
0.000000000000000000e+00,1.000000000000000000e+00,0.000000000000000000e+00,5.600000000000000000e+01,2.059000000000000000e+03,3.113629817962646484e-01,1.798151016235351562e+00,5.017934367491352354e-01,0.000000000000000000e+00,1.120000000000000000e+02
1.000000000000000000e+00,1.000000000000000000e+00,1.000000000000000000e+00,5.600000000000000000e+01,2.115000000000000000e+03,3.915209770202636719e-01,1.957934856414794922e+00,5.764074395694706032e-01,0.000000000000000000e+00,1.120000000000000000e+02
1.000000000000000000e+00,1.000000000000000000e+00,1.000000000000000000e+00,5.300000000000000000e+01,2.168000000000000000e+03,3.425710201263427734e-01,1.895040988922119141e+00,5.718636377435680762e-01,0.000000000000000000e+00,1.120000000000000000e+02
1.000000000000000000e+00,1.000000000000000000e+00,1.000000000000000000e+00,5.600000000000000000e+01,2.224000000000000000e+03,3.636679649353027344e-01,1.709867954254150391e+00,3.483149483665923807e-01,0.000000000000000000e+00,1.120000000000000000e+02
0.000000000000000000e+00,1.000000000000000000e+00,0.000000000000000000e+00,5.600000000000000000e+01,2.280000000000000000e+03,4.037940502166748047e-01,1.650108098983764648e+00,2.652214124357084035e-01,0.000000000000000000e+00,1.120000000000000000e+02
1.000000000000000000e+00,1.000000000000000000e+00,1.000000000000000000e+00,5.700000000000000000e+01,2.337000000000000000e+03,3.768010139465332031e-01,1.901424884796142578e+00,5.497415357064043828e-01,0.000000000000000000e+00,1.120000000000000000e+02
0.000000000000000000e+00,1.000000000000000000e+00,0.000000000000000000e+00,5.600000000000000000e+01,2.393000000000000000e+03,4.635949134826660156e-01,2.029920101165771484e+00,5.630637763733323808e-01,0.000000000000000000e+00,1.120000000000000000e+02
0.000000000000000000e+00,1.000000000000000000e+00,0.000000000000000000e+00,5.600000000000000000e+01,2.449000000000000000e+03,3.534591197967529297e-01,1.778728961944580078e+00,4.419437362964024341e-01,0.000000000000000000e+00,1.120000000000000000e+02
0.000000000000000000e+00,1.000000000000000000e+00,0.000000000000000000e+00,5.400000000000000000e+01,2.503000000000000000e+03,7.863562107086181641e-01,2.392990112304687500e+00,6.181730164187060339e-01,0.000000000000000000e+00,1.120000000000000000e+02
1.000000000000000000e+00,1.000000000000000000e+00,1.000000000000000000e+00,5.100000000000000000e+01,2.554000000000000000e+03,3.442668914794921875e-01,1.973713874816894531e+00,6.419348651815048878e-01,0.000000000000000000e+00,1.120000000000000000e+02
1.000000000000000000e+00,1.000000000000000000e+00,1.000000000000000000e+00,5.100000000000000000e+01,2.605000000000000000e+03,3.427319526672363281e-01,1.615020990371704102e+00,2.906935735086829675e-01,0.000000000000000000e+00,1.120000000000000000e+02
0.000000000000000000e+00,0.000000000000000000e+00,1.000000000000000000e+00,4.900000000000000000e+01,2.654000000000000000e+03,3.780848979949951172e-01,1.638137817382812500e+00,2.789074017069376743e-01,0.000000000000000000e+00,1.120000000000000000e+02
0.000000000000000000e+00,1.000000000000000000e+00,0.000000000000000000e+00,5.600000000000000000e+01,2.710000000000000000e+03,3.728430271148681641e-01,2.098748922348022461e+00,7.438888899680341504e-01,0.000000000000000000e+00,1.120000000000000000e+02
1.000000000000000000e+00,0.000000000000000000e+00,0.000000000000000000e+00,4.700000000000000000e+01,2.757000000000000000e+03,3.460021018981933594e-01,1.814718961715698242e+00,4.756398490188155082e-01,0.000000000000000000e+00,1.120000000000000000e+02
0.000000000000000000e+00,1.000000000000000000e+00,0.000000000000000000e+00,5.300000000000000000e+01,2.810000000000000000e+03,3.534121513366699219e-01,1.790511131286621094e+00,4.495951792544294334e-01,0.000000000000000000e+00,1.120000000000000000e+02
0.000000000000000000e+00,1.000000000000000000e+00,0.000000000000000000e+00,5.000000000000000000e+01,2.860000000000000000e+03,3.165049552917480469e-01,1.630858898162841797e+00,3.139679501916342041e-01,0.000000000000000000e+00,1.120000000000000000e+02
1.000000000000000000e+00,1.000000000000000000e+00,1.000000000000000000e+00,5.600000000000000000e+01,2.916000000000000000e+03,3.747720718383789062e-01,1.846893072128295898e+00,4.940570048267579617e-01,0.000000000000000000e+00,1.120000000000000000e+02
0.000000000000000000e+00,1.000000000000000000e+00,0.000000000000000000e+00,5.200000000000000000e+01,2.968000000000000000e+03,3.568210601806640625e-01,1.942585945129394531e+00,6.032502757722302267e-01,0.000000000000000000e+00,1.120000000000000000e+02
1.000000000000000000e+00,1.000000000000000000e+00,1.000000000000000000e+00,5.600000000000000000e+01,3.024000000000000000e+03,4.070129394531250000e-01,2.074239969253540039e+00,6.774688386238559845e-01,0.000000000000000000e+00,1.120000000000000000e+02
0.000000000000000000e+00,1.000000000000000000e+00,0.000000000000000000e+00,6.000000000000000000e+01,3.084000000000000000e+03,2.633130550384521484e-01,1.665725946426391602e+00,4.102151459829853075e-01,0.000000000000000000e+00,1.120000000000000000e+02
1.000000000000000000e+00,1.000000000000000000e+00,1.000000000000000000e+00,5.500000000000000000e+01,3.139000000000000000e+03,4.037139415740966797e-01,1.713711977005004883e+00,3.239824614637246691e-01,0.000000000000000000e+00,1.120000000000000000e+02
0.000000000000000000e+00,1.000000000000000000e+00,0.000000000000000000e+00,5.200000000000000000e+01,3.191000000000000000e+03,4.131801128387451172e-01,1.847453117370605469e+00,4.381242892013853529e-01,0.000000000000000000e+00,1.120000000000000000e+02
0.000000000000000000e+00,1.000000000000000000e+00,0.000000000000000000e+00,5.300000000000000000e+01,3.244000000000000000e+03,3.032779693603515625e-01,1.656612873077392578e+00,3.615268406816284363e-01,0.000000000000000000e+00,1.120000000000000000e+02
0.000000000000000000e+00,1.000000000000000000e+00,0.000000000000000000e+00,5.200000000000000000e+01,3.296000000000000000e+03,3.623938560485839844e-01,1.954848051071166992e+00,5.995454354987663770e-01,0.000000000000000000e+00,1.120000000000000000e+02
1.000000000000000000e+00,1.000000000000000000e+00,1.000000000000000000e+00,5.500000000000000000e+01,3.351000000000000000e+03,2.397179603576660156e-01,1.713549137115478516e+00,4.799270115247535329e-01,0.000000000000000000e+00,1.120000000000000000e+02
1.000000000000000000e+00,1.000000000000000000e+00,1.000000000000000000e+00,5.300000000000000000e+01,3.404000000000000000e+03,3.587670326232910156e-01,1.704679012298583984e+00,3.681037101564478831e-01,0.000000000000000000e+00,1.120000000000000000e+02
0.000000000000000000e+00,1.000000000000000000e+00,0.000000000000000000e+00,5.200000000000000000e+01,3.456000000000000000e+03,3.681130409240722656e-01,1.877573966979980469e+00,5.122442218489784427e-01,0.000000000000000000e+00,1.120000000000000000e+02
1.000000000000000000e+00,1.000000000000000000e+00,1.000000000000000000e+00,5.100000000000000000e+01,3.507000000000000000e+03,3.375899791717529297e-01,1.840349912643432617e+00,5.193447714364931578e-01,0.000000000000000000e+00,1.120000000000000000e+02
0.000000000000000000e+00,1.000000000000000000e+00,0.000000000000000000e+00,5.500000000000000000e+01,3.562000000000000000e+03,2.136719226837158203e-01,1.480651855468750000e+00,2.669612056703204450e-01,0.000000000000000000e+00,1.120000000000000000e+02
0.000000000000000000e+00,1.000000000000000000e+00,0.000000000000000000e+00,5.300000000000000000e+01,3.615000000000000000e+03,4.912791252136230469e-01,1.852540016174316406e+00,3.694624686971351157e-01,0.000000000000000000e+00,1.120000000000000000e+02
1.000000000000000000e+00,1.000000000000000000e+00,1.000000000000000000e+00,5.000000000000000000e+01,3.665000000000000000e+03,3.904519081115722656e-01,1.646004915237426758e+00,2.656140611443244537e-01,0.000000000000000000e+00,1.120000000000000000e+02
0.000000000000000000e+00,1.000000000000000000e+00,0.000000000000000000e+00,5.200000000000000000e+01,3.717000000000000000e+03,3.744659423828125000e-01,1.802140951156616211e+00,4.343038919019026611e-01,0.000000000000000000e+00,1.120000000000000000e+02
1.000000000000000000e+00,1.000000000000000000e+00,1.000000000000000000e+00,5.600000000000000000e+01,3.773000000000000000e+03,3.135020732879638672e-01,1.949207067489624023e+00,6.333730123501353226e-01,0.000000000000000000e+00,1.120000000000000000e+02
0.000000000000000000e+00,1.000000000000000000e+00,0.000000000000000000e+00,5.300000000000000000e+01,3.826000000000000000e+03,2.946109771728515625e-01,1.609232902526855469e+00,3.263328493600075042e-01,0.000000000000000000e+00,1.120000000000000000e+02
1.000000000000000000e+00,1.000000000000000000e+00,1.000000000000000000e+00,5.500000000000000000e+01,3.881000000000000000e+03,3.746678829193115234e-01,1.801716089248657227e+00,4.446042343157925458e-01,0.000000000000000000e+00,1.120000000000000000e+02
0.000000000000000000e+00,0.000000000000000000e+00,1.000000000000000000e+00,4.800000000000000000e+01,3.929000000000000000e+03,3.687050342559814453e-01,1.831916093826293945e+00,4.765388272006138015e-01,0.000000000000000000e+00,1.120000000000000000e+02
0.000000000000000000e+00,1.000000000000000000e+00,0.000000000000000000e+00,5.000000000000000000e+01,3.979000000000000000e+03,2.844870090484619141e-01,1.802481889724731445e+00,5.290512518123762220e-01,0.000000000000000000e+00,1.120000000000000000e+02
1.000000000000000000e+00,1.000000000000000000e+00,1.000000000000000000e+00,5.500000000000000000e+01,4.034000000000000000e+03,2.515048980712890625e-01,1.640372037887573242e+00,4.029497064843464149e-01,0.000000000000000000e+00,1.120000000000000000e+02
0.000000000000000000e+00,1.000000000000000000e+00,0.000000000000000000e+00,5.200000000000000000e+01,4.086000000000000000e+03,3.535418510437011719e-01,1.731958866119384766e+00,3.849542515451816471e-01,0.000000000000000000e+00,1.120000000000000000e+02
1.000000000000000000e+00,1.000000000000000000e+00,1.000000000000000000e+00,5.500000000000000000e+01,4.141000000000000000e+03,3.102798461914062500e-01,1.888228178024291992e+00,5.896983672360660567e-01,0.000000000000000000e+00,1.120000000000000000e+02
1.000000000000000000e+00,1.000000000000000000e+00,1.000000000000000000e+00,5.400000000000000000e+01,4.195000000000000000e+03,5.780508518218994141e-01,1.845962047576904297e+00,2.693429893400443031e-01,0.000000000000000000e+00,1.120000000000000000e+02
0.000000000000000000e+00,1.000000000000000000e+00,0.000000000000000000e+00,5.100000000000000000e+01,4.246000000000000000e+03,3.700618743896484375e-01,1.856469869613647461e+00,4.923357047972455880e-01,0.000000000000000000e+00,1.120000000000000000e+02
1.000000000000000000e+00,1.000000000000000000e+00,1.000000000000000000e+00,5.600000000000000000e+01,4.302000000000000000e+03,2.791318893432617188e-01,1.753777027130126953e+00,4.795310521408185367e-01,0.000000000000000000e+00,1.120000000000000000e+02
0.000000000000000000e+00,1.000000000000000000e+00,0.000000000000000000e+00,5.500000000000000000e+01,4.357000000000000000e+03,2.961931228637695312e-01,1.688845157623291016e+00,4.018635022377923249e-01,0.000000000000000000e+00,1.120000000000000000e+02
0.000000000000000000e+00,1.000000000000000000e+00,0.000000000000000000e+00,5.400000000000000000e+01,4.411000000000000000e+03,3.532419204711914062e-01,1.910332918167114258e+00,5.620825937000328842e-01,0.000000000000000000e+00,1.120000000000000000e+02
0.000000000000000000e+00,1.000000000000000000e+00,0.000000000000000000e+00,5.200000000000000000e+01,4.463000000000000000e+03,4.143180847167968750e-01,1.960515022277832031e+00,5.559767381129085972e-01,0.000000000000000000e+00,1.120000000000000000e+02
0.000000000000000000e+00,1.000000000000000000e+00,0.000000000000000000e+00,5.400000000000000000e+01,4.517000000000000000e+03,3.257498741149902344e-01,1.819797039031982422e+00,5.092307327396092820e-01,0.000000000000000000e+00,1.120000000000000000e+02
0.000000000000000000e+00,1.000000000000000000e+00,0.000000000000000000e+00,5.200000000000000000e+01,4.569000000000000000e+03,3.610739707946777344e-01,1.854984045028686523e+00,4.976200232316279060e-01,0.000000000000000000e+00,1.120000000000000000e+02
0.000000000000000000e+00,1.000000000000000000e+00,0.000000000000000000e+00,5.500000000000000000e+01,4.624000000000000000e+03,4.031240940093994141e-01,2.095467090606689453e+00,7.095841870152346242e-01,0.000000000000000000e+00,1.120000000000000000e+02
1.000000000000000000e+00,1.000000000000000000e+00,1.000000000000000000e+00,5.600000000000000000e+01,4.680000000000000000e+03,3.601958751678466797e-01,1.633332967758178711e+00,2.934370587328051228e-01,0.000000000000000000e+00,1.120000000000000000e+02
0.000000000000000000e+00,1.000000000000000000e+00,0.000000000000000000e+00,5.400000000000000000e+01,4.734000000000000000e+03,3.912911415100097656e-01,1.831505060195922852e+00,4.415155563314683840e-01,0.000000000000000000e+00,1.120000000000000000e+02
1.000000000000000000e+00,1.000000000000000000e+00,1.000000000000000000e+00,5.600000000000000000e+01,4.790000000000000000e+03,3.416879177093505859e-01,1.790973901748657227e+00,4.658215905704550241e-01,0.000000000000000000e+00,1.120000000000000000e+02
0.000000000000000000e+00,1.000000000000000000e+00,0.000000000000000000e+00,5.400000000000000000e+01,4.844000000000000000e+03,3.387100696563720703e-01,1.746807813644409180e+00,4.127638540469316109e-01,0.000000000000000000e+00,1.120000000000000000e+02
0.000000000000000000e+00,1.000000000000000000e+00,0.000000000000000000e+00,5.300000000000000000e+01,4.897000000000000000e+03,3.324189186096191406e-01,1.715404987335205078e+00,3.949071997258791211e-01,0.000000000000000000e+00,1.120000000000000000e+02
0.000000000000000000e+00,1.000000000000000000e+00,0.000000000000000000e+00,5.300000000000000000e+01,4.950000000000000000e+03,3.298189640045166016e-01,1.756934881210327148e+00,4.351803624404626536e-01,0.000000000000000000e+00,1.120000000000000000e+02
0.000000000000000000e+00,1.000000000000000000e+00,0.000000000000000000e+00,5.600000000000000000e+01,5.006000000000000000e+03,3.532378673553466797e-01,1.886236190795898438e+00,5.380850202240061719e-01,0.000000000000000000e+00,1.120000000000000000e+02
1.000000000000000000e+00,1.000000000000000000e+00,1.000000000000000000e+00,5.200000000000000000e+01,5.058000000000000000e+03,2.920570373535156250e-01,1.786657810211181641e+00,5.081372924164480054e-01,0.000000000000000000e+00,1.120000000000000000e+02
0.000000000000000000e+00,1.000000000000000000e+00,0.000000000000000000e+00,5.900000000000000000e+01,5.117000000000000000e+03,3.047819137573242188e-01,1.717072010040283203e+00,4.253458870374537404e-01,0.000000000000000000e+00,1.120000000000000000e+02
1.000000000000000000e+00,1.000000000000000000e+00,1.000000000000000000e+00,5.400000000000000000e+01,5.171000000000000000e+03,3.661470413208007812e-01,1.730077981948852539e+00,3.722209109082481038e-01,0.000000000000000000e+00,1.120000000000000000e+02
1.000000000000000000e+00,0.000000000000000000e+00,0.000000000000000000e+00,4.000000000000000000e+01,5.211000000000000000e+03,3.977630138397216797e-01,1.855017900466918945e+00,4.605515132593319128e-01,1.000000000000000000e+00,1.110000000000000000e+02
1.000000000000000000e+00,0.000000000000000000e+00,0.000000000000000000e+00,4.400000000000000000e+01,5.255000000000000000e+03,3.879239559173583984e-01,2.091598033905029297e+00,7.185820998491367906e-01,0.000000000000000000e+00,1.110000000000000000e+02
0.000000000000000000e+00,0.000000000000000000e+00,1.000000000000000000e+00,4.200000000000000000e+01,5.297000000000000000e+03,3.089468479156494141e-01,1.861949205398559570e+00,5.640407070334096939e-01,0.000000000000000000e+00,1.110000000000000000e+02
1.000000000000000000e+00,0.000000000000000000e+00,0.000000000000000000e+00,4.200000000000000000e+01,5.339000000000000000e+03,3.760099411010742188e-01,1.637846946716308594e+00,2.856121781969034323e-01,0.000000000000000000e+00,1.110000000000000000e+02
1.000000000000000000e+00,1.000000000000000000e+00,1.000000000000000000e+00,6.000000000000000000e+01,5.399000000000000000e+03,6.660640239715576172e-01,2.410046100616455078e+00,7.452654918693001340e-01,0.000000000000000000e+00,1.110000000000000000e+02
0.000000000000000000e+00,0.000000000000000000e+00,1.000000000000000000e+00,4.000000000000000000e+01,5.439000000000000000e+03,2.272050380706787109e-01,1.566724061965942383e+00,3.624192166413114369e-01,0.000000000000000000e+00,1.110000000000000000e+02
0.000000000000000000e+00,1.000000000000000000e+00,0.000000000000000000e+00,5.600000000000000000e+01,5.495000000000000000e+03,3.206238746643066406e-01,1.555876970291137695e+00,2.518058665781320316e-01,0.000000000000000000e+00,1.110000000000000000e+02
1.000000000000000000e+00,1.000000000000000000e+00,1.000000000000000000e+00,5.300000000000000000e+01,5.548000000000000000e+03,3.830060958862304688e-01,1.781162023544311523e+00,3.995375502723971239e-01,0.000000000000000000e+00,1.110000000000000000e+02
1.000000000000000000e+00,1.000000000000000000e+00,1.000000000000000000e+00,5.600000000000000000e+01,5.604000000000000000e+03,3.557519912719726562e-01,1.750610113143920898e+00,4.001898186256143131e-01,0.000000000000000000e+00,1.110000000000000000e+02
1.000000000000000000e+00,1.000000000000000000e+00,1.000000000000000000e+00,6.300000000000000000e+01,5.667000000000000000e+03,3.457901477813720703e-01,1.763473987579345703e+00,4.137426269903984877e-01,0.000000000000000000e+00,1.110000000000000000e+02
1.000000000000000000e+00,1.000000000000000000e+00,1.000000000000000000e+00,5.600000000000000000e+01,5.723000000000000000e+03,3.449521064758300781e-01,1.794585943222045898e+00,4.583187834130966753e-01,0.000000000000000000e+00,1.110000000000000000e+02
1.000000000000000000e+00,1.000000000000000000e+00,1.000000000000000000e+00,6.200000000000000000e+01,5.785000000000000000e+03,3.479158878326416016e-01,1.993052959442138672e+00,6.512093817032973408e-01,0.000000000000000000e+00,1.110000000000000000e+02
1.000000000000000000e+00,1.000000000000000000e+00,1.000000000000000000e+00,5.600000000000000000e+01,5.841000000000000000e+03,2.549788951873779297e-01,1.765290975570678711e+00,5.166833398211005957e-01,0.000000000000000000e+00,1.110000000000000000e+02
1.000000000000000000e+00,1.000000000000000000e+00,1.000000000000000000e+00,6.000000000000000000e+01,5.901000000000000000e+03,4.213941097259521484e-01,1.959404945373535156e+00,5.428344346807977283e-01,0.000000000000000000e+00,1.110000000000000000e+02
1.000000000000000000e+00,1.000000000000000000e+00,1.000000000000000000e+00,5.600000000000000000e+01,5.957000000000000000e+03,3.554589748382568359e-01,1.768970966339111328e+00,4.286542827671782629e-01,0.000000000000000000e+00,1.110000000000000000e+02
1.000000000000000000e+00,1.000000000000000000e+00,1.000000000000000000e+00,6.100000000000000000e+01,6.018000000000000000e+03,4.258649349212646484e-01,1.770607948303222656e+00,3.660270427310625130e-01,0.000000000000000000e+00,1.110000000000000000e+02
0.000000000000000000e+00,1.000000000000000000e+00,0.000000000000000000e+00,6.200000000000000000e+01,6.080000000000000000e+03,3.865590095520019531e-01,1.799113988876342773e+00,4.151465187828431436e-01,0.000000000000000000e+00,1.110000000000000000e+02
1.000000000000000000e+00,1.000000000000000000e+00,1.000000000000000000e+00,5.700000000000000000e+01,6.137000000000000000e+03,4.119079113006591797e-01,1.924295902252197266e+00,4.893982526380856735e-01,0.000000000000000000e+00,1.110000000000000000e+02
0.000000000000000000e+00,1.000000000000000000e+00,0.000000000000000000e+00,6.000000000000000000e+01,6.197000000000000000e+03,2.820520401000976562e-01,1.683962106704711914e+00,4.068597143889951528e-01,0.000000000000000000e+00,1.110000000000000000e+02
1.000000000000000000e+00,1.000000000000000000e+00,1.000000000000000000e+00,6.100000000000000000e+01,6.258000000000000000e+03,3.797900676727294922e-01,1.656402111053466797e+00,2.801161162267208904e-01,0.000000000000000000e+00,1.110000000000000000e+02
1.000000000000000000e+00,1.000000000000000000e+00,1.000000000000000000e+00,6.300000000000000000e+01,6.321000000000000000e+03,5.648021697998046875e-01,2.019072055816650391e+00,4.656659784292122573e-01,0.000000000000000000e+00,1.110000000000000000e+02
0.000000000000000000e+00,1.000000000000000000e+00,0.000000000000000000e+00,6.100000000000000000e+01,6.382000000000000000e+03,4.286189079284667969e-01,1.702405929565429688e+00,2.683691402816130167e-01,0.000000000000000000e+00,1.110000000000000000e+02
1.000000000000000000e+00,1.000000000000000000e+00,1.000000000000000000e+00,6.400000000000000000e+01,6.446000000000000000e+03,3.835439682006835938e-01,1.968441009521484375e+00,5.865306331147037699e-01,0.000000000000000000e+00,1.110000000000000000e+02
0.000000000000000000e+00,1.000000000000000000e+00,0.000000000000000000e+00,6.200000000000000000e+01,6.508000000000000000e+03,3.449778556823730469e-01,2.070666074752807617e+00,7.237610096693292139e-01,0.000000000000000000e+00,1.110000000000000000e+02
0.000000000000000000e+00,1.000000000000000000e+00,0.000000000000000000e+00,6.000000000000000000e+01,6.568000000000000000e+03,3.624589443206787109e-01,1.871233940124511719e+00,5.119757847986574628e-01,0.000000000000000000e+00,1.110000000000000000e+02
1.000000000000000000e+00,1.000000000000000000e+00,1.000000000000000000e+00,5.900000000000000000e+01,6.627000000000000000e+03,3.427639007568359375e-01,1.824328184127807617e+00,5.030219363477833605e-01,0.000000000000000000e+00,1.110000000000000000e+02
1.000000000000000000e+00,1.000000000000000000e+00,1.000000000000000000e+00,5.600000000000000000e+01,6.683000000000000000e+03,3.605430126190185547e-01,1.800605058670043945e+00,4.537437470601761169e-01,0.000000000000000000e+00,1.110000000000000000e+02
0.000000000000000000e+00,1.000000000000000000e+00,0.000000000000000000e+00,5.500000000000000000e+01,6.738000000000000000e+03,3.045399188995361328e-01,1.567132949829101562e+00,2.711616161693240490e-01,0.000000000000000000e+00,1.110000000000000000e+02
0.000000000000000000e+00,1.000000000000000000e+00,0.000000000000000000e+00,5.900000000000000000e+01,6.797000000000000000e+03,3.999590873718261719e-01,1.691074848175048828e+00,2.955664904767003609e-01,0.000000000000000000e+00,1.110000000000000000e+02
0.000000000000000000e+00,1.000000000000000000e+00,0.000000000000000000e+00,5.600000000000000000e+01,6.853000000000000000e+03,4.467158317565917969e-01,1.877789020538330078e+00,4.399403715321514863e-01,0.000000000000000000e+00,1.110000000000000000e+02
0.000000000000000000e+00,1.000000000000000000e+00,0.000000000000000000e+00,5.700000000000000000e+01,6.910000000000000000e+03,2.834022045135498047e-01,1.875045061111450195e+00,5.982101534281150101e-01,0.000000000000000000e+00,1.110000000000000000e+02
1.000000000000000000e+00,1.000000000000000000e+00,1.000000000000000000e+00,6.100000000000000000e+01,6.971000000000000000e+03,3.058390617370605469e-01,1.764263868331909180e+00,4.792946725948659670e-01,0.000000000000000000e+00,1.110000000000000000e+02
0.000000000000000000e+00,1.000000000000000000e+00,0.000000000000000000e+00,5.600000000000000000e+01,7.027000000000000000e+03,2.763390541076660156e-01,1.891921043395996094e+00,6.378020763077998367e-01,0.000000000000000000e+00,1.110000000000000000e+02
0.000000000000000000e+00,1.000000000000000000e+00,0.000000000000000000e+00,6.500000000000000000e+01,7.092000000000000000e+03,3.633079528808593750e-01,1.832823038101196289e+00,4.708520778900200376e-01,0.000000000000000000e+00,1.110000000000000000e+02
1.000000000000000000e+00,1.000000000000000000e+00,1.000000000000000000e+00,6.100000000000000000e+01,7.153000000000000000e+03,3.670718669891357422e-01,2.028531074523925781e+00,6.658808021826005952e-01,0.000000000000000000e+00,1.110000000000000000e+02
0.000000000000000000e+00,1.000000000000000000e+00,0.000000000000000000e+00,6.400000000000000000e+01,7.217000000000000000e+03,2.397949695587158203e-01,1.786077976226806641e+00,5.521547797867392138e-01,0.000000000000000000e+00,1.110000000000000000e+02
1.000000000000000000e+00,1.000000000000000000e+00,1.000000000000000000e+00,6.400000000000000000e+01,7.281000000000000000e+03,3.055620193481445312e-01,1.574243068695068359e+00,2.767343948730095482e-01,0.000000000000000000e+00,1.110000000000000000e+02
1.000000000000000000e+00,1.000000000000000000e+00,1.000000000000000000e+00,6.400000000000000000e+01,7.345000000000000000e+03,6.168339252471923828e-01,2.052745103836059570e+00,4.460155810588491976e-01,0.000000000000000000e+00,1.110000000000000000e+02
1.000000000000000000e+00,1.000000000000000000e+00,1.000000000000000000e+00,6.000000000000000000e+01,7.405000000000000000e+03,3.478670120239257812e-01,1.842966079711914062e+00,5.057957430187097758e-01,0.000000000000000000e+00,1.110000000000000000e+02
1.000000000000000000e+00,1.000000000000000000e+00,1.000000000000000000e+00,6.000000000000000000e+01,7.465000000000000000e+03,3.579499721527099609e-01,1.599813938140869141e+00,2.557765880871397668e-01,0.000000000000000000e+00,1.110000000000000000e+02
0.000000000000000000e+00,1.000000000000000000e+00,0.000000000000000000e+00,5.600000000000000000e+01,7.521000000000000000e+03,4.219958782196044922e-01,2.109066009521484375e+00,6.977964640561488130e-01,0.000000000000000000e+00,1.110000000000000000e+02
1.000000000000000000e+00,1.000000000000000000e+00,1.000000000000000000e+00,6.200000000000000000e+01,7.583000000000000000e+03,3.280549049377441406e-01,1.817044019699096680e+00,5.151027036612755294e-01,0.000000000000000000e+00,1.110000000000000000e+02
1.000000000000000000e+00,1.000000000000000000e+00,1.000000000000000000e+00,6.300000000000000000e+01,7.646000000000000000e+03,3.634641170501708984e-01,1.865856170654296875e+00,5.143604248095337006e-01,0.000000000000000000e+00,1.110000000000000000e+02
1.000000000000000000e+00,1.000000000000000000e+00,1.000000000000000000e+00,5.700000000000000000e+01,7.703000000000000000e+03,3.640210628509521484e-01,2.012861967086791992e+00,6.604691386179237789e-01,0.000000000000000000e+00,1.110000000000000000e+02
0.000000000000000000e+00,1.000000000000000000e+00,0.000000000000000000e+00,5.900000000000000000e+01,7.762000000000000000e+03,2.992858886718750000e-01,1.769938945770263672e+00,4.806274000147629510e-01,0.000000000000000000e+00,1.110000000000000000e+02
0.000000000000000000e+00,1.000000000000000000e+00,0.000000000000000000e+00,6.100000000000000000e+01,7.823000000000000000e+03,3.096759319305419922e-01,1.656505107879638672e+00,3.706400794628670892e-01,0.000000000000000000e+00,1.110000000000000000e+02
0.000000000000000000e+00,1.000000000000000000e+00,0.000000000000000000e+00,5.600000000000000000e+01,7.879000000000000000e+03,4.680998325347900391e-01,2.171190023422241211e+00,7.082566989124616796e-01,0.000000000000000000e+00,1.110000000000000000e+02
0.000000000000000000e+00,1.000000000000000000e+00,0.000000000000000000e+00,6.500000000000000000e+01,7.944000000000000000e+03,2.595930099487304688e-01,1.583286046981811523e+00,3.419334970404440122e-01,0.000000000000000000e+00,1.110000000000000000e+02
0.000000000000000000e+00,1.000000000000000000e+00,0.000000000000000000e+00,6.500000000000000000e+01,8.009000000000000000e+03,3.772101402282714844e-01,2.095350980758666992e+00,7.369473443883169939e-01,0.000000000000000000e+00,1.110000000000000000e+02
1.000000000000000000e+00,1.000000000000000000e+00,1.000000000000000000e+00,6.000000000000000000e+01,8.069000000000000000e+03,3.052890300750732422e-01,1.598732233047485352e+00,3.028396622205850597e-01,0.000000000000000000e+00,1.110000000000000000e+02
0.000000000000000000e+00,1.000000000000000000e+00,0.000000000000000000e+00,5.900000000000000000e+01,8.128000000000000000e+03,4.193990230560302734e-01,2.108367919921875000e+00,6.941802677191777349e-01,0.000000000000000000e+00,1.110000000000000000e+02
0.000000000000000000e+00,1.000000000000000000e+00,0.000000000000000000e+00,5.200000000000000000e+01,8.180000000000000000e+03,2.864029407501220703e-01,1.928245067596435547e+00,6.558777596156366574e-01,0.000000000000000000e+00,1.110000000000000000e+02
1.000000000000000000e+00,1.000000000000000000e+00,1.000000000000000000e+00,6.000000000000000000e+01,8.240000000000000000e+03,4.152150154113769531e-01,1.873034954071044922e+00,4.625047877383230976e-01,0.000000000000000000e+00,1.110000000000000000e+02
1.000000000000000000e+00,1.000000000000000000e+00,1.000000000000000000e+00,5.700000000000000000e+01,8.297000000000000000e+03,3.596329689025878906e-01,1.732100009918212891e+00,3.947513955770880489e-01,0.000000000000000000e+00,1.110000000000000000e+02
0.000000000000000000e+00,1.000000000000000000e+00,0.000000000000000000e+00,5.200000000000000000e+01,8.349000000000000000e+03,3.983190059661865234e-01,1.866466999053955078e+00,4.778628578068073174e-01,0.000000000000000000e+00,1.110000000000000000e+02
1.000000000000000000e+00,1.000000000000000000e+00,1.000000000000000000e+00,5.400000000000000000e+01,8.403000000000000000e+03,3.716251850128173828e-01,1.817106962203979492e+00,4.617130699108388248e-01,0.000000000000000000e+00,1.110000000000000000e+02
1.000000000000000000e+00,1.000000000000000000e+00,1.000000000000000000e+00,6.200000000000000000e+01,8.465000000000000000e+03,3.521120548248291016e-01,2.010166168212890625e+00,6.717283992684337512e-01,0.000000000000000000e+00,1.110000000000000000e+02
1.000000000000000000e+00,1.000000000000000000e+00,1.000000000000000000e+00,6.300000000000000000e+01,8.528000000000000000e+03,3.075530529022216797e-01,1.598778009414672852e+00,3.042381488920326560e-01,0.000000000000000000e+00,1.110000000000000000e+02
1.000000000000000000e+00,1.000000000000000000e+00,1.000000000000000000e+00,5.700000000000000000e+01,8.585000000000000000e+03,3.916189670562744141e-01,1.701023817062377930e+00,3.219834461584423213e-01,0.000000000000000000e+00,1.110000000000000000e+02
0.000000000000000000e+00,1.000000000000000000e+00,0.000000000000000000e+00,5.600000000000000000e+01,8.641000000000000000e+03,5.626189708709716797e-01,2.022993087768554688e+00,4.615569060241828114e-01,0.000000000000000000e+00,1.110000000000000000e+02
1.000000000000000000e+00,1.000000000000000000e+00,1.000000000000000000e+00,5.700000000000000000e+01,8.698000000000000000e+03,3.540661334991455078e-01,1.624642133712768555e+00,2.864241221866333231e-01,0.000000000000000000e+00,1.110000000000000000e+02
0.000000000000000000e+00,1.000000000000000000e+00,0.000000000000000000e+00,6.000000000000000000e+01,8.758000000000000000e+03,4.477930068969726562e-01,1.774214982986450195e+00,3.273227772456676621e-01,0.000000000000000000e+00,1.110000000000000000e+02
1.000000000000000000e+00,1.000000000000000000e+00,1.000000000000000000e+00,5.700000000000000000e+01,8.815000000000000000e+03,4.471571445465087891e-01,2.079322099685668945e+00,6.397277429688650319e-01,0.000000000000000000e+00,1.110000000000000000e+02
0.000000000000000000e+00,1.000000000000000000e+00,0.000000000000000000e+00,5.600000000000000000e+01,8.871000000000000000e+03,2.469501495361328125e-01,1.678499937057495117e+00,4.351589675690494263e-01,0.000000000000000000e+00,1.110000000000000000e+02
1.000000000000000000e+00,1.000000000000000000e+00,1.000000000000000000e+00,6.000000000000000000e+01,8.931000000000000000e+03,4.066638946533203125e-01,1.939552068710327148e+00,5.413434799195063762e-01,0.000000000000000000e+00,1.110000000000000000e+02
1.000000000000000000e+00,1.000000000000000000e+00,1.000000000000000000e+00,5.900000000000000000e+01,8.990000000000000000e+03,4.304430484771728516e-01,1.897517919540405273e+00,4.723311385749445201e-01,0.000000000000000000e+00,1.110000000000000000e+02
1.000000000000000000e+00,1.000000000000000000e+00,1.000000000000000000e+00,6.100000000000000000e+01,9.051000000000000000e+03,4.743990898132324219e-01,1.934365034103393555e+00,4.733936386361749515e-01,0.000000000000000000e+00,1.110000000000000000e+02
1.000000000000000000e+00,1.000000000000000000e+00,1.000000000000000000e+00,5.900000000000000000e+01,9.110000000000000000e+03,5.040719509124755859e-01,2.228573083877563477e+00,7.351044107757269686e-01,0.000000000000000000e+00,1.110000000000000000e+02
1.000000000000000000e+00,1.000000000000000000e+00,1.000000000000000000e+00,6.000000000000000000e+01,9.170000000000000000e+03,4.398331642150878906e-01,1.885226964950561523e+00,4.540002260251659316e-01,0.000000000000000000e+00,1.110000000000000000e+02
0.000000000000000000e+00,1.000000000000000000e+00,0.000000000000000000e+00,6.200000000000000000e+01,9.232000000000000000e+03,2.757339477539062500e-01,1.975179910659790039e+00,6.956920709595080243e-01,0.000000000000000000e+00,1.110000000000000000e+02
1.000000000000000000e+00,1.000000000000000000e+00,1.000000000000000000e+00,5.600000000000000000e+01,9.288000000000000000e+03,2.651031017303466797e-01,1.531819820404052734e+00,2.780013541978937353e-01,0.000000000000000000e+00,1.110000000000000000e+02
0.000000000000000000e+00,0.000000000000000000e+00,1.000000000000000000e+00,4.300000000000000000e+01,9.331000000000000000e+03,6.708140373229980469e-01,2.344086170196533203e+00,6.884007184652998212e-01,0.000000000000000000e+00,1.110000000000000000e+02
1.000000000000000000e+00,1.000000000000000000e+00,1.000000000000000000e+00,6.000000000000000000e+01,9.391000000000000000e+03,3.519120216369628906e-01,1.725692987442016602e+00,3.811113794405469601e-01,0.000000000000000000e+00,1.110000000000000000e+02
0.000000000000000000e+00,1.000000000000000000e+00,0.000000000000000000e+00,5.600000000000000000e+01,9.447000000000000000e+03,4.382019042968750000e-01,1.949014902114868164e+00,5.300442373764284731e-01,0.000000000000000000e+00,1.110000000000000000e+02
0.000000000000000000e+00,1.000000000000000000e+00,0.000000000000000000e+00,6.400000000000000000e+01,9.511000000000000000e+03,2.952930927276611328e-01,1.680274009704589844e+00,3.938314033010787973e-01,0.000000000000000000e+00,1.110000000000000000e+02
1.000000000000000000e+00,1.000000000000000000e+00,1.000000000000000000e+00,6.000000000000000000e+01,9.571000000000000000e+03,3.390719890594482422e-01,1.876918792724609375e+00,5.540020086972332614e-01,0.000000000000000000e+00,1.110000000000000000e+02
1.000000000000000000e+00,1.000000000000000000e+00,1.000000000000000000e+00,6.400000000000000000e+01,9.635000000000000000e+03,4.298059940338134766e-01,1.867708206176757812e+00,4.385584517447147501e-01,0.000000000000000000e+00,1.110000000000000000e+02
0.000000000000000000e+00,1.000000000000000000e+00,0.000000000000000000e+00,5.700000000000000000e+01,9.692000000000000000e+03,3.192389011383056641e-01,1.706941843032836914e+00,3.955926036310580818e-01,0.000000000000000000e+00,1.110000000000000000e+02
0.000000000000000000e+00,1.000000000000000000e+00,0.000000000000000000e+00,5.900000000000000000e+01,9.751000000000000000e+03,3.932490348815917969e-01,1.971544981002807617e+00,6.003368285106096547e-01,0.000000000000000000e+00,1.110000000000000000e+02
1.000000000000000000e+00,1.000000000000000000e+00,1.000000000000000000e+00,6.000000000000000000e+01,9.811000000000000000e+03,3.468978404998779297e-01,1.919648885726928711e+00,5.700317838956635574e-01,0.000000000000000000e+00,1.110000000000000000e+02
0.000000000000000000e+00,1.000000000000000000e+00,0.000000000000000000e+00,5.600000000000000000e+01,9.867000000000000000e+03,2.542970180511474609e-01,1.655477046966552734e+00,4.090684409088057305e-01,0.000000000000000000e+00,1.110000000000000000e+02
1.000000000000000000e+00,1.000000000000000000e+00,1.000000000000000000e+00,5.600000000000000000e+01,9.923000000000000000e+03,3.903670310974121094e-01,1.654589891433715820e+00,2.805502232665926243e-01,0.000000000000000000e+00,1.110000000000000000e+02
1.000000000000000000e+00,1.000000000000000000e+00,1.000000000000000000e+00,5.600000000000000000e+01,9.979000000000000000e+03,3.565189838409423828e-01,2.050372838973999023e+00,7.138673052861184143e-01,0.000000000000000000e+00,1.110000000000000000e+02
0.000000000000000000e+00,1.000000000000000000e+00,0.000000000000000000e+00,5.700000000000000000e+01,1.003600000000000000e+04,2.225780487060546875e-01,1.891924858093261719e+00,6.891921041307819129e-01,0.000000000000000000e+00,1.110000000000000000e+02
0.000000000000000000e+00,1.000000000000000000e+00,0.000000000000000000e+00,5.900000000000000000e+01,1.009500000000000000e+04,2.936549186706542969e-01,1.694984912872314453e+00,4.178226484349876202e-01,0.000000000000000000e+00,1.110000000000000000e+02
1.000000000000000000e+00,1.000000000000000000e+00,1.000000000000000000e+00,6.100000000000000000e+01,1.015600000000000000e+04,4.697060585021972656e-01,1.820725202560424805e+00,3.553581989934434526e-01,0.000000000000000000e+00,1.110000000000000000e+02
0.000000000000000000e+00,1.000000000000000000e+00,0.000000000000000000e+00,5.900000000000000000e+01,1.021500000000000000e+04,3.520898818969726562e-01,1.697253942489624023e+00,3.527104336031733900e-01,0.000000000000000000e+00,1.110000000000000000e+02
1.000000000000000000e+00,1.000000000000000000e+00,1.000000000000000000e+00,5.900000000000000000e+01,1.027400000000000000e+04,5.661499500274658203e-01,2.312931060791015625e+00,7.486107485079280810e-01,0.000000000000000000e+00,1.110000000000000000e+02
0.000000000000000000e+00,1.000000000000000000e+00,0.000000000000000000e+00,5.600000000000000000e+01,1.033000000000000000e+04,3.444809913635253906e-01,1.731520891189575195e+00,3.972227996520494853e-01,0.000000000000000000e+00,1.110000000000000000e+02
0.000000000000000000e+00,1.000000000000000000e+00,0.000000000000000000e+00,6.100000000000000000e+01,1.039100000000000000e+04,3.628711700439453125e-01,2.027340173721313477e+00,6.743370328452917839e-01,0.000000000000000000e+00,1.110000000000000000e+02
1.000000000000000000e+00,1.000000000000000000e+00,1.000000000000000000e+00,6.400000000000000000e+01,1.045500000000000000e+04,2.806739807128906250e-01,1.526453971862792969e+00,2.512704012686283739e-01,0.000000000000000000e+00,1.110000000000000000e+02
0.000000000000000000e+00,1.000000000000000000e+00,0.000000000000000000e+00,5.900000000000000000e+01,1.051400000000000000e+04,4.123711585998535156e-01,1.824908971786499023e+00,4.094306071806275149e-01,0.000000000000000000e+00,1.110000000000000000e+02
1.000000000000000000e+00,1.000000000000000000e+00,1.000000000000000000e+00,6.000000000000000000e+01,1.057400000000000000e+04,2.597670555114746094e-01,1.761699914932250977e+00,5.210367528991556307e-01,0.000000000000000000e+00,1.110000000000000000e+02
1.000000000000000000e+00,1.000000000000000000e+00,1.000000000000000000e+00,6.200000000000000000e+01,1.063600000000000000e+04,3.332171440124511719e-01,1.735058069229125977e+00,4.063056428953191745e-01,0.000000000000000000e+00,1.110000000000000000e+02
0.000000000000000000e+00,0.000000000000000000e+00,1.000000000000000000e+00,4.300000000000000000e+01,1.067900000000000000e+04,3.529748916625976562e-01,1.862370014190673828e+00,5.186123953537020714e-01,1.000000000000000000e+00,1.120000000000000000e+02
0.000000000000000000e+00,1.000000000000000000e+00,0.000000000000000000e+00,5.200000000000000000e+01,1.073100000000000000e+04,2.853541374206542969e-01,1.974201917648315430e+00,6.926845386021690532e-01,0.000000000000000000e+00,1.120000000000000000e+02
0.000000000000000000e+00,1.000000000000000000e+00,0.000000000000000000e+00,5.300000000000000000e+01,1.078400000000000000e+04,3.026640415191650391e-01,1.559149980545043945e+00,2.689982694062622026e-01,0.000000000000000000e+00,1.120000000000000000e+02
0.000000000000000000e+00,1.000000000000000000e+00,0.000000000000000000e+00,5.400000000000000000e+01,1.083800000000000000e+04,3.750541210174560547e-01,2.087243795394897461e+00,7.225222391904706498e-01,0.000000000000000000e+00,1.120000000000000000e+02
1.000000000000000000e+00,1.000000000000000000e+00,1.000000000000000000e+00,5.300000000000000000e+01,1.089100000000000000e+04,3.118028640747070312e-01,1.822008848190307617e+00,5.114562948995557967e-01,0.000000000000000000e+00,1.120000000000000000e+02
1.000000000000000000e+00,1.000000000000000000e+00,1.000000000000000000e+00,5.400000000000000000e+01,1.094500000000000000e+04,3.811829090118408203e-01,1.919980049133300781e+00,5.481249326908346209e-01,0.000000000000000000e+00,1.120000000000000000e+02
1.000000000000000000e+00,1.000000000000000000e+00,1.000000000000000000e+00,5.900000000000000000e+01,1.100400000000000000e+04,3.526041507720947266e-01,1.720550060272216797e+00,3.855662350629701085e-01,0.000000000000000000e+00,1.120000000000000000e+02
0.000000000000000000e+00,1.000000000000000000e+00,0.000000000000000000e+00,5.400000000000000000e+01,1.105800000000000000e+04,3.833291530609130859e-01,2.001194953918457031e+00,6.199080987195260128e-01,0.000000000000000000e+00,1.120000000000000000e+02
1.000000000000000000e+00,1.000000000000000000e+00,1.000000000000000000e+00,5.400000000000000000e+01,1.111200000000000000e+04,3.563969135284423828e-01,1.706762075424194336e+00,3.603328825095457599e-01,0.000000000000000000e+00,1.120000000000000000e+02
1.000000000000000000e+00,1.000000000000000000e+00,1.000000000000000000e+00,5.500000000000000000e+01,1.116700000000000000e+04,4.454770088195800781e-01,1.793641090393066406e+00,3.540429276839467398e-01,0.000000000000000000e+00,1.120000000000000000e+02
0.000000000000000000e+00,1.000000000000000000e+00,0.000000000000000000e+00,5.500000000000000000e+01,1.122200000000000000e+04,3.225049972534179688e-01,1.925131082534790039e+00,6.122652676901337854e-01,0.000000000000000000e+00,1.120000000000000000e+02
1.000000000000000000e+00,1.000000000000000000e+00,1.000000000000000000e+00,6.000000000000000000e+01,1.128200000000000000e+04,2.979149818420410156e-01,1.875373840332031250e+00,5.877135553020093051e-01,0.000000000000000000e+00,1.120000000000000000e+02
0.000000000000000000e+00,1.000000000000000000e+00,0.000000000000000000e+00,5.200000000000000000e+01,1.133400000000000000e+04,3.138079643249511719e-01,1.815640926361083984e+00,5.035246059809862507e-01,0.000000000000000000e+00,1.120000000000000000e+02
0.000000000000000000e+00,1.000000000000000000e+00,0.000000000000000000e+00,5.100000000000000000e+01,1.138500000000000000e+04,4.852321147918701172e-01,1.773036956787109375e+00,2.935138771540578562e-01,0.000000000000000000e+00,1.120000000000000000e+02
1.000000000000000000e+00,1.000000000000000000e+00,1.000000000000000000e+00,5.000000000000000000e+01,1.143500000000000000e+04,5.954959392547607422e-01,1.922350168228149414e+00,3.325415947315383813e-01,0.000000000000000000e+00,1.120000000000000000e+02
0.000000000000000000e+00,1.000000000000000000e+00,0.000000000000000000e+00,5.200000000000000000e+01,1.148700000000000000e+04,4.862289428710937500e-01,1.904508829116821289e+00,4.201733543331800380e-01,0.000000000000000000e+00,1.120000000000000000e+02
0.000000000000000000e+00,1.000000000000000000e+00,0.000000000000000000e+00,5.500000000000000000e+01,1.154200000000000000e+04,4.073209762573242188e-01,2.058462142944335938e+00,6.619785823170480921e-01,0.000000000000000000e+00,1.120000000000000000e+02
1.000000000000000000e+00,1.000000000000000000e+00,1.000000000000000000e+00,5.400000000000000000e+01,1.159600000000000000e+04,3.494081497192382812e-01,1.638329029083251953e+00,3.007164673101105912e-01,0.000000000000000000e+00,1.120000000000000000e+02
1.000000000000000000e+00,1.000000000000000000e+00,1.000000000000000000e+00,5.700000000000000000e+01,1.165300000000000000e+04,5.344598293304443359e-01,2.190897941589355469e+00,6.579933101902533110e-01,0.000000000000000000e+00,1.120000000000000000e+02
0.000000000000000000e+00,1.000000000000000000e+00,0.000000000000000000e+00,5.500000000000000000e+01,1.170800000000000000e+04,2.533099651336669922e-01,1.720253944396972656e+00,4.784735787334112866e-01,0.000000000000000000e+00,1.120000000000000000e+02
1.000000000000000000e+00,1.000000000000000000e+00,1.000000000000000000e+00,5.200000000000000000e+01,1.176000000000000000e+04,3.735949993133544922e-01,1.813570022583007812e+00,4.588152898669911051e-01,0.000000000000000000e+00,1.120000000000000000e+02
0.000000000000000000e+00,1.000000000000000000e+00,0.000000000000000000e+00,5.900000000000000000e+01,1.181900000000000000e+04,2.800030708312988281e-01,1.543597936630249023e+00,2.693056198684926072e-01,0.000000000000000000e+00,1.120000000000000000e+02
0.000000000000000000e+00,1.000000000000000000e+00,0.000000000000000000e+00,5.500000000000000000e+01,1.187400000000000000e+04,3.610239028930664062e-01,1.719982147216796875e+00,3.559385374649879918e-01,0.000000000000000000e+00,1.120000000000000000e+02
0.000000000000000000e+00,1.000000000000000000e+00,0.000000000000000000e+00,6.000000000000000000e+01,1.193400000000000000e+04,3.203601837158203125e-01,1.718219041824340820e+00,4.075038005552785170e-01,0.000000000000000000e+00,1.120000000000000000e+02
0.000000000000000000e+00,0.000000000000000000e+00,1.000000000000000000e+00,4.300000000000000000e+01,1.197700000000000000e+04,4.027559757232666016e-01,1.961253881454467773e+00,5.686177555143061557e-01,0.000000000000000000e+00,1.120000000000000000e+02
1.000000000000000000e+00,1.000000000000000000e+00,1.000000000000000000e+00,5.500000000000000000e+01,1.203200000000000000e+04,3.241720199584960938e-01,1.803209066390991211e+00,4.886493143620861401e-01,0.000000000000000000e+00,1.120000000000000000e+02
1.000000000000000000e+00,1.000000000000000000e+00,1.000000000000000000e+00,5.300000000000000000e+01,1.208500000000000000e+04,5.741970539093017578e-01,2.163001060485839844e+00,6.015769403592223785e-01,0.000000000000000000e+00,1.120000000000000000e+02
1.000000000000000000e+00,1.000000000000000000e+00,1.000000000000000000e+00,5.200000000000000000e+01,1.213700000000000000e+04,3.626830577850341797e-01,1.784838914871215820e+00,4.200432428638796734e-01,0.000000000000000000e+00,1.120000000000000000e+02
0.000000000000000000e+00,1.000000000000000000e+00,0.000000000000000000e+00,5.200000000000000000e+01,1.218900000000000000e+04,3.304390907287597656e-01,2.019818067550659180e+00,6.895946786217443947e-01,0.000000000000000000e+00,1.120000000000000000e+02
1.000000000000000000e+00,1.000000000000000000e+00,1.000000000000000000e+00,5.300000000000000000e+01,1.224200000000000000e+04,3.617830276489257812e-01,1.758166074752807617e+00,3.981659254786936164e-01,0.000000000000000000e+00,1.120000000000000000e+02
1.000000000000000000e+00,1.000000000000000000e+00,1.000000000000000000e+00,5.200000000000000000e+01,1.229400000000000000e+04,3.748438358306884766e-01,1.776720046997070312e+00,4.248961061816698415e-01,0.000000000000000000e+00,1.120000000000000000e+02
0.000000000000000000e+00,1.000000000000000000e+00,0.000000000000000000e+00,5.200000000000000000e+01,1.234600000000000000e+04,3.205070495605468750e-01,1.602266073226928711e+00,2.940263927240506781e-01,0.000000000000000000e+00,1.120000000000000000e+02
0.000000000000000000e+00,1.000000000000000000e+00,0.000000000000000000e+00,5.500000000000000000e+01,1.240100000000000000e+04,3.666470050811767578e-01,2.061201095581054688e+00,7.048308097474752509e-01,0.000000000000000000e+00,1.120000000000000000e+02
1.000000000000000000e+00,1.000000000000000000e+00,1.000000000000000000e+00,5.600000000000000000e+01,1.245700000000000000e+04,3.040850162506103516e-01,1.602646827697753906e+00,3.079928099948154863e-01,0.000000000000000000e+00,1.120000000000000000e+02
1.000000000000000000e+00,1.000000000000000000e+00,1.000000000000000000e+00,5.000000000000000000e+01,1.250700000000000000e+04,5.291318893432617188e-01,1.956735134124755859e+00,4.313146868075437013e-01,0.000000000000000000e+00,1.120000000000000000e+02
0.000000000000000000e+00,1.000000000000000000e+00,0.000000000000000000e+00,5.500000000000000000e+01,1.256200000000000000e+04,3.512260913848876953e-01,1.795968055725097656e+00,4.606604818897923614e-01,0.000000000000000000e+00,1.120000000000000000e+02
1.000000000000000000e+00,1.000000000000000000e+00,1.000000000000000000e+00,5.400000000000000000e+01,1.261600000000000000e+04,4.592728614807128906e-01,1.967844963073730469e+00,5.284922433555019339e-01,0.000000000000000000e+00,1.120000000000000000e+02
0.000000000000000000e+00,1.000000000000000000e+00,0.000000000000000000e+00,5.500000000000000000e+01,1.267100000000000000e+04,4.177019596099853516e-01,1.809911012649536133e+00,4.052688605523571685e-01,0.000000000000000000e+00,1.120000000000000000e+02
0.000000000000000000e+00,1.000000000000000000e+00,0.000000000000000000e+00,5.100000000000000000e+01,1.272200000000000000e+04,4.611401557922363281e-01,2.097009897232055664e+00,6.520703253086443940e-01,0.000000000000000000e+00,1.120000000000000000e+02
1.000000000000000000e+00,1.000000000000000000e+00,1.000000000000000000e+00,5.400000000000000000e+01,1.277600000000000000e+04,3.131630420684814453e-01,1.600009918212890625e+00,2.858690111550873936e-01,0.000000000000000000e+00,1.120000000000000000e+02
1.000000000000000000e+00,1.000000000000000000e+00,1.000000000000000000e+00,5.600000000000000000e+01,1.283200000000000000e+04,5.052430629730224609e-01,2.131356954574584961e+00,6.335822095066860893e-01,0.000000000000000000e+00,1.120000000000000000e+02
1.000000000000000000e+00,1.000000000000000000e+00,1.000000000000000000e+00,5.300000000000000000e+01,1.288500000000000000e+04,4.339921474456787109e-01,1.937357187271118164e+00,5.044457311077212847e-01,0.000000000000000000e+00,1.120000000000000000e+02
1.000000000000000000e+00,1.000000000000000000e+00,1.000000000000000000e+00,5.600000000000000000e+01,1.294100000000000000e+04,6.037218570709228516e-01,2.191508054733276367e+00,5.959653262723336731e-01,0.000000000000000000e+00,1.120000000000000000e+02
1.000000000000000000e+00,1.000000000000000000e+00,1.000000000000000000e+00,5.400000000000000000e+01,1.299500000000000000e+04,3.344600200653076172e-01,1.832381963729858398e+00,5.117963847772677433e-01,0.000000000000000000e+00,1.120000000000000000e+02
1.000000000000000000e+00,1.000000000000000000e+00,1.000000000000000000e+00,5.300000000000000000e+01,1.304800000000000000e+04,3.612308502197265625e-01,1.594228029251098633e+00,2.563789229407240078e-01,0.000000000000000000e+00,1.120000000000000000e+02
0.000000000000000000e+00,1.000000000000000000e+00,0.000000000000000000e+00,5.400000000000000000e+01,1.310200000000000000e+04,4.512360095977783203e-01,1.814384937286376953e+00,3.706701286102169202e-01,0.000000000000000000e+00,1.120000000000000000e+02
1.000000000000000000e+00,1.000000000000000000e+00,1.000000000000000000e+00,5.700000000000000000e+01,1.315900000000000000e+04,3.816590309143066406e-01,1.761255025863647461e+00,3.820019138572072759e-01,0.000000000000000000e+00,1.120000000000000000e+02
1.000000000000000000e+00,1.000000000000000000e+00,1.000000000000000000e+00,5.600000000000000000e+01,1.321500000000000000e+04,3.867340087890625000e-01,1.771155118942260742e+00,4.031716899673437604e-01,0.000000000000000000e+00,1.120000000000000000e+02
0.000000000000000000e+00,1.000000000000000000e+00,0.000000000000000000e+00,5.500000000000000000e+01,1.327000000000000000e+04,3.085350990295410156e-01,1.911447048187255859e+00,6.144389882909292444e-01,0.000000000000000000e+00,1.120000000000000000e+02
1.000000000000000000e+00,1.000000000000000000e+00,1.000000000000000000e+00,5.100000000000000000e+01,1.332100000000000000e+04,2.804679870605468750e-01,1.713510990142822266e+00,4.449014756125204140e-01,0.000000000000000000e+00,1.120000000000000000e+02
0.000000000000000000e+00,1.000000000000000000e+00,0.000000000000000000e+00,5.600000000000000000e+01,1.337700000000000000e+04,3.148150444030761719e-01,2.043438911437988281e+00,7.380871553168484311e-01,0.000000000000000000e+00,1.120000000000000000e+02
1.000000000000000000e+00,1.000000000000000000e+00,1.000000000000000000e+00,5.500000000000000000e+01,1.343200000000000000e+04,3.409838676452636719e-01,1.912405014038085938e+00,5.840503494012889707e-01,0.000000000000000000e+00,1.120000000000000000e+02
1.000000000000000000e+00,1.000000000000000000e+00,1.000000000000000000e+00,5.300000000000000000e+01,1.348500000000000000e+04,3.633999824523925781e-01,1.952052831649780273e+00,5.861449599003853983e-01,0.000000000000000000e+00,1.120000000000000000e+02
0.000000000000000000e+00,1.000000000000000000e+00,0.000000000000000000e+00,5.200000000000000000e+01,1.353700000000000000e+04,4.054520130157470703e-01,1.781440019607543945e+00,3.844978803078104579e-01,0.000000000000000000e+00,1.120000000000000000e+02
0.000000000000000000e+00,1.000000000000000000e+00,0.000000000000000000e+00,5.300000000000000000e+01,1.359000000000000000e+04,3.831751346588134766e-01,2.102857828140258789e+00,7.204061757981721215e-01,0.000000000000000000e+00,1.120000000000000000e+02
1.000000000000000000e+00,1.000000000000000000e+00,1.000000000000000000e+00,5.600000000000000000e+01,1.364600000000000000e+04,3.773198127746582031e-01,2.092776060104370117e+00,7.132561196270870152e-01,0.000000000000000000e+00,1.120000000000000000e+02
0.000000000000000000e+00,1.000000000000000000e+00,0.000000000000000000e+00,5.000000000000000000e+01,1.369600000000000000e+04,3.589618206024169922e-01,1.878904104232788086e+00,5.424056736049369665e-01,0.000000000000000000e+00,1.120000000000000000e+02
1.000000000000000000e+00,1.000000000000000000e+00,1.000000000000000000e+00,5.200000000000000000e+01,1.374800000000000000e+04,4.187369346618652344e-01,1.754422903060913086e+00,3.470993686621465790e-01,0.000000000000000000e+00,1.120000000000000000e+02
1.000000000000000000e+00,1.000000000000000000e+00,1.000000000000000000e+00,5.700000000000000000e+01,1.380500000000000000e+04,4.737780094146728516e-01,1.924193143844604492e+00,4.712269901729119193e-01,0.000000000000000000e+00,1.120000000000000000e+02
1.000000000000000000e+00,1.000000000000000000e+00,1.000000000000000000e+00,5.700000000000000000e+01,1.386200000000000000e+04,3.595130443572998047e-01,2.004022836685180664e+00,6.584375507914128622e-01,0.000000000000000000e+00,1.120000000000000000e+02
0.000000000000000000e+00,1.000000000000000000e+00,0.000000000000000000e+00,5.400000000000000000e+01,1.391600000000000000e+04,2.614510059356689453e-01,1.759411096572875977e+00,5.014087983622262934e-01,0.000000000000000000e+00,1.120000000000000000e+02
1.000000000000000000e+00,1.000000000000000000e+00,1.000000000000000000e+00,5.600000000000000000e+01,1.397200000000000000e+04,3.738591670989990234e-01,1.757888078689575195e+00,3.928377432454401297e-01,0.000000000000000000e+00,1.120000000000000000e+02
0.000000000000000000e+00,1.000000000000000000e+00,0.000000000000000000e+00,5.100000000000000000e+01,1.402300000000000000e+04,4.150660037994384766e-01,1.760283946990966797e+00,3.531924124925007180e-01,0.000000000000000000e+00,1.120000000000000000e+02
1.000000000000000000e+00,1.000000000000000000e+00,1.000000000000000000e+00,5.700000000000000000e+01,1.408000000000000000e+04,4.003741741180419922e-01,1.859209060668945312e+00,4.623282383783926530e-01,0.000000000000000000e+00,1.120000000000000000e+02
0.000000000000000000e+00,1.000000000000000000e+00,0.000000000000000000e+00,5.200000000000000000e+01,1.413200000000000000e+04,4.085688591003417969e-01,1.659326076507568359e+00,2.719310676189847786e-01,0.000000000000000000e+00,1.120000000000000000e+02
0.000000000000000000e+00,1.000000000000000000e+00,0.000000000000000000e+00,5.600000000000000000e+01,1.418800000000000000e+04,4.048957824707031250e-01,2.102313995361328125e+00,7.072029864251235809e-01,0.000000000000000000e+00,1.120000000000000000e+02
1.000000000000000000e+00,1.000000000000000000e+00,1.000000000000000000e+00,5.000000000000000000e+01,1.423800000000000000e+04,2.478489875793457031e-01,1.614250898361206055e+00,3.718572758033911740e-01,0.000000000000000000e+00,1.120000000000000000e+02
1.000000000000000000e+00,0.000000000000000000e+00,0.000000000000000000e+00,4.600000000000000000e+01,1.428400000000000000e+04,4.642338752746582031e-01,1.908208131790161133e+00,4.467035942423750461e-01,0.000000000000000000e+00,1.120000000000000000e+02
1.000000000000000000e+00,1.000000000000000000e+00,1.000000000000000000e+00,5.400000000000000000e+01,1.433800000000000000e+04,3.953180313110351562e-01,1.974058866500854492e+00,5.873366411627134465e-01,0.000000000000000000e+00,1.120000000000000000e+02
1.000000000000000000e+00,1.000000000000000000e+00,1.000000000000000000e+00,5.500000000000000000e+01,1.439300000000000000e+04,3.580870628356933594e-01,1.826501131057739258e+00,4.806646115130008279e-01,0.000000000000000000e+00,1.120000000000000000e+02
1.000000000000000000e+00,1.000000000000000000e+00,1.000000000000000000e+00,5.300000000000000000e+01,1.444600000000000000e+04,5.474388599395751953e-01,2.240973949432373047e+00,7.048685078191625486e-01,0.000000000000000000e+00,1.120000000000000000e+02
0.000000000000000000e+00,1.000000000000000000e+00,0.000000000000000000e+00,6.100000000000000000e+01,1.450700000000000000e+04,3.175430297851562500e-01,1.779053926467895508e+00,4.674904710198603541e-01,0.000000000000000000e+00,1.120000000000000000e+02
0.000000000000000000e+00,1.000000000000000000e+00,0.000000000000000000e+00,5.400000000000000000e+01,1.456100000000000000e+04,4.812319278717041016e-01,2.073611974716186523e+00,5.910506817401959267e-01,0.000000000000000000e+00,1.120000000000000000e+02
0.000000000000000000e+00,1.000000000000000000e+00,0.000000000000000000e+00,5.100000000000000000e+01,1.461200000000000000e+04,3.477301597595214844e-01,1.614315032958984375e+00,2.724449337291290907e-01,0.000000000000000000e+00,1.120000000000000000e+02
1.000000000000000000e+00,1.000000000000000000e+00,1.000000000000000000e+00,5.300000000000000000e+01,1.466500000000000000e+04,5.050809383392333984e-01,1.796512842178344727e+00,3.022906842402959260e-01,0.000000000000000000e+00,1.120000000000000000e+02
0.000000000000000000e+00,1.000000000000000000e+00,0.000000000000000000e+00,5.600000000000000000e+01,1.472100000000000000e+04,6.510899066925048828e-01,2.008898973464965820e+00,3.612118931129620347e-01,0.000000000000000000e+00,1.120000000000000000e+02
1.000000000000000000e+00,1.000000000000000000e+00,1.000000000000000000e+00,5.100000000000000000e+01,1.477200000000000000e+04,6.572091579437255859e-01,2.369774818420410156e+00,7.306648087117404433e-01,0.000000000000000000e+00,1.120000000000000000e+02
0.000000000000000000e+00,1.000000000000000000e+00,0.000000000000000000e+00,5.600000000000000000e+01,1.482800000000000000e+04,4.996221065521240234e-01,1.880611896514892578e+00,3.950124437889604989e-01,0.000000000000000000e+00,1.120000000000000000e+02
0.000000000000000000e+00,1.000000000000000000e+00,0.000000000000000000e+00,5.600000000000000000e+01,1.488400000000000000e+04,3.413910865783691406e-01,1.744250059127807617e+00,4.226572451233825412e-01,0.000000000000000000e+00,1.120000000000000000e+02
0.000000000000000000e+00,1.000000000000000000e+00,0.000000000000000000e+00,5.000000000000000000e+01,1.493400000000000000e+04,3.343629837036132812e-01,1.838716983795166016e+00,5.113556584468823552e-01,0.000000000000000000e+00,1.120000000000000000e+02
0.000000000000000000e+00,1.000000000000000000e+00,0.000000000000000000e+00,5.500000000000000000e+01,1.498900000000000000e+04,3.161811828613281250e-01,1.829641103744506836e+00,5.243035699332986299e-01,0.000000000000000000e+00,1.120000000000000000e+02
1.000000000000000000e+00,1.000000000000000000e+00,1.000000000000000000e+00,5.600000000000000000e+01,1.504500000000000000e+04,3.100099563598632812e-01,2.002495050430297852e+00,6.933632594938636817e-01,0.000000000000000000e+00,1.120000000000000000e+02
0.000000000000000000e+00,1.000000000000000000e+00,0.000000000000000000e+00,5.000000000000000000e+01,1.509500000000000000e+04,2.979519367218017578e-01,1.741964101791381836e+00,4.523137947456887242e-01,0.000000000000000000e+00,1.120000000000000000e+02
1.000000000000000000e+00,1.000000000000000000e+00,1.000000000000000000e+00,5.200000000000000000e+01,1.514700000000000000e+04,3.200070858001708984e-01,1.979226827621459961e+00,6.647360387584637653e-01,0.000000000000000000e+00,1.120000000000000000e+02
1.000000000000000000e+00,1.000000000000000000e+00,1.000000000000000000e+00,5.200000000000000000e+01,1.519900000000000000e+04,3.424241542816162109e-01,1.679537773132324219e+00,3.613174654102035421e-01,0.000000000000000000e+00,1.120000000000000000e+02
1.000000000000000000e+00,1.000000000000000000e+00,1.000000000000000000e+00,5.500000000000000000e+01,1.525400000000000000e+04,5.322628021240234375e-01,2.223563194274902344e+00,7.012202548817640935e-01,0.000000000000000000e+00,1.120000000000000000e+02
1.000000000000000000e+00,1.000000000000000000e+00,1.000000000000000000e+00,5.600000000000000000e+01,1.531000000000000000e+04,3.759560585021972656e-01,2.088152885437011719e+00,7.227779249525905225e-01,0.000000000000000000e+00,1.120000000000000000e+02
0.000000000000000000e+00,1.000000000000000000e+00,0.000000000000000000e+00,5.200000000000000000e+01,1.536200000000000000e+04,6.947400569915771484e-01,2.266282081604003906e+00,5.726127508221829920e-01,0.000000000000000000e+00,1.120000000000000000e+02
1.000000000000000000e+00,1.000000000000000000e+00,1.000000000000000000e+00,5.000000000000000000e+01,1.541200000000000000e+04,3.451151847839355469e-01,2.080804109573364258e+00,7.366248392116309107e-01,0.000000000000000000e+00,1.120000000000000000e+02
0.000000000000000000e+00,0.000000000000000000e+00,1.000000000000000000e+00,4.300000000000000000e+01,1.545500000000000000e+04,3.269171714782714844e-01,1.957515954971313477e+00,6.276654098827849637e-01,0.000000000000000000e+00,1.120000000000000000e+02
1.000000000000000000e+00,1.000000000000000000e+00,1.000000000000000000e+00,5.100000000000000000e+01,1.550600000000000000e+04,3.609821796417236328e-01,1.678614139556884766e+00,3.067028309397391572e-01,0.000000000000000000e+00,1.120000000000000000e+02
0.000000000000000000e+00,1.000000000000000000e+00,0.000000000000000000e+00,5.300000000000000000e+01,1.555900000000000000e+04,5.056829452514648438e-01,2.126752853393554688e+00,6.331761974689176231e-01,0.000000000000000000e+00,1.120000000000000000e+02
1.000000000000000000e+00,1.000000000000000000e+00,1.000000000000000000e+00,5.600000000000000000e+01,1.561500000000000000e+04,3.243699073791503906e-01,1.682142972946166992e+00,3.656520411844211282e-01,0.000000000000000000e+00,1.120000000000000000e+02
0.000000000000000000e+00,1.000000000000000000e+00,0.000000000000000000e+00,5.400000000000000000e+01,1.566900000000000000e+04,4.292531013488769531e-01,2.008696079254150391e+00,5.741661075989961116e-01,0.000000000000000000e+00,1.120000000000000000e+02
1.000000000000000000e+00,1.000000000000000000e+00,1.000000000000000000e+00,5.400000000000000000e+01,1.572300000000000000e+04,9.041841030120849609e-01,2.151402950286865234e+00,2.593263497225331560e-01,0.000000000000000000e+00,1.120000000000000000e+02
0.000000000000000000e+00,1.000000000000000000e+00,0.000000000000000000e+00,5.400000000000000000e+01,1.577700000000000000e+04,7.152199745178222656e-01,2.206973075866699219e+00,4.994303478997965673e-01,0.000000000000000000e+00,1.120000000000000000e+02
1.000000000000000000e+00,1.000000000000000000e+00,1.000000000000000000e+00,5.300000000000000000e+01,1.583000000000000000e+04,3.336691856384277344e-01,1.856105089187622070e+00,5.222557681381012618e-01,0.000000000000000000e+00,1.120000000000000000e+02
1.000000000000000000e+00,1.000000000000000000e+00,1.000000000000000000e+00,5.400000000000000000e+01,1.588400000000000000e+04,3.437960147857666016e-01,1.665498971939086914e+00,3.213456508335056361e-01,0.000000000000000000e+00,1.120000000000000000e+02
1.000000000000000000e+00,1.000000000000000000e+00,1.000000000000000000e+00,5.100000000000000000e+01,1.593500000000000000e+04,4.650959968566894531e-01,1.993773937225341797e+00,5.316367122387655186e-01,0.000000000000000000e+00,1.120000000000000000e+02
1.000000000000000000e+00,0.000000000000000000e+00,0.000000000000000000e+00,4.400000000000000000e+01,1.597900000000000000e+04,4.098639488220214844e-01,2.076653003692626953e+00,6.915228791508076789e-01,1.000000000000000000e+00,1.110000000000000000e+02
1.000000000000000000e+00,0.000000000000000000e+00,0.000000000000000000e+00,4.400000000000000000e+01,1.602300000000000000e+04,2.966010570526123047e-01,1.591623067855834961e+00,3.002780286490868700e-01,0.000000000000000000e+00,1.110000000000000000e+02
0.000000000000000000e+00,1.000000000000000000e+00,0.000000000000000000e+00,5.700000000000000000e+01,1.608000000000000000e+04,3.926351070404052734e-01,1.904638051986694336e+00,5.213906548632835092e-01,0.000000000000000000e+00,1.110000000000000000e+02
0.000000000000000000e+00,1.000000000000000000e+00,0.000000000000000000e+00,5.700000000000000000e+01,1.613700000000000000e+04,3.396549224853515625e-01,1.889119863510131836e+00,5.605479650665345925e-01,0.000000000000000000e+00,1.110000000000000000e+02
0.000000000000000000e+00,1.000000000000000000e+00,0.000000000000000000e+00,5.000000000000000000e+01,1.618700000000000000e+04,3.154468536376953125e-01,1.832928895950317383e+00,5.268985828684936701e-01,0.000000000000000000e+00,1.110000000000000000e+02
1.000000000000000000e+00,1.000000000000000000e+00,1.000000000000000000e+00,5.700000000000000000e+01,1.624400000000000000e+04,3.421180248260498047e-01,1.591370105743408203e+00,2.686071176325839360e-01,0.000000000000000000e+00,1.110000000000000000e+02
1.000000000000000000e+00,1.000000000000000000e+00,1.000000000000000000e+00,5.400000000000000000e+01,1.629800000000000000e+04,4.301819801330566406e-01,1.700119972229003906e+00,2.687741675679175546e-01,0.000000000000000000e+00,1.110000000000000000e+02
1.000000000000000000e+00,1.000000000000000000e+00,1.000000000000000000e+00,5.200000000000000000e+01,1.635000000000000000e+04,3.313071727752685547e-01,1.884381055831909180e+00,5.529279135870385220e-01,0.000000000000000000e+00,1.110000000000000000e+02
1.000000000000000000e+00,1.000000000000000000e+00,1.000000000000000000e+00,5.400000000000000000e+01,1.640400000000000000e+04,3.650460243225097656e-01,2.048063993453979492e+00,6.842369992744002927e-01,0.000000000000000000e+00,1.110000000000000000e+02
0.000000000000000000e+00,1.000000000000000000e+00,0.000000000000000000e+00,6.100000000000000000e+01,1.646500000000000000e+04,5.061378479003906250e-01,2.188060045242309570e+00,6.890495143816359747e-01,0.000000000000000000e+00,1.110000000000000000e+02
1.000000000000000000e+00,1.000000000000000000e+00,1.000000000000000000e+00,6.000000000000000000e+01,1.652500000000000000e+04,2.828259468078613281e-01,1.797913074493408203e+00,5.205262085784418957e-01,0.000000000000000000e+00,1.110000000000000000e+02
0.000000000000000000e+00,1.000000000000000000e+00,0.000000000000000000e+00,5.600000000000000000e+01,1.658100000000000000e+04,3.009481430053710938e-01,1.582972049713134766e+00,2.871343378699078852e-01,0.000000000000000000e+00,1.110000000000000000e+02
0.000000000000000000e+00,1.000000000000000000e+00,0.000000000000000000e+00,5.500000000000000000e+01,1.663600000000000000e+04,4.547209739685058594e-01,1.940876007080078125e+00,4.945266760596194744e-01,0.000000000000000000e+00,1.110000000000000000e+02
0.000000000000000000e+00,1.000000000000000000e+00,0.000000000000000000e+00,5.500000000000000000e+01,1.669100000000000000e+04,2.904510498046875000e-01,1.925840854644775391e+00,6.535724452308189214e-01,0.000000000000000000e+00,1.110000000000000000e+02
1.000000000000000000e+00,1.000000000000000000e+00,1.000000000000000000e+00,5.600000000000000000e+01,1.674700000000000000e+04,2.910840511322021484e-01,2.004494905471801758e+00,7.247267827209575852e-01,0.000000000000000000e+00,1.110000000000000000e+02
0.000000000000000000e+00,1.000000000000000000e+00,0.000000000000000000e+00,5.900000000000000000e+01,1.680600000000000000e+04,3.362112045288085938e-01,1.855005979537963867e+00,5.300175872831909274e-01,0.000000000000000000e+00,1.110000000000000000e+02
1.000000000000000000e+00,1.000000000000000000e+00,1.000000000000000000e+00,5.500000000000000000e+01,1.686100000000000000e+04,4.112851619720458984e-01,1.761459112167358398e+00,3.583585767843762704e-01,0.000000000000000000e+00,1.110000000000000000e+02
1.000000000000000000e+00,1.000000000000000000e+00,1.000000000000000000e+00,5.700000000000000000e+01,1.691800000000000000e+04,4.116640090942382812e-01,1.737694025039672852e+00,3.294897700258462292e-01,0.000000000000000000e+00,1.110000000000000000e+02
1.000000000000000000e+00,1.000000000000000000e+00,1.000000000000000000e+00,5.700000000000000000e+01,1.697500000000000000e+04,4.093229770660400391e-01,1.929242849349975586e+00,5.418978335928789081e-01,0.000000000000000000e+00,1.110000000000000000e+02
0.000000000000000000e+00,1.000000000000000000e+00,0.000000000000000000e+00,5.600000000000000000e+01,1.703100000000000000e+04,2.711279392242431641e-01,1.770231962203979492e+00,5.121938533565935092e-01,0.000000000000000000e+00,1.110000000000000000e+02
1.000000000000000000e+00,1.000000000000000000e+00,1.000000000000000000e+00,5.200000000000000000e+01,1.708300000000000000e+04,3.795459270477294922e-01,1.824147939682006836e+00,4.531478133721646429e-01,0.000000000000000000e+00,1.110000000000000000e+02
1.000000000000000000e+00,1.000000000000000000e+00,1.000000000000000000e+00,5.700000000000000000e+01,1.714000000000000000e+04,3.632700443267822266e-01,1.770842075347900391e+00,4.074144643077736716e-01,0.000000000000000000e+00,1.110000000000000000e+02
0.000000000000000000e+00,1.000000000000000000e+00,0.000000000000000000e+00,5.700000000000000000e+01,1.719700000000000000e+04,3.707158565521240234e-01,1.901751041412353516e+00,5.424236509020465835e-01,0.000000000000000000e+00,1.110000000000000000e+02
1.000000000000000000e+00,1.000000000000000000e+00,1.000000000000000000e+00,5.600000000000000000e+01,1.725300000000000000e+04,5.737259387969970703e-01,2.008697032928466797e+00,4.513023199000997243e-01,0.000000000000000000e+00,1.110000000000000000e+02
0.000000000000000000e+00,1.000000000000000000e+00,0.000000000000000000e+00,5.600000000000000000e+01,1.730900000000000000e+04,3.401050567626953125e-01,1.857112169265747070e+00,5.249982517832936235e-01,0.000000000000000000e+00,1.110000000000000000e+02
1.000000000000000000e+00,1.000000000000000000e+00,1.000000000000000000e+00,5.400000000000000000e+01,1.736300000000000000e+04,3.621909618377685547e-01,1.689242839813232422e+00,3.311839478094598110e-01,0.000000000000000000e+00,1.110000000000000000e+02
0.000000000000000000e+00,1.000000000000000000e+00,0.000000000000000000e+00,5.600000000000000000e+01,1.741900000000000000e+04,4.159429073333740234e-01,1.741419076919555664e+00,3.393098640871465288e-01,0.000000000000000000e+00,1.110000000000000000e+02
1.000000000000000000e+00,1.000000000000000000e+00,1.000000000000000000e+00,5.700000000000000000e+01,1.747600000000000000e+04,4.099709987640380859e-01,2.053087949752807617e+00,6.421485540571942874e-01,0.000000000000000000e+00,1.110000000000000000e+02
0.000000000000000000e+00,1.000000000000000000e+00,0.000000000000000000e+00,5.500000000000000000e+01,1.753100000000000000e+04,2.510690689086914062e-01,1.944018125534057617e+00,7.028444711880975637e-01,0.000000000000000000e+00,1.110000000000000000e+02
0.000000000000000000e+00,1.000000000000000000e+00,0.000000000000000000e+00,5.200000000000000000e+01,1.758300000000000000e+04,3.340880870819091797e-01,1.804847002029418945e+00,4.746128264956530063e-01,0.000000000000000000e+00,1.110000000000000000e+02
0.000000000000000000e+00,1.000000000000000000e+00,0.000000000000000000e+00,6.300000000000000000e+01,1.764600000000000000e+04,4.501829147338867188e-01,1.929860115051269531e+00,4.879270809488841509e-01,0.000000000000000000e+00,1.110000000000000000e+02
0.000000000000000000e+00,1.000000000000000000e+00,0.000000000000000000e+00,6.000000000000000000e+01,1.770600000000000000e+04,4.289510250091552734e-01,2.048707008361816406e+00,6.198543751502487709e-01,0.000000000000000000e+00,1.110000000000000000e+02
0.000000000000000000e+00,1.000000000000000000e+00,0.000000000000000000e+00,6.000000000000000000e+01,1.776600000000000000e+04,3.399758338928222656e-01,1.687258005142211914e+00,3.574775412375190697e-01,0.000000000000000000e+00,1.110000000000000000e+02
0.000000000000000000e+00,1.000000000000000000e+00,0.000000000000000000e+00,5.600000000000000000e+01,1.782200000000000000e+04,4.027600288391113281e-01,1.713880062103271484e+00,3.214448522348279380e-01,0.000000000000000000e+00,1.110000000000000000e+02
0.000000000000000000e+00,1.000000000000000000e+00,0.000000000000000000e+00,5.500000000000000000e+01,1.787700000000000000e+04,4.501059055328369141e-01,2.027886867523193359e+00,5.824651065307946407e-01,0.000000000000000000e+00,1.110000000000000000e+02
1.000000000000000000e+00,1.000000000000000000e+00,1.000000000000000000e+00,5.600000000000000000e+01,1.793300000000000000e+04,3.278579711914062500e-01,1.834647893905639648e+00,5.005821335615756595e-01,0.000000000000000000e+00,1.110000000000000000e+02
1.000000000000000000e+00,1.000000000000000000e+00,1.000000000000000000e+00,5.900000000000000000e+01,1.799200000000000000e+04,3.715999126434326172e-01,1.647131919860839844e+00,2.813471537126067124e-01,0.000000000000000000e+00,1.110000000000000000e+02
0.000000000000000000e+00,1.000000000000000000e+00,0.000000000000000000e+00,5.700000000000000000e+01,1.804900000000000000e+04,4.984118938446044922e-01,2.131282091140747070e+00,6.456443697403602133e-01,0.000000000000000000e+00,1.110000000000000000e+02
1.000000000000000000e+00,1.000000000000000000e+00,1.000000000000000000e+00,5.400000000000000000e+01,1.810300000000000000e+04,5.479340553283691406e-01,2.237159013748168945e+00,6.994578625443861331e-01,0.000000000000000000e+00,1.110000000000000000e+02
0.000000000000000000e+00,1.000000000000000000e+00,0.000000000000000000e+00,6.100000000000000000e+01,1.816400000000000000e+04,3.030841350555419922e-01,2.041918039321899414e+00,7.413844078777040991e-01,0.000000000000000000e+00,1.110000000000000000e+02
1.000000000000000000e+00,1.000000000000000000e+00,1.000000000000000000e+00,5.600000000000000000e+01,1.822000000000000000e+04,2.488329410552978516e-01,1.612833023071289062e+00,3.712977940140704258e-01,0.000000000000000000e+00,1.110000000000000000e+02
0.000000000000000000e+00,1.000000000000000000e+00,0.000000000000000000e+00,5.400000000000000000e+01,1.827400000000000000e+04,4.712140560150146484e-01,2.044944047927856445e+00,5.827631624414544298e-01,0.000000000000000000e+00,1.110000000000000000e+02
0.000000000000000000e+00,1.000000000000000000e+00,0.000000000000000000e+00,6.100000000000000000e+01,1.833500000000000000e+04,3.112359046936035156e-01,1.798836946487426758e+00,4.984366162405078349e-01,0.000000000000000000e+00,1.110000000000000000e+02
1.000000000000000000e+00,1.000000000000000000e+00,1.000000000000000000e+00,5.900000000000000000e+01,1.839400000000000000e+04,3.649260997772216797e-01,1.893509864807128906e+00,5.419581904052863663e-01,0.000000000000000000e+00,1.110000000000000000e+02
0.000000000000000000e+00,1.000000000000000000e+00,0.000000000000000000e+00,6.100000000000000000e+01,1.845500000000000000e+04,3.049960136413574219e-01,1.665369987487792969e+00,3.742147931029257690e-01,0.000000000000000000e+00,1.110000000000000000e+02
1.000000000000000000e+00,1.000000000000000000e+00,1.000000000000000000e+00,5.500000000000000000e+01,1.851000000000000000e+04,3.834021091461181641e-01,2.047208786010742188e+00,6.711743702143739831e-01,0.000000000000000000e+00,1.110000000000000000e+02
0.000000000000000000e+00,1.000000000000000000e+00,0.000000000000000000e+00,6.100000000000000000e+01,1.857100000000000000e+04,2.834441661834716797e-01,1.710968971252441406e+00,4.324439315101432091e-01,0.000000000000000000e+00,1.110000000000000000e+02
0.000000000000000000e+00,1.000000000000000000e+00,0.000000000000000000e+00,5.300000000000000000e+01,1.862400000000000000e+04,5.859081745147705078e-01,2.256738901138305664e+00,6.723401577254929373e-01,0.000000000000000000e+00,1.110000000000000000e+02
1.000000000000000000e+00,1.000000000000000000e+00,1.000000000000000000e+00,5.500000000000000000e+01,1.867900000000000000e+04,3.109419345855712891e-01,1.910290956497192383e+00,6.161108164665838327e-01,0.000000000000000000e+00,1.110000000000000000e+02
1.000000000000000000e+00,1.000000000000000000e+00,1.000000000000000000e+00,5.600000000000000000e+01,1.873500000000000000e+04,4.013118743896484375e-01,2.105381965637207031e+00,7.047993427519270160e-01,0.000000000000000000e+00,1.110000000000000000e+02
1.000000000000000000e+00,1.000000000000000000e+00,1.000000000000000000e+00,6.000000000000000000e+01,1.879500000000000000e+04,3.143868446350097656e-01,1.755456924438476562e+00,4.439076593197636145e-01,0.000000000000000000e+00,1.110000000000000000e+02
0.000000000000000000e+00,1.000000000000000000e+00,0.000000000000000000e+00,5.600000000000000000e+01,1.885100000000000000e+04,3.875720500946044922e-01,1.908531188964843750e+00,5.357583234896237112e-01,0.000000000000000000e+00,1.110000000000000000e+02
0.000000000000000000e+00,1.000000000000000000e+00,0.000000000000000000e+00,5.700000000000000000e+01,1.890800000000000000e+04,3.529500961303710938e-01,1.856365919113159180e+00,5.088791716547049759e-01,0.000000000000000000e+00,1.110000000000000000e+02
0.000000000000000000e+00,1.000000000000000000e+00,0.000000000000000000e+00,5.400000000000000000e+01,1.896200000000000000e+04,3.580307960510253906e-01,1.930145025253295898e+00,5.889807348583860902e-01,0.000000000000000000e+00,1.110000000000000000e+02
1.000000000000000000e+00,1.000000000000000000e+00,1.000000000000000000e+00,6.200000000000000000e+01,1.902400000000000000e+04,3.487498760223388672e-01,1.997040033340454102e+00,6.526839348784206907e-01,0.000000000000000000e+00,1.110000000000000000e+02
0.000000000000000000e+00,0.000000000000000000e+00,1.000000000000000000e+00,3.800000000000000000e+01,1.906200000000000000e+04,2.298300266265869141e-01,1.779332160949707031e+00,5.488554507171254926e-01,0.000000000000000000e+00,1.110000000000000000e+02
1.000000000000000000e+00,1.000000000000000000e+00,1.000000000000000000e+00,5.700000000000000000e+01,1.911900000000000000e+04,3.735439777374267578e-01,1.883194923400878906e+00,5.154478436450254941e-01,0.000000000000000000e+00,1.110000000000000000e+02
1.000000000000000000e+00,1.000000000000000000e+00,1.000000000000000000e+00,5.200000000000000000e+01,1.917100000000000000e+04,3.583078384399414062e-01,1.742804765701293945e+00,3.918120366076112138e-01,0.000000000000000000e+00,1.110000000000000000e+02
1.000000000000000000e+00,1.000000000000000000e+00,1.000000000000000000e+00,5.600000000000000000e+01,1.922700000000000000e+04,3.730299472808837891e-01,2.027930974960327148e+00,6.695182698947157451e-01,0.000000000000000000e+00,1.110000000000000000e+02
1.000000000000000000e+00,1.000000000000000000e+00,1.000000000000000000e+00,5.900000000000000000e+01,1.928600000000000000e+04,3.027360439300537109e-01,1.713145017623901367e+00,4.163254988241399945e-01,0.000000000000000000e+00,1.110000000000000000e+02
0.000000000000000000e+00,1.000000000000000000e+00,0.000000000000000000e+00,5.600000000000000000e+01,1.934200000000000000e+04,4.261519908905029297e-01,2.020102024078369141e+00,6.029532906554265770e-01,0.000000000000000000e+00,1.110000000000000000e+02
0.000000000000000000e+00,1.000000000000000000e+00,0.000000000000000000e+00,5.900000000000000000e+01,1.940100000000000000e+04,3.494930267333984375e-01,2.044929981231689453e+00,6.978635537660179411e-01,0.000000000000000000e+00,1.110000000000000000e+02
0.000000000000000000e+00,1.000000000000000000e+00,0.000000000000000000e+00,5.600000000000000000e+01,1.945700000000000000e+04,2.994728088378906250e-01,1.806998014450073242e+00,5.217259458733987110e-01,0.000000000000000000e+00,1.110000000000000000e+02
0.000000000000000000e+00,1.000000000000000000e+00,0.000000000000000000e+00,5.300000000000000000e+01,1.951000000000000000e+04,3.217570781707763672e-01,1.862091064453125000e+00,5.505373237419026733e-01,0.000000000000000000e+00,1.110000000000000000e+02
1.000000000000000000e+00,1.000000000000000000e+00,1.000000000000000000e+00,6.000000000000000000e+01,1.957000000000000000e+04,3.900887966156005859e-01,1.888345003128051758e+00,5.056527348725938786e-01,0.000000000000000000e+00,1.110000000000000000e+02
0.000000000000000000e+00,1.000000000000000000e+00,0.000000000000000000e+00,5.600000000000000000e+01,1.962600000000000000e+04,3.508300781250000000e-01,2.093291997909545898e+00,7.487521100712307698e-01,0.000000000000000000e+00,1.110000000000000000e+02
0.000000000000000000e+00,1.000000000000000000e+00,0.000000000000000000e+00,5.600000000000000000e+01,1.968200000000000000e+04,3.239128589630126953e-01,1.686762094497680664e+00,3.693029326611509400e-01,0.000000000000000000e+00,1.110000000000000000e+02
0.000000000000000000e+00,1.000000000000000000e+00,0.000000000000000000e+00,5.700000000000000000e+01,1.973900000000000000e+04,3.836069107055664062e-01,1.642934083938598633e+00,2.624053035305431436e-01,0.000000000000000000e+00,1.110000000000000000e+02
0.000000000000000000e+00,1.000000000000000000e+00,0.000000000000000000e+00,5.600000000000000000e+01,1.979500000000000000e+04,4.754369258880615234e-01,1.800518989562988281e+00,3.461771926495376683e-01,0.000000000000000000e+00,1.110000000000000000e+02
0.000000000000000000e+00,1.000000000000000000e+00,0.000000000000000000e+00,5.700000000000000000e+01,1.985200000000000000e+04,3.544139862060546875e-01,1.926763057708740234e+00,5.894626799537185935e-01,0.000000000000000000e+00,1.110000000000000000e+02
1.000000000000000000e+00,1.000000000000000000e+00,1.000000000000000000e+00,5.600000000000000000e+01,1.990800000000000000e+04,3.871481418609619141e-01,1.722552061080932617e+00,3.456566930051597764e-01,0.000000000000000000e+00,1.110000000000000000e+02
1.000000000000000000e+00,1.000000000000000000e+00,1.000000000000000000e+00,5.600000000000000000e+01,1.996400000000000000e+04,3.665750026702880859e-01,2.053053855895996094e+00,6.984077573488107760e-01,0.000000000000000000e+00,1.110000000000000000e+02
1.000000000000000000e+00,1.000000000000000000e+00,1.000000000000000000e+00,6.100000000000000000e+01,2.002500000000000000e+04,4.796059131622314453e-01,2.069491147994995117e+00,6.014002507452682611e-01,0.000000000000000000e+00,1.110000000000000000e+02
1.000000000000000000e+00,1.000000000000000000e+00,1.000000000000000000e+00,6.000000000000000000e+01,2.008500000000000000e+04,2.833371162414550781e-01,1.565400838851928711e+00,2.838316303246619099e-01,0.000000000000000000e+00,1.110000000000000000e+02
1.000000000000000000e+00,1.000000000000000000e+00,1.000000000000000000e+00,5.700000000000000000e+01,2.014200000000000000e+04,4.467108249664306641e-01,1.769137144088745117e+00,3.196858814129379667e-01,0.000000000000000000e+00,1.110000000000000000e+02
0.000000000000000000e+00,1.000000000000000000e+00,0.000000000000000000e+00,5.900000000000000000e+01,2.020100000000000000e+04,3.661301136016845703e-01,1.787652015686035156e+00,4.239491188098998276e-01,0.000000000000000000e+00,1.110000000000000000e+02
0.000000000000000000e+00,1.000000000000000000e+00,0.000000000000000000e+00,5.900000000000000000e+01,2.026000000000000000e+04,2.948648929595947266e-01,1.861007928848266602e+00,5.848543445229956728e-01,0.000000000000000000e+00,1.110000000000000000e+02
0.000000000000000000e+00,1.000000000000000000e+00,0.000000000000000000e+00,6.100000000000000000e+01,2.032100000000000000e+04,2.612838745117187500e-01,1.806512117385864258e+00,5.581082152439711397e-01,0.000000000000000000e+00,1.110000000000000000e+02
1.000000000000000000e+00,1.000000000000000000e+00,1.000000000000000000e+00,5.700000000000000000e+01,2.037800000000000000e+04,3.774030208587646484e-01,1.633472919464111328e+00,2.586457264613752915e-01,0.000000000000000000e+00,1.110000000000000000e+02
1.000000000000000000e+00,1.000000000000000000e+00,1.000000000000000000e+00,5.600000000000000000e+01,2.043400000000000000e+04,4.070920944213867188e-01,1.995045185089111328e+00,6.033654476511178810e-01,0.000000000000000000e+00,1.110000000000000000e+02
1.000000000000000000e+00,1.000000000000000000e+00,1.000000000000000000e+00,6.200000000000000000e+01,2.049600000000000000e+04,3.261649608612060547e-01,2.061139822006225586e+00,7.477780814492875905e-01,0.000000000000000000e+00,1.110000000000000000e+02
1.000000000000000000e+00,1.000000000000000000e+00,1.000000000000000000e+00,5.600000000000000000e+01,2.055200000000000000e+04,3.422880172729492188e-01,1.814352989196777344e+00,4.957750134609703041e-01,0.000000000000000000e+00,1.110000000000000000e+02
1.000000000000000000e+00,1.000000000000000000e+00,1.000000000000000000e+00,6.200000000000000000e+01,2.061400000000000000e+04,3.855991363525390625e-01,1.676960945129394531e+00,3.063194367491967607e-01,0.000000000000000000e+00,1.110000000000000000e+02
1.000000000000000000e+00,1.000000000000000000e+00,1.000000000000000000e+00,5.300000000000000000e+01,2.066700000000000000e+04,5.035130977630615234e-01,2.054865121841430664e+00,5.610260480782183201e-01,0.000000000000000000e+00,1.110000000000000000e+02
0.000000000000000000e+00,1.000000000000000000e+00,0.000000000000000000e+00,5.400000000000000000e+01,2.072100000000000000e+04,3.703989982604980469e-01,2.071160078048706055e+00,7.153452228665138080e-01,0.000000000000000000e+00,1.110000000000000000e+02
0.000000000000000000e+00,1.000000000000000000e+00,0.000000000000000000e+00,5.600000000000000000e+01,2.077700000000000000e+04,3.422079086303710938e-01,1.639345884323120117e+00,3.051897019984909920e-01,0.000000000000000000e+00,1.110000000000000000e+02
0.000000000000000000e+00,1.000000000000000000e+00,0.000000000000000000e+00,5.400000000000000000e+01,2.083100000000000000e+04,4.128570556640625000e-01,1.834500074386596680e+00,4.229761702721815397e-01,0.000000000000000000e+00,1.110000000000000000e+02
1.000000000000000000e+00,1.000000000000000000e+00,1.000000000000000000e+00,5.700000000000000000e+01,2.088800000000000000e+04,4.226000308990478516e-01,1.666429996490478516e+00,2.562585210074543318e-01,0.000000000000000000e+00,1.110000000000000000e+02
0.000000000000000000e+00,1.000000000000000000e+00,0.000000000000000000e+00,5.900000000000000000e+01,2.094700000000000000e+04,6.050720214843750000e-01,2.020528078079223633e+00,4.267262712432519645e-01,0.000000000000000000e+00,1.110000000000000000e+02
0.000000000000000000e+00,1.000000000000000000e+00,0.000000000000000000e+00,5.500000000000000000e+01,2.100200000000000000e+04,3.923790454864501953e-01,2.082948923110961914e+00,7.094177210740915118e-01,0.000000000000000000e+00,1.110000000000000000e+02
1.000000000000000000e+00,1.000000000000000000e+00,1.000000000000000000e+00,5.600000000000000000e+01,2.105800000000000000e+04,3.481428623199462891e-01,1.758567094802856445e+00,4.183959105831435155e-01,0.000000000000000000e+00,1.110000000000000000e+02
0.000000000000000000e+00,1.000000000000000000e+00,0.000000000000000000e+00,6.000000000000000000e+01,2.111800000000000000e+04,4.445178508758544922e-01,1.879122972488403320e+00,4.308845567349282590e-01,0.000000000000000000e+00,1.110000000000000000e+02
1.000000000000000000e+00,1.000000000000000000e+00,1.000000000000000000e+00,6.000000000000000000e+01,2.117800000000000000e+04,3.669538497924804688e-01,1.816833019256591797e+00,4.643917246764878715e-01,0.000000000000000000e+00,1.110000000000000000e+02
1.000000000000000000e+00,1.000000000000000000e+00,1.000000000000000000e+00,6.100000000000000000e+01,2.123900000000000000e+04,3.703329563140869141e-01,2.042992115020751953e+00,6.905437715402487076e-01,0.000000000000000000e+00,1.110000000000000000e+02
0.000000000000000000e+00,1.000000000000000000e+00,0.000000000000000000e+00,5.100000000000000000e+01,2.129000000000000000e+04,2.844099998474121094e-01,1.640758991241455078e+00,3.650138092881207719e-01,0.000000000000000000e+00,1.110000000000000000e+02
0.000000000000000000e+00,1.000000000000000000e+00,0.000000000000000000e+00,5.900000000000000000e+01,2.134900000000000000e+04,3.841321468353271484e-01,2.077793121337890625e+00,7.091590796116447049e-01,0.000000000000000000e+00,1.110000000000000000e+02
0.000000000000000000e+00,1.000000000000000000e+00,0.000000000000000000e+00,5.000000000000000000e+01,2.139900000000000000e+04,2.857248783111572266e-01,1.880779027938842773e+00,6.067906150004394039e-01,0.000000000000000000e+00,1.110000000000000000e+02
1.000000000000000000e+00,1.000000000000000000e+00,1.000000000000000000e+00,6.000000000000000000e+01,2.145900000000000000e+04,3.605461120605468750e-01,1.876140832901000977e+00,5.164073043653734096e-01,0.000000000000000000e+00,1.110000000000000000e+02
0.000000000000000000e+00,1.000000000000000000e+00,0.000000000000000000e+00,5.600000000000000000e+01,2.151500000000000000e+04,3.672778606414794922e-01,1.771693944931030273e+00,4.049277762765122191e-01,0.000000000000000000e+00,1.110000000000000000e+02
1.000000000000000000e+00,1.000000000000000000e+00,1.000000000000000000e+00,5.600000000000000000e+01,2.157100000000000000e+04,3.777248859405517578e-01,1.778733015060424805e+00,4.170811122194548193e-01,0.000000000000000000e+00,1.110000000000000000e+02
0.000000000000000000e+00,1.000000000000000000e+00,0.000000000000000000e+00,5.600000000000000000e+01,2.162700000000000000e+04,3.673651218414306641e-01,1.619634151458740234e+00,2.536025687578630783e-01,0.000000000000000000e+00,1.110000000000000000e+02
1.000000000000000000e+00,1.000000000000000000e+00,1.000000000000000000e+00,5.300000000000000000e+01,2.168000000000000000e+04,4.402990341186523438e-01,1.896018028259277344e+00,4.494256220080110054e-01,0.000000000000000000e+00,1.110000000000000000e+02
0.000000000000000000e+00,1.000000000000000000e+00,0.000000000000000000e+00,5.900000000000000000e+01,2.173900000000000000e+04,4.218649864196777344e-01,1.728583812713623047e+00,3.115858292939445162e-01,0.000000000000000000e+00,1.110000000000000000e+02
0.000000000000000000e+00,1.000000000000000000e+00,0.000000000000000000e+00,5.700000000000000000e+01,2.179600000000000000e+04,4.232590198516845703e-01,1.906566858291625977e+00,5.013515698415411670e-01,0.000000000000000000e+00,1.110000000000000000e+02
0.000000000000000000e+00,0.000000000000000000e+00,1.000000000000000000e+00,4.900000000000000000e+01,2.184500000000000000e+04,3.776679039001464844e-01,1.666623115539550781e+00,2.849363416950363992e-01,1.000000000000000000e+00,1.120000000000000000e+02
0.000000000000000000e+00,0.000000000000000000e+00,1.000000000000000000e+00,4.500000000000000000e+01,2.189000000000000000e+04,9.300329685211181641e-01,2.343703031539916992e+00,4.119122241380464566e-01,0.000000000000000000e+00,1.120000000000000000e+02
0.000000000000000000e+00,1.000000000000000000e+00,0.000000000000000000e+00,5.400000000000000000e+01,2.194400000000000000e+04,3.268039226531982422e-01,1.564827919006347656e+00,2.602600920496038750e-01,0.000000000000000000e+00,1.120000000000000000e+02
0.000000000000000000e+00,1.000000000000000000e+00,0.000000000000000000e+00,5.200000000000000000e+01,2.199600000000000000e+04,3.621931076049804688e-01,1.652966976165771484e+00,2.965687908219581392e-01,0.000000000000000000e+00,1.120000000000000000e+02
1.000000000000000000e+00,1.000000000000000000e+00,1.000000000000000000e+00,5.600000000000000000e+01,2.205200000000000000e+04,3.632609844207763672e-01,1.858661174774169922e+00,5.050770662606911543e-01,0.000000000000000000e+00,1.120000000000000000e+02
1.000000000000000000e+00,1.000000000000000000e+00,1.000000000000000000e+00,5.100000000000000000e+01,2.210300000000000000e+04,2.827470302581787109e-01,1.758429050445556641e+00,4.802271927937964979e-01,0.000000000000000000e+00,1.120000000000000000e+02
