choice, accuracy, solution,  reward, cumulative_reward, rt,  total_trial_time, iti, cp_with_slow_fast, high_val_cue
0.000000000000000000e+00,1.000000000000000000e+00,0.000000000000000000e+00,0.000000000000000000e+00,0.000000000000000000e+00,1.385397195816040039e+00,2.860306024551391602e+00,4.451598547315401277e-01,-1.000000000000000000e+00,1.120000000000000000e+02
0.000000000000000000e+00,1.000000000000000000e+00,0.000000000000000000e+00,6.200000000000000000e+01,6.200000000000000000e+01,3.594839572906494141e-01,1.682754993438720703e+00,3.446755053436226235e-01,0.000000000000000000e+00,1.120000000000000000e+02
0.000000000000000000e+00,1.000000000000000000e+00,0.000000000000000000e+00,6.100000000000000000e+01,1.230000000000000000e+02,2.791509628295898438e-01,1.628746986389160156e+00,3.566995416325653978e-01,0.000000000000000000e+00,1.120000000000000000e+02
0.000000000000000000e+00,1.000000000000000000e+00,0.000000000000000000e+00,5.700000000000000000e+01,1.800000000000000000e+02,2.827498912811279297e-01,1.664679050445556641e+00,3.880387213269999580e-01,0.000000000000000000e+00,1.120000000000000000e+02
1.000000000000000000e+00,1.000000000000000000e+00,1.000000000000000000e+00,5.900000000000000000e+01,2.390000000000000000e+02,3.392128944396972656e-01,2.049576044082641602e+00,7.206348106100988193e-01,0.000000000000000000e+00,1.120000000000000000e+02
1.000000000000000000e+00,1.000000000000000000e+00,1.000000000000000000e+00,6.400000000000000000e+01,3.030000000000000000e+02,3.111789226531982422e-01,1.728302001953125000e+00,4.325574665409059327e-01,0.000000000000000000e+00,1.120000000000000000e+02
0.000000000000000000e+00,1.000000000000000000e+00,0.000000000000000000e+00,6.200000000000000000e+01,3.650000000000000000e+02,3.618900775909423828e-01,1.686956167221069336e+00,3.196263731505363803e-01,0.000000000000000000e+00,1.120000000000000000e+02
1.000000000000000000e+00,1.000000000000000000e+00,1.000000000000000000e+00,6.100000000000000000e+01,4.260000000000000000e+02,2.986660003662109375e-01,2.017764091491699219e+00,7.204069342891885608e-01,0.000000000000000000e+00,1.120000000000000000e+02
0.000000000000000000e+00,1.000000000000000000e+00,0.000000000000000000e+00,5.900000000000000000e+01,4.850000000000000000e+02,2.850451469421386719e-01,1.651103973388671875e+00,3.718848244062760156e-01,0.000000000000000000e+00,1.120000000000000000e+02
0.000000000000000000e+00,1.000000000000000000e+00,0.000000000000000000e+00,5.600000000000000000e+01,5.410000000000000000e+02,2.832469940185546875e-01,1.850024938583374023e+00,5.717114295570143723e-01,0.000000000000000000e+00,1.120000000000000000e+02
1.000000000000000000e+00,1.000000000000000000e+00,1.000000000000000000e+00,5.400000000000000000e+01,5.950000000000000000e+02,2.761881351470947266e-01,1.917956113815307617e+00,6.562830113006620225e-01,0.000000000000000000e+00,1.120000000000000000e+02
1.000000000000000000e+00,1.000000000000000000e+00,1.000000000000000000e+00,5.900000000000000000e+01,6.540000000000000000e+02,3.066291809082031250e-01,1.997996807098388672e+00,7.042634141045303053e-01,0.000000000000000000e+00,1.120000000000000000e+02
1.000000000000000000e+00,1.000000000000000000e+00,1.000000000000000000e+00,5.700000000000000000e+01,7.110000000000000000e+02,2.886700630187988281e-01,1.968998908996582031e+00,6.899227976979565025e-01,0.000000000000000000e+00,1.120000000000000000e+02
0.000000000000000000e+00,1.000000000000000000e+00,0.000000000000000000e+00,5.500000000000000000e+01,7.660000000000000000e+02,3.552019596099853516e-01,1.846500158309936523e+00,5.033519338866598858e-01,0.000000000000000000e+00,1.120000000000000000e+02
1.000000000000000000e+00,1.000000000000000000e+00,1.000000000000000000e+00,5.600000000000000000e+01,8.220000000000000000e+02,3.171498775482177734e-01,1.652884960174560547e+00,3.397682477314131200e-01,0.000000000000000000e+00,1.120000000000000000e+02
0.000000000000000000e+00,1.000000000000000000e+00,0.000000000000000000e+00,5.700000000000000000e+01,8.790000000000000000e+02,3.231551647186279297e-01,1.866070032119750977e+00,5.556401582153985830e-01,0.000000000000000000e+00,1.120000000000000000e+02
0.000000000000000000e+00,1.000000000000000000e+00,0.000000000000000000e+00,6.300000000000000000e+01,9.420000000000000000e+02,3.924920558929443359e-01,1.814941883087158203e+00,4.374183350880892496e-01,0.000000000000000000e+00,1.120000000000000000e+02
0.000000000000000000e+00,1.000000000000000000e+00,0.000000000000000000e+00,5.600000000000000000e+01,9.980000000000000000e+02,5.549681186676025391e-01,1.816436052322387695e+00,2.707109892926386485e-01,0.000000000000000000e+00,1.120000000000000000e+02
0.000000000000000000e+00,1.000000000000000000e+00,0.000000000000000000e+00,6.000000000000000000e+01,1.058000000000000000e+03,3.493480682373046875e-01,1.866331100463867188e+00,5.201227006516689899e-01,0.000000000000000000e+00,1.120000000000000000e+02
1.000000000000000000e+00,1.000000000000000000e+00,1.000000000000000000e+00,6.100000000000000000e+01,1.119000000000000000e+03,3.788411617279052734e-01,1.943831920623779297e+00,5.639095605675052969e-01,0.000000000000000000e+00,1.120000000000000000e+02
1.000000000000000000e+00,1.000000000000000000e+00,1.000000000000000000e+00,5.400000000000000000e+01,1.173000000000000000e+03,3.625271320343017578e-01,2.092844009399414062e+00,7.399773117982741955e-01,0.000000000000000000e+00,1.120000000000000000e+02
0.000000000000000000e+00,1.000000000000000000e+00,0.000000000000000000e+00,5.700000000000000000e+01,1.230000000000000000e+03,3.325729370117187500e-01,1.875656127929687500e+00,5.491585653628858754e-01,0.000000000000000000e+00,1.120000000000000000e+02
1.000000000000000000e+00,1.000000000000000000e+00,1.000000000000000000e+00,5.200000000000000000e+01,1.282000000000000000e+03,3.183689117431640625e-01,1.978266954421997070e+00,6.607337961717949515e-01,0.000000000000000000e+00,1.120000000000000000e+02
0.000000000000000000e+00,1.000000000000000000e+00,0.000000000000000000e+00,5.900000000000000000e+01,1.341000000000000000e+03,4.646148681640625000e-01,1.918967008590698242e+00,4.632254491063633739e-01,0.000000000000000000e+00,1.120000000000000000e+02
0.000000000000000000e+00,1.000000000000000000e+00,0.000000000000000000e+00,5.500000000000000000e+01,1.396000000000000000e+03,3.441090583801269531e-01,1.593516111373901367e+00,2.736427095803848908e-01,0.000000000000000000e+00,1.120000000000000000e+02
0.000000000000000000e+00,1.000000000000000000e+00,0.000000000000000000e+00,5.400000000000000000e+01,1.450000000000000000e+03,3.531620502471923828e-01,2.061146974563598633e+00,7.176882584662208631e-01,0.000000000000000000e+00,1.120000000000000000e+02
0.000000000000000000e+00,1.000000000000000000e+00,0.000000000000000000e+00,6.100000000000000000e+01,1.511000000000000000e+03,2.415308952331542969e-01,1.875653028488159180e+00,6.434206585363733133e-01,0.000000000000000000e+00,1.120000000000000000e+02
0.000000000000000000e+00,1.000000000000000000e+00,0.000000000000000000e+00,6.000000000000000000e+01,1.571000000000000000e+03,2.769780158996582031e-01,1.544292211532592773e+00,2.881225593759501602e-01,0.000000000000000000e+00,1.120000000000000000e+02
0.000000000000000000e+00,0.000000000000000000e+00,1.000000000000000000e+00,4.000000000000000000e+01,1.611000000000000000e+03,3.149790763854980469e-01,1.920448780059814453e+00,6.082358673609682409e-01,0.000000000000000000e+00,1.120000000000000000e+02
0.000000000000000000e+00,1.000000000000000000e+00,0.000000000000000000e+00,6.100000000000000000e+01,1.672000000000000000e+03,3.844170570373535156e-01,1.814858913421630859e+00,4.399839838402648806e-01,0.000000000000000000e+00,1.120000000000000000e+02
1.000000000000000000e+00,1.000000000000000000e+00,1.000000000000000000e+00,5.500000000000000000e+01,1.727000000000000000e+03,2.957971096038818359e-01,1.934787034988403320e+00,6.412774735416404415e-01,0.000000000000000000e+00,1.120000000000000000e+02
1.000000000000000000e+00,1.000000000000000000e+00,1.000000000000000000e+00,6.200000000000000000e+01,1.789000000000000000e+03,2.595558166503906250e-01,1.555324077606201172e+00,3.136162263282800677e-01,0.000000000000000000e+00,1.120000000000000000e+02
1.000000000000000000e+00,1.000000000000000000e+00,1.000000000000000000e+00,6.200000000000000000e+01,1.851000000000000000e+03,2.755708694458007812e-01,1.910768032073974609e+00,6.573694096803448517e-01,0.000000000000000000e+00,1.120000000000000000e+02
0.000000000000000000e+00,1.000000000000000000e+00,0.000000000000000000e+00,6.400000000000000000e+01,1.915000000000000000e+03,2.560019493103027344e-01,1.640111923217773438e+00,3.978052758792794963e-01,0.000000000000000000e+00,1.120000000000000000e+02
1.000000000000000000e+00,1.000000000000000000e+00,1.000000000000000000e+00,6.100000000000000000e+01,1.976000000000000000e+03,3.197739124298095703e-01,2.004719972610473633e+00,7.022255725415713634e-01,0.000000000000000000e+00,1.120000000000000000e+02
1.000000000000000000e+00,1.000000000000000000e+00,1.000000000000000000e+00,6.100000000000000000e+01,2.037000000000000000e+03,2.770910263061523438e-01,1.958963871002197266e+00,6.945530690894641257e-01,0.000000000000000000e+00,1.120000000000000000e+02
0.000000000000000000e+00,0.000000000000000000e+00,1.000000000000000000e+00,4.200000000000000000e+01,2.079000000000000000e+03,3.461849689483642578e-01,1.629184007644653320e+00,2.908643706577941357e-01,1.000000000000000000e+00,1.110000000000000000e+02
0.000000000000000000e+00,1.000000000000000000e+00,0.000000000000000000e+00,5.600000000000000000e+01,2.135000000000000000e+03,4.719841480255126953e-01,1.781677007675170898e+00,3.225329802499108389e-01,0.000000000000000000e+00,1.110000000000000000e+02
0.000000000000000000e+00,1.000000000000000000e+00,0.000000000000000000e+00,6.300000000000000000e+01,2.198000000000000000e+03,2.796130180358886719e-01,1.809733867645263672e+00,5.320888545489861343e-01,0.000000000000000000e+00,1.110000000000000000e+02
0.000000000000000000e+00,1.000000000000000000e+00,0.000000000000000000e+00,6.100000000000000000e+01,2.259000000000000000e+03,2.750129699707031250e-01,1.920529127120971680e+00,6.525013625343604184e-01,0.000000000000000000e+00,1.110000000000000000e+02
1.000000000000000000e+00,1.000000000000000000e+00,1.000000000000000000e+00,5.600000000000000000e+01,2.315000000000000000e+03,2.994358539581298828e-01,1.907884836196899414e+00,6.104529805015483923e-01,0.000000000000000000e+00,1.110000000000000000e+02
0.000000000000000000e+00,1.000000000000000000e+00,0.000000000000000000e+00,5.900000000000000000e+01,2.374000000000000000e+03,3.185091018676757812e-01,2.040611982345581055e+00,7.343030885413228681e-01,0.000000000000000000e+00,1.110000000000000000e+02
1.000000000000000000e+00,1.000000000000000000e+00,1.000000000000000000e+00,5.600000000000000000e+01,2.430000000000000000e+03,3.015458583831787109e-01,1.823158979415893555e+00,5.243731324434971475e-01,0.000000000000000000e+00,1.110000000000000000e+02
1.000000000000000000e+00,1.000000000000000000e+00,1.000000000000000000e+00,5.700000000000000000e+01,2.487000000000000000e+03,3.050329685211181641e-01,1.797353029251098633e+00,5.050989376141572507e-01,0.000000000000000000e+00,1.110000000000000000e+02
1.000000000000000000e+00,1.000000000000000000e+00,1.000000000000000000e+00,5.700000000000000000e+01,2.544000000000000000e+03,2.840611934661865234e-01,1.909768104553222656e+00,6.314397122638091275e-01,0.000000000000000000e+00,1.110000000000000000e+02
1.000000000000000000e+00,1.000000000000000000e+00,1.000000000000000000e+00,6.100000000000000000e+01,2.605000000000000000e+03,3.011078834533691406e-01,1.876742839813232422e+00,5.916105961503488331e-01,0.000000000000000000e+00,1.110000000000000000e+02
1.000000000000000000e+00,1.000000000000000000e+00,1.000000000000000000e+00,5.700000000000000000e+01,2.662000000000000000e+03,2.918651103973388672e-01,1.974508047103881836e+00,6.993385123454456398e-01,0.000000000000000000e+00,1.110000000000000000e+02
0.000000000000000000e+00,1.000000000000000000e+00,0.000000000000000000e+00,6.100000000000000000e+01,2.723000000000000000e+03,3.075370788574218750e-01,2.007968187332153320e+00,7.073209851553385885e-01,0.000000000000000000e+00,1.110000000000000000e+02
0.000000000000000000e+00,1.000000000000000000e+00,0.000000000000000000e+00,6.200000000000000000e+01,2.785000000000000000e+03,2.825999259948730469e-01,1.827332973480224609e+00,5.515539465693903853e-01,0.000000000000000000e+00,1.110000000000000000e+02
1.000000000000000000e+00,1.000000000000000000e+00,1.000000000000000000e+00,5.500000000000000000e+01,2.840000000000000000e+03,2.384200096130371094e-01,1.680395126342773438e+00,4.487127520029125516e-01,0.000000000000000000e+00,1.110000000000000000e+02
1.000000000000000000e+00,1.000000000000000000e+00,1.000000000000000000e+00,5.600000000000000000e+01,2.896000000000000000e+03,2.620549201965332031e-01,1.871901988983154297e+00,6.038414197798908090e-01,0.000000000000000000e+00,1.110000000000000000e+02
0.000000000000000000e+00,1.000000000000000000e+00,0.000000000000000000e+00,6.000000000000000000e+01,2.956000000000000000e+03,3.534390926361083984e-01,1.831836938858032227e+00,4.857991757199592309e-01,0.000000000000000000e+00,1.110000000000000000e+02
0.000000000000000000e+00,1.000000000000000000e+00,0.000000000000000000e+00,6.000000000000000000e+01,3.016000000000000000e+03,2.821729183197021484e-01,1.680150032043457031e+00,3.993926071594063876e-01,0.000000000000000000e+00,1.110000000000000000e+02
0.000000000000000000e+00,1.000000000000000000e+00,0.000000000000000000e+00,5.700000000000000000e+01,3.073000000000000000e+03,3.529961109161376953e-01,1.768723964691162109e+00,4.181395944465777226e-01,0.000000000000000000e+00,1.110000000000000000e+02
1.000000000000000000e+00,1.000000000000000000e+00,1.000000000000000000e+00,6.300000000000000000e+01,3.136000000000000000e+03,3.954141139984130859e-01,1.694808006286621094e+00,2.964513540337080366e-01,0.000000000000000000e+00,1.110000000000000000e+02
0.000000000000000000e+00,1.000000000000000000e+00,0.000000000000000000e+00,6.100000000000000000e+01,3.197000000000000000e+03,3.470058441162109375e-01,1.697386980056762695e+00,3.604526825080961450e-01,0.000000000000000000e+00,1.110000000000000000e+02
1.000000000000000000e+00,1.000000000000000000e+00,1.000000000000000000e+00,6.100000000000000000e+01,3.258000000000000000e+03,3.791091442108154297e-01,1.679652929306030273e+00,3.068578029349572911e-01,0.000000000000000000e+00,1.110000000000000000e+02
0.000000000000000000e+00,1.000000000000000000e+00,0.000000000000000000e+00,5.900000000000000000e+01,3.317000000000000000e+03,2.608129978179931641e-01,1.753164052963256836e+00,5.098295896852473863e-01,0.000000000000000000e+00,1.110000000000000000e+02
1.000000000000000000e+00,1.000000000000000000e+00,1.000000000000000000e+00,6.000000000000000000e+01,3.377000000000000000e+03,2.518730163574218750e-01,1.636668920516967773e+00,3.966814352359792628e-01,0.000000000000000000e+00,1.110000000000000000e+02
1.000000000000000000e+00,1.000000000000000000e+00,1.000000000000000000e+00,5.900000000000000000e+01,3.436000000000000000e+03,2.476370334625244141e-01,1.814243078231811523e+00,5.773822467960163518e-01,0.000000000000000000e+00,1.110000000000000000e+02
0.000000000000000000e+00,1.000000000000000000e+00,0.000000000000000000e+00,6.500000000000000000e+01,3.501000000000000000e+03,3.379521369934082031e-01,1.822298049926757812e+00,4.998166281379798348e-01,0.000000000000000000e+00,1.110000000000000000e+02
0.000000000000000000e+00,1.000000000000000000e+00,0.000000000000000000e+00,5.900000000000000000e+01,3.560000000000000000e+03,2.237458229064941406e-01,1.798599958419799805e+00,5.816727070455705029e-01,0.000000000000000000e+00,1.110000000000000000e+02
0.000000000000000000e+00,1.000000000000000000e+00,0.000000000000000000e+00,5.600000000000000000e+01,3.616000000000000000e+03,2.814259529113769531e-01,1.628364086151123047e+00,3.603215803507053283e-01,0.000000000000000000e+00,1.110000000000000000e+02
1.000000000000000000e+00,1.000000000000000000e+00,1.000000000000000000e+00,5.600000000000000000e+01,3.672000000000000000e+03,3.562321662902832031e-01,2.039807081222534180e+00,6.997775760509926668e-01,0.000000000000000000e+00,1.110000000000000000e+02
1.000000000000000000e+00,1.000000000000000000e+00,1.000000000000000000e+00,5.600000000000000000e+01,3.728000000000000000e+03,3.152549266815185547e-01,1.843869924545288086e+00,5.272022463259480318e-01,0.000000000000000000e+00,1.110000000000000000e+02
0.000000000000000000e+00,1.000000000000000000e+00,0.000000000000000000e+00,6.100000000000000000e+01,3.789000000000000000e+03,3.539810180664062500e-01,1.997972011566162109e+00,6.584273951124532953e-01,0.000000000000000000e+00,1.110000000000000000e+02
1.000000000000000000e+00,1.000000000000000000e+00,1.000000000000000000e+00,5.600000000000000000e+01,3.845000000000000000e+03,3.840889930725097656e-01,1.876708984375000000e+00,5.019790162081732010e-01,0.000000000000000000e+00,1.110000000000000000e+02
1.000000000000000000e+00,0.000000000000000000e+00,0.000000000000000000e+00,4.200000000000000000e+01,3.887000000000000000e+03,3.029029369354248047e-01,1.836762905120849609e+00,5.387225217283124756e-01,1.000000000000000000e+00,1.120000000000000000e+02
1.000000000000000000e+00,1.000000000000000000e+00,1.000000000000000000e+00,5.600000000000000000e+01,3.943000000000000000e+03,3.435127735137939453e-01,2.003021955490112305e+00,6.749790298029453295e-01,0.000000000000000000e+00,1.120000000000000000e+02
1.000000000000000000e+00,1.000000000000000000e+00,1.000000000000000000e+00,5.900000000000000000e+01,4.002000000000000000e+03,3.315739631652832031e-01,1.759672880172729492e+00,4.349103458383401510e-01,0.000000000000000000e+00,1.120000000000000000e+02
1.000000000000000000e+00,1.000000000000000000e+00,1.000000000000000000e+00,6.000000000000000000e+01,4.062000000000000000e+03,3.670208454132080078e-01,2.059515953063964844e+00,6.941765853258745622e-01,0.000000000000000000e+00,1.120000000000000000e+02
0.000000000000000000e+00,1.000000000000000000e+00,0.000000000000000000e+00,5.600000000000000000e+01,4.118000000000000000e+03,3.100850582122802734e-01,1.545149803161621094e+00,2.565002246259243668e-01,0.000000000000000000e+00,1.120000000000000000e+02
1.000000000000000000e+00,1.000000000000000000e+00,1.000000000000000000e+00,5.500000000000000000e+01,4.173000000000000000e+03,3.441059589385986328e-01,1.790243864059448242e+00,4.465487385906909967e-01,0.000000000000000000e+00,1.120000000000000000e+02
1.000000000000000000e+00,1.000000000000000000e+00,1.000000000000000000e+00,5.900000000000000000e+01,4.232000000000000000e+03,2.478470802307128906e-01,1.778243064880371094e+00,5.413827339870369570e-01,0.000000000000000000e+00,1.120000000000000000e+02
0.000000000000000000e+00,1.000000000000000000e+00,0.000000000000000000e+00,5.600000000000000000e+01,4.288000000000000000e+03,4.175579547882080078e-01,2.012929916381835938e+00,6.043070270884323136e-01,0.000000000000000000e+00,1.120000000000000000e+02
1.000000000000000000e+00,1.000000000000000000e+00,1.000000000000000000e+00,6.000000000000000000e+01,4.348000000000000000e+03,3.409509658813476562e-01,1.768623113632202148e+00,4.397633904531752513e-01,0.000000000000000000e+00,1.120000000000000000e+02
1.000000000000000000e+00,1.000000000000000000e+00,1.000000000000000000e+00,5.900000000000000000e+01,4.407000000000000000e+03,2.903738021850585938e-01,1.898364067077636719e+00,6.213387427129701823e-01,0.000000000000000000e+00,1.120000000000000000e+02
1.000000000000000000e+00,1.000000000000000000e+00,1.000000000000000000e+00,5.600000000000000000e+01,4.463000000000000000e+03,2.444159984588623047e-01,1.873507022857666016e+00,6.281551254615300728e-01,0.000000000000000000e+00,1.120000000000000000e+02
0.000000000000000000e+00,1.000000000000000000e+00,0.000000000000000000e+00,5.900000000000000000e+01,4.522000000000000000e+03,3.167650699615478516e-01,1.759785890579223633e+00,4.548380096957764795e-01,0.000000000000000000e+00,1.120000000000000000e+02
1.000000000000000000e+00,1.000000000000000000e+00,1.000000000000000000e+00,6.000000000000000000e+01,4.582000000000000000e+03,3.542580604553222656e-01,1.864987134933471680e+00,5.197949741474516827e-01,0.000000000000000000e+00,1.120000000000000000e+02
1.000000000000000000e+00,1.000000000000000000e+00,1.000000000000000000e+00,5.600000000000000000e+01,4.638000000000000000e+03,2.786660194396972656e-01,1.588150978088378906e+00,3.081826609995433897e-01,0.000000000000000000e+00,1.120000000000000000e+02
0.000000000000000000e+00,1.000000000000000000e+00,0.000000000000000000e+00,6.000000000000000000e+01,4.698000000000000000e+03,3.833358287811279297e-01,1.805752038955688477e+00,4.305213043257301031e-01,0.000000000000000000e+00,1.120000000000000000e+02
0.000000000000000000e+00,1.000000000000000000e+00,0.000000000000000000e+00,5.900000000000000000e+01,4.757000000000000000e+03,2.903821468353271484e-01,1.995252132415771484e+00,7.255347333929020870e-01,0.000000000000000000e+00,1.120000000000000000e+02
0.000000000000000000e+00,1.000000000000000000e+00,0.000000000000000000e+00,5.600000000000000000e+01,4.813000000000000000e+03,2.564918994903564453e-01,1.866240978240966797e+00,6.252036269700762539e-01,0.000000000000000000e+00,1.120000000000000000e+02
1.000000000000000000e+00,1.000000000000000000e+00,1.000000000000000000e+00,6.000000000000000000e+01,4.873000000000000000e+03,3.269572257995605469e-01,1.693140983581542969e+00,3.686686705452840163e-01,0.000000000000000000e+00,1.120000000000000000e+02
1.000000000000000000e+00,1.000000000000000000e+00,1.000000000000000000e+00,5.700000000000000000e+01,4.930000000000000000e+03,2.450671195983886719e-01,1.954768180847167969e+00,7.064488654513852994e-01,0.000000000000000000e+00,1.120000000000000000e+02
0.000000000000000000e+00,1.000000000000000000e+00,0.000000000000000000e+00,5.600000000000000000e+01,4.986000000000000000e+03,3.060479164123535156e-01,1.872520923614501953e+00,5.790964837677595733e-01,0.000000000000000000e+00,1.120000000000000000e+02
0.000000000000000000e+00,0.000000000000000000e+00,1.000000000000000000e+00,4.100000000000000000e+01,5.027000000000000000e+03,2.914330959320068359e-01,1.689249992370605469e+00,4.185857798626415605e-01,0.000000000000000000e+00,1.120000000000000000e+02
0.000000000000000000e+00,1.000000000000000000e+00,0.000000000000000000e+00,6.000000000000000000e+01,5.087000000000000000e+03,3.724570274353027344e-01,1.653095006942749023e+00,2.884970302461080660e-01,0.000000000000000000e+00,1.120000000000000000e+02
0.000000000000000000e+00,1.000000000000000000e+00,0.000000000000000000e+00,6.300000000000000000e+01,5.150000000000000000e+03,3.825178146362304688e-01,2.113481998443603516e+00,7.348412027159612059e-01,0.000000000000000000e+00,1.120000000000000000e+02
1.000000000000000000e+00,1.000000000000000000e+00,1.000000000000000000e+00,6.100000000000000000e+01,5.211000000000000000e+03,3.079891204833984375e-01,1.993905067443847656e+00,6.954872863178884757e-01,0.000000000000000000e+00,1.120000000000000000e+02
0.000000000000000000e+00,1.000000000000000000e+00,0.000000000000000000e+00,5.900000000000000000e+01,5.270000000000000000e+03,3.497769832611083984e-01,1.650894165039062500e+00,3.134865447494530888e-01,0.000000000000000000e+00,1.120000000000000000e+02
1.000000000000000000e+00,1.000000000000000000e+00,1.000000000000000000e+00,5.500000000000000000e+01,5.325000000000000000e+03,3.207509517669677734e-01,1.842108011245727539e+00,5.387175768387835184e-01,0.000000000000000000e+00,1.120000000000000000e+02
1.000000000000000000e+00,1.000000000000000000e+00,1.000000000000000000e+00,6.200000000000000000e+01,5.387000000000000000e+03,3.377988338470458984e-01,1.798909902572631836e+00,4.710625469671005927e-01,0.000000000000000000e+00,1.120000000000000000e+02
1.000000000000000000e+00,1.000000000000000000e+00,1.000000000000000000e+00,5.700000000000000000e+01,5.444000000000000000e+03,2.830071449279785156e-01,1.558948040008544922e+00,2.802499915195084679e-01,0.000000000000000000e+00,1.120000000000000000e+02
0.000000000000000000e+00,1.000000000000000000e+00,0.000000000000000000e+00,5.500000000000000000e+01,5.499000000000000000e+03,3.499639034271240234e-01,1.854526042938232422e+00,5.178734588914194470e-01,0.000000000000000000e+00,1.120000000000000000e+02
1.000000000000000000e+00,0.000000000000000000e+00,0.000000000000000000e+00,4.800000000000000000e+01,5.547000000000000000e+03,3.353459835052490234e-01,1.964084863662719727e+00,6.318592492080821188e-01,1.000000000000000000e+00,1.110000000000000000e+02
0.000000000000000000e+00,0.000000000000000000e+00,1.000000000000000000e+00,4.400000000000000000e+01,5.591000000000000000e+03,3.487298488616943359e-01,1.869666099548339844e+00,5.183471053400258155e-01,0.000000000000000000e+00,1.110000000000000000e+02
0.000000000000000000e+00,0.000000000000000000e+00,1.000000000000000000e+00,4.800000000000000000e+01,5.639000000000000000e+03,3.311290740966796875e-01,1.766993999481201172e+00,4.354867280777904859e-01,0.000000000000000000e+00,1.110000000000000000e+02
0.000000000000000000e+00,0.000000000000000000e+00,1.000000000000000000e+00,4.600000000000000000e+01,5.685000000000000000e+03,3.075749874114990234e-01,1.918357133865356445e+00,6.203575970114383331e-01,0.000000000000000000e+00,1.110000000000000000e+02
0.000000000000000000e+00,1.000000000000000000e+00,0.000000000000000000e+00,5.200000000000000000e+01,5.737000000000000000e+03,3.539700508117675781e-01,1.955006837844848633e+00,6.087464549548577963e-01,0.000000000000000000e+00,1.110000000000000000e+02
0.000000000000000000e+00,1.000000000000000000e+00,0.000000000000000000e+00,5.400000000000000000e+01,5.791000000000000000e+03,3.279728889465332031e-01,1.829073905944824219e+00,5.045773289063579803e-01,0.000000000000000000e+00,1.110000000000000000e+02
0.000000000000000000e+00,1.000000000000000000e+00,0.000000000000000000e+00,5.300000000000000000e+01,5.844000000000000000e+03,2.796969413757324219e-01,1.899542093276977539e+00,6.206716075915190700e-01,0.000000000000000000e+00,1.110000000000000000e+02
0.000000000000000000e+00,1.000000000000000000e+00,0.000000000000000000e+00,5.100000000000000000e+01,5.895000000000000000e+03,2.848069667816162109e-01,1.737350940704345703e+00,4.582116931561416306e-01,0.000000000000000000e+00,1.110000000000000000e+02
0.000000000000000000e+00,1.000000000000000000e+00,0.000000000000000000e+00,5.200000000000000000e+01,5.947000000000000000e+03,2.725670337677001953e-01,1.597959041595458984e+00,3.396854685956495756e-01,0.000000000000000000e+00,1.110000000000000000e+02
1.000000000000000000e+00,1.000000000000000000e+00,1.000000000000000000e+00,5.700000000000000000e+01,6.004000000000000000e+03,3.694891929626464844e-01,1.680850028991699219e+00,3.205674525233236372e-01,0.000000000000000000e+00,1.110000000000000000e+02
0.000000000000000000e+00,1.000000000000000000e+00,0.000000000000000000e+00,5.100000000000000000e+01,6.055000000000000000e+03,3.602991104125976562e-01,1.789675951004028320e+00,4.268274373038968839e-01,0.000000000000000000e+00,1.110000000000000000e+02
1.000000000000000000e+00,1.000000000000000000e+00,1.000000000000000000e+00,5.100000000000000000e+01,6.106000000000000000e+03,2.930231094360351562e-01,1.788563013076782227e+00,5.153095540111121142e-01,0.000000000000000000e+00,1.110000000000000000e+02
0.000000000000000000e+00,1.000000000000000000e+00,0.000000000000000000e+00,5.700000000000000000e+01,6.163000000000000000e+03,3.430340290069580078e-01,1.835467815399169922e+00,4.842012387224481351e-01,0.000000000000000000e+00,1.110000000000000000e+02
0.000000000000000000e+00,1.000000000000000000e+00,0.000000000000000000e+00,5.600000000000000000e+01,6.219000000000000000e+03,2.537109851837158203e-01,1.970203161239624023e+00,7.208458395813943653e-01,0.000000000000000000e+00,1.110000000000000000e+02
1.000000000000000000e+00,1.000000000000000000e+00,1.000000000000000000e+00,5.700000000000000000e+01,6.276000000000000000e+03,3.021187782287597656e-01,1.950061082839965820e+00,6.543512816283324485e-01,0.000000000000000000e+00,1.110000000000000000e+02
1.000000000000000000e+00,1.000000000000000000e+00,1.000000000000000000e+00,5.600000000000000000e+01,6.332000000000000000e+03,2.553110122680664062e-01,1.580647945404052734e+00,3.353384642894163825e-01,0.000000000000000000e+00,1.110000000000000000e+02
1.000000000000000000e+00,1.000000000000000000e+00,1.000000000000000000e+00,5.300000000000000000e+01,6.385000000000000000e+03,2.799429893493652344e-01,1.790732860565185547e+00,5.092533384157134080e-01,0.000000000000000000e+00,1.110000000000000000e+02
0.000000000000000000e+00,1.000000000000000000e+00,0.000000000000000000e+00,5.200000000000000000e+01,6.437000000000000000e+03,3.666489124298095703e-01,1.698845863342285156e+00,3.416245382202247050e-01,0.000000000000000000e+00,1.110000000000000000e+02
1.000000000000000000e+00,1.000000000000000000e+00,1.000000000000000000e+00,5.500000000000000000e+01,6.492000000000000000e+03,2.747080326080322266e-01,1.627265930175781250e+00,3.688863799769719343e-01,0.000000000000000000e+00,1.110000000000000000e+02
1.000000000000000000e+00,1.000000000000000000e+00,1.000000000000000000e+00,5.200000000000000000e+01,6.544000000000000000e+03,3.314721584320068359e-01,2.027393817901611328e+00,6.959626108883909534e-01,0.000000000000000000e+00,1.110000000000000000e+02
0.000000000000000000e+00,1.000000000000000000e+00,0.000000000000000000e+00,5.500000000000000000e+01,6.599000000000000000e+03,3.579230308532714844e-01,1.887335062026977539e+00,5.501362569572003647e-01,0.000000000000000000e+00,1.110000000000000000e+02
0.000000000000000000e+00,0.000000000000000000e+00,1.000000000000000000e+00,4.500000000000000000e+01,6.644000000000000000e+03,2.919011116027832031e-01,1.571146965026855469e+00,2.882824589559684347e-01,0.000000000000000000e+00,1.110000000000000000e+02
0.000000000000000000e+00,1.000000000000000000e+00,0.000000000000000000e+00,5.000000000000000000e+01,6.694000000000000000e+03,2.763729095458984375e-01,1.980821132659912109e+00,7.186855522100334959e-01,0.000000000000000000e+00,1.110000000000000000e+02
1.000000000000000000e+00,1.000000000000000000e+00,1.000000000000000000e+00,5.300000000000000000e+01,6.747000000000000000e+03,3.540298938751220703e-01,1.972877979278564453e+00,6.250007253425151621e-01,0.000000000000000000e+00,1.110000000000000000e+02
1.000000000000000000e+00,1.000000000000000000e+00,1.000000000000000000e+00,5.100000000000000000e+01,6.798000000000000000e+03,2.294499874114990234e-01,1.822164058685302734e+00,5.972469286045017922e-01,0.000000000000000000e+00,1.110000000000000000e+02
0.000000000000000000e+00,0.000000000000000000e+00,1.000000000000000000e+00,4.000000000000000000e+01,6.838000000000000000e+03,3.508589267730712891e-01,1.768477201461791992e+00,4.325868012068921908e-01,1.000000000000000000e+00,1.120000000000000000e+02
1.000000000000000000e+00,1.000000000000000000e+00,1.000000000000000000e+00,5.600000000000000000e+01,6.894000000000000000e+03,2.895720005035400391e-01,1.734920024871826172e+00,4.508274318431533256e-01,0.000000000000000000e+00,1.120000000000000000e+02
0.000000000000000000e+00,1.000000000000000000e+00,0.000000000000000000e+00,6.200000000000000000e+01,6.956000000000000000e+03,3.723011016845703125e-01,1.874833822250366211e+00,5.090009412043798864e-01,0.000000000000000000e+00,1.120000000000000000e+02
1.000000000000000000e+00,1.000000000000000000e+00,1.000000000000000000e+00,6.100000000000000000e+01,7.017000000000000000e+03,2.747509479522705078e-01,1.752847194671630859e+00,4.951975571435430767e-01,0.000000000000000000e+00,1.120000000000000000e+02
0.000000000000000000e+00,1.000000000000000000e+00,0.000000000000000000e+00,5.500000000000000000e+01,7.072000000000000000e+03,3.227400779724121094e-01,1.817988872528076172e+00,5.132186201830029049e-01,0.000000000000000000e+00,1.120000000000000000e+02
1.000000000000000000e+00,1.000000000000000000e+00,1.000000000000000000e+00,6.000000000000000000e+01,7.132000000000000000e+03,3.500669002532958984e-01,2.020424127578735352e+00,6.834906845017263421e-01,0.000000000000000000e+00,1.120000000000000000e+02
0.000000000000000000e+00,1.000000000000000000e+00,0.000000000000000000e+00,5.500000000000000000e+01,7.187000000000000000e+03,3.098871707916259766e-01,1.862833976745605469e+00,5.631182422423904876e-01,0.000000000000000000e+00,1.120000000000000000e+02
0.000000000000000000e+00,0.000000000000000000e+00,1.000000000000000000e+00,4.200000000000000000e+01,7.229000000000000000e+03,2.629399299621582031e-01,1.508336067199707031e+00,2.551485122939368133e-01,0.000000000000000000e+00,1.120000000000000000e+02
0.000000000000000000e+00,1.000000000000000000e+00,0.000000000000000000e+00,5.600000000000000000e+01,7.285000000000000000e+03,3.273570537567138672e-01,1.752498865127563477e+00,4.241491377881557168e-01,0.000000000000000000e+00,1.120000000000000000e+02
0.000000000000000000e+00,1.000000000000000000e+00,0.000000000000000000e+00,5.700000000000000000e+01,7.342000000000000000e+03,3.043959140777587891e-01,1.813637971878051758e+00,5.210714934264809584e-01,0.000000000000000000e+00,1.120000000000000000e+02
1.000000000000000000e+00,1.000000000000000000e+00,1.000000000000000000e+00,6.100000000000000000e+01,7.403000000000000000e+03,2.737979888916015625e-01,1.586636066436767578e+00,3.245993679158590828e-01,0.000000000000000000e+00,1.120000000000000000e+02
1.000000000000000000e+00,1.000000000000000000e+00,1.000000000000000000e+00,5.600000000000000000e+01,7.459000000000000000e+03,3.665790557861328125e-01,1.850304841995239258e+00,4.914539163833389068e-01,0.000000000000000000e+00,1.120000000000000000e+02
0.000000000000000000e+00,1.000000000000000000e+00,0.000000000000000000e+00,6.600000000000000000e+01,7.525000000000000000e+03,3.876709938049316406e-01,1.641383886337280273e+00,2.664026242366523411e-01,0.000000000000000000e+00,1.120000000000000000e+02
1.000000000000000000e+00,1.000000000000000000e+00,1.000000000000000000e+00,5.500000000000000000e+01,7.580000000000000000e+03,3.196458816528320312e-01,1.817744016647338867e+00,5.005661145190001271e-01,0.000000000000000000e+00,1.120000000000000000e+02
0.000000000000000000e+00,1.000000000000000000e+00,0.000000000000000000e+00,5.900000000000000000e+01,7.639000000000000000e+03,2.940239906311035156e-01,1.933969974517822266e+00,6.344475246226930487e-01,0.000000000000000000e+00,1.120000000000000000e+02
0.000000000000000000e+00,1.000000000000000000e+00,0.000000000000000000e+00,5.900000000000000000e+01,7.698000000000000000e+03,3.177740573883056641e-01,1.859050035476684570e+00,5.436002252946987578e-01,0.000000000000000000e+00,1.120000000000000000e+02
0.000000000000000000e+00,1.000000000000000000e+00,0.000000000000000000e+00,6.200000000000000000e+01,7.760000000000000000e+03,2.508168220520019531e-01,1.654907941818237305e+00,4.154178978011716650e-01,0.000000000000000000e+00,1.120000000000000000e+02
1.000000000000000000e+00,1.000000000000000000e+00,1.000000000000000000e+00,5.600000000000000000e+01,7.816000000000000000e+03,3.095591068267822266e-01,1.939588069915771484e+00,6.214398776931587820e-01,0.000000000000000000e+00,1.120000000000000000e+02
1.000000000000000000e+00,1.000000000000000000e+00,1.000000000000000000e+00,5.500000000000000000e+01,7.871000000000000000e+03,3.039629459381103516e-01,1.607156038284301758e+00,3.122942097923650517e-01,0.000000000000000000e+00,1.120000000000000000e+02
0.000000000000000000e+00,1.000000000000000000e+00,0.000000000000000000e+00,5.600000000000000000e+01,7.927000000000000000e+03,3.510019779205322266e-01,1.705822944641113281e+00,3.680565663018964262e-01,0.000000000000000000e+00,1.120000000000000000e+02
0.000000000000000000e+00,1.000000000000000000e+00,0.000000000000000000e+00,5.600000000000000000e+01,7.983000000000000000e+03,2.624018192291259766e-01,1.740420103073120117e+00,4.750659393450385459e-01,0.000000000000000000e+00,1.120000000000000000e+02
0.000000000000000000e+00,1.000000000000000000e+00,0.000000000000000000e+00,5.600000000000000000e+01,8.039000000000000000e+03,2.970919609069824219e-01,2.020732879638671875e+00,7.289079133042237757e-01,0.000000000000000000e+00,1.120000000000000000e+02
1.000000000000000000e+00,1.000000000000000000e+00,1.000000000000000000e+00,5.700000000000000000e+01,8.096000000000000000e+03,3.215370178222656250e-01,1.672797918319702148e+00,3.688102884266320491e-01,0.000000000000000000e+00,1.120000000000000000e+02
1.000000000000000000e+00,1.000000000000000000e+00,1.000000000000000000e+00,5.600000000000000000e+01,8.152000000000000000e+03,2.942199707031250000e-01,1.913902997970581055e+00,6.157688936872587337e-01,0.000000000000000000e+00,1.120000000000000000e+02
1.000000000000000000e+00,1.000000000000000000e+00,1.000000000000000000e+00,5.700000000000000000e+01,8.209000000000000000e+03,3.416221141815185547e-01,1.840939998626708984e+00,5.068050362546913101e-01,0.000000000000000000e+00,1.120000000000000000e+02
0.000000000000000000e+00,1.000000000000000000e+00,0.000000000000000000e+00,5.900000000000000000e+01,8.268000000000000000e+03,3.474931716918945312e-01,1.721065998077392578e+00,3.781117634659221793e-01,0.000000000000000000e+00,1.120000000000000000e+02
1.000000000000000000e+00,1.000000000000000000e+00,1.000000000000000000e+00,6.000000000000000000e+01,8.328000000000000000e+03,3.237700462341308594e-01,1.975106954574584961e+00,6.695712018620413319e-01,0.000000000000000000e+00,1.120000000000000000e+02
1.000000000000000000e+00,1.000000000000000000e+00,1.000000000000000000e+00,6.000000000000000000e+01,8.388000000000000000e+03,3.024771213531494141e-01,1.889520883560180664e+00,5.925512807282996564e-01,0.000000000000000000e+00,1.120000000000000000e+02
0.000000000000000000e+00,1.000000000000000000e+00,0.000000000000000000e+00,5.700000000000000000e+01,8.445000000000000000e+03,3.163330554962158203e-01,1.576622009277343750e+00,2.695628289366011066e-01,0.000000000000000000e+00,1.120000000000000000e+02
1.000000000000000000e+00,1.000000000000000000e+00,1.000000000000000000e+00,6.000000000000000000e+01,8.505000000000000000e+03,3.339650630950927734e-01,1.900863885879516602e+00,5.701123869031841096e-01,0.000000000000000000e+00,1.120000000000000000e+02
0.000000000000000000e+00,1.000000000000000000e+00,0.000000000000000000e+00,6.500000000000000000e+01,8.570000000000000000e+03,3.400549888610839844e-01,1.889687061309814453e+00,5.598620228313864189e-01,0.000000000000000000e+00,1.120000000000000000e+02
0.000000000000000000e+00,0.000000000000000000e+00,1.000000000000000000e+00,4.500000000000000000e+01,8.615000000000000000e+03,2.687730789184570312e-01,1.657890081405639648e+00,4.012911465681556766e-01,1.000000000000000000e+00,1.110000000000000000e+02
1.000000000000000000e+00,0.000000000000000000e+00,0.000000000000000000e+00,4.600000000000000000e+01,8.661000000000000000e+03,2.351498603820800781e-01,1.766406059265136719e+00,5.342505793705227823e-01,0.000000000000000000e+00,1.110000000000000000e+02
0.000000000000000000e+00,1.000000000000000000e+00,0.000000000000000000e+00,5.400000000000000000e+01,8.715000000000000000e+03,3.155581951141357422e-01,1.905296802520751953e+00,5.895363905599058096e-01,0.000000000000000000e+00,1.110000000000000000e+02
0.000000000000000000e+00,1.000000000000000000e+00,0.000000000000000000e+00,5.600000000000000000e+01,8.771000000000000000e+03,3.136131763458251953e-01,1.727786064147949219e+00,4.174928717541217527e-01,0.000000000000000000e+00,1.110000000000000000e+02
0.000000000000000000e+00,1.000000000000000000e+00,0.000000000000000000e+00,5.700000000000000000e+01,8.828000000000000000e+03,2.813780307769775391e-01,1.861900091171264648e+00,5.792618916151327513e-01,0.000000000000000000e+00,1.110000000000000000e+02
0.000000000000000000e+00,1.000000000000000000e+00,0.000000000000000000e+00,5.500000000000000000e+01,8.883000000000000000e+03,2.544121742248535156e-01,1.859112977981567383e+00,6.217075298630273528e-01,0.000000000000000000e+00,1.110000000000000000e+02
0.000000000000000000e+00,1.000000000000000000e+00,0.000000000000000000e+00,5.700000000000000000e+01,8.940000000000000000e+03,2.598290443420410156e-01,1.933930158615112305e+00,6.888904767313952515e-01,0.000000000000000000e+00,1.110000000000000000e+02
1.000000000000000000e+00,1.000000000000000000e+00,1.000000000000000000e+00,6.000000000000000000e+01,9.000000000000000000e+03,3.375380039215087891e-01,1.899405002593994141e+00,5.718090986523879371e-01,0.000000000000000000e+00,1.110000000000000000e+02
0.000000000000000000e+00,1.000000000000000000e+00,0.000000000000000000e+00,5.400000000000000000e+01,9.054000000000000000e+03,3.363320827484130859e-01,1.587924003601074219e+00,2.600957000391396767e-01,0.000000000000000000e+00,1.110000000000000000e+02
1.000000000000000000e+00,1.000000000000000000e+00,1.000000000000000000e+00,5.400000000000000000e+01,9.108000000000000000e+03,3.103508949279785156e-01,1.786699056625366211e+00,4.965492166556919051e-01,0.000000000000000000e+00,1.110000000000000000e+02
0.000000000000000000e+00,1.000000000000000000e+00,0.000000000000000000e+00,5.600000000000000000e+01,9.164000000000000000e+03,2.931120395660400391e-01,1.679934978485107422e+00,4.099471912514064398e-01,0.000000000000000000e+00,1.110000000000000000e+02
0.000000000000000000e+00,1.000000000000000000e+00,0.000000000000000000e+00,5.300000000000000000e+01,9.217000000000000000e+03,2.738039493560791016e-01,1.714323997497558594e+00,4.576019902680757978e-01,0.000000000000000000e+00,1.110000000000000000e+02
1.000000000000000000e+00,1.000000000000000000e+00,1.000000000000000000e+00,5.600000000000000000e+01,9.273000000000000000e+03,3.392720222473144531e-01,1.806019783020019531e+00,4.802577740482192326e-01,0.000000000000000000e+00,1.110000000000000000e+02
0.000000000000000000e+00,1.000000000000000000e+00,0.000000000000000000e+00,5.400000000000000000e+01,9.327000000000000000e+03,3.162498474121093750e-01,1.742276906967163086e+00,4.393035419556294841e-01,0.000000000000000000e+00,1.110000000000000000e+02
1.000000000000000000e+00,1.000000000000000000e+00,1.000000000000000000e+00,5.700000000000000000e+01,9.384000000000000000e+03,2.673218250274658203e-01,1.615230083465576172e+00,3.546595787966517199e-01,0.000000000000000000e+00,1.110000000000000000e+02
1.000000000000000000e+00,1.000000000000000000e+00,1.000000000000000000e+00,5.500000000000000000e+01,9.439000000000000000e+03,3.037419319152832031e-01,1.889471054077148438e+00,5.939015295859226828e-01,0.000000000000000000e+00,1.110000000000000000e+02
0.000000000000000000e+00,1.000000000000000000e+00,0.000000000000000000e+00,5.900000000000000000e+01,9.498000000000000000e+03,3.024230003356933594e-01,1.931414842605590820e+00,6.419685354676216704e-01,0.000000000000000000e+00,1.110000000000000000e+02
1.000000000000000000e+00,1.000000000000000000e+00,1.000000000000000000e+00,5.600000000000000000e+01,9.554000000000000000e+03,3.092010021209716797e-01,1.852989912033081055e+00,5.617226347920700746e-01,0.000000000000000000e+00,1.110000000000000000e+02
0.000000000000000000e+00,1.000000000000000000e+00,0.000000000000000000e+00,5.700000000000000000e+01,9.611000000000000000e+03,3.242349624633789062e-01,1.703435897827148438e+00,3.987024043457496059e-01,0.000000000000000000e+00,1.110000000000000000e+02
1.000000000000000000e+00,1.000000000000000000e+00,1.000000000000000000e+00,5.100000000000000000e+01,9.662000000000000000e+03,3.133168220520019531e-01,1.640451192855834961e+00,3.392313314600369778e-01,0.000000000000000000e+00,1.110000000000000000e+02
1.000000000000000000e+00,1.000000000000000000e+00,1.000000000000000000e+00,5.300000000000000000e+01,9.715000000000000000e+03,2.913908958435058594e-01,1.661003828048706055e+00,3.835598914995013153e-01,0.000000000000000000e+00,1.110000000000000000e+02
0.000000000000000000e+00,0.000000000000000000e+00,1.000000000000000000e+00,4.300000000000000000e+01,9.758000000000000000e+03,2.987418174743652344e-01,1.668663024902343750e+00,3.689249975157372630e-01,0.000000000000000000e+00,1.110000000000000000e+02
0.000000000000000000e+00,1.000000000000000000e+00,0.000000000000000000e+00,6.000000000000000000e+01,9.818000000000000000e+03,2.951698303222656250e-01,1.597182035446166992e+00,2.995489406946327815e-01,0.000000000000000000e+00,1.110000000000000000e+02
0.000000000000000000e+00,1.000000000000000000e+00,0.000000000000000000e+00,5.100000000000000000e+01,9.869000000000000000e+03,2.500820159912109375e-01,1.897171020507812500e+00,6.464193936227321524e-01,0.000000000000000000e+00,1.110000000000000000e+02
1.000000000000000000e+00,1.000000000000000000e+00,1.000000000000000000e+00,6.100000000000000000e+01,9.930000000000000000e+03,3.669459819793701172e-01,1.733813047409057617e+00,3.804941400898703141e-01,0.000000000000000000e+00,1.110000000000000000e+02
0.000000000000000000e+00,1.000000000000000000e+00,0.000000000000000000e+00,5.000000000000000000e+01,9.980000000000000000e+03,3.646681308746337891e-01,2.030615091323852539e+00,6.775288062695963287e-01,0.000000000000000000e+00,1.110000000000000000e+02
1.000000000000000000e+00,1.000000000000000000e+00,1.000000000000000000e+00,5.400000000000000000e+01,1.003400000000000000e+04,3.703851699829101562e-01,2.039870977401733398e+00,6.840909191834545489e-01,0.000000000000000000e+00,1.110000000000000000e+02
0.000000000000000000e+00,1.000000000000000000e+00,0.000000000000000000e+00,5.300000000000000000e+01,1.008700000000000000e+04,3.473498821258544922e-01,1.962812900543212891e+00,6.136769724014289329e-01,0.000000000000000000e+00,1.110000000000000000e+02
1.000000000000000000e+00,1.000000000000000000e+00,1.000000000000000000e+00,5.600000000000000000e+01,1.014300000000000000e+04,2.985210418701171875e-01,1.628400802612304688e+00,3.423625783628813646e-01,0.000000000000000000e+00,1.110000000000000000e+02
0.000000000000000000e+00,1.000000000000000000e+00,0.000000000000000000e+00,5.300000000000000000e+01,1.019600000000000000e+04,3.342609405517578125e-01,1.870555162429809570e+00,5.460936645821345969e-01,0.000000000000000000e+00,1.110000000000000000e+02
1.000000000000000000e+00,1.000000000000000000e+00,1.000000000000000000e+00,5.600000000000000000e+01,1.025200000000000000e+04,2.876338958740234375e-01,1.587549924850463867e+00,3.172367361953889464e-01,0.000000000000000000e+00,1.110000000000000000e+02
0.000000000000000000e+00,1.000000000000000000e+00,0.000000000000000000e+00,5.300000000000000000e+01,1.030500000000000000e+04,3.256611824035644531e-01,1.830019950866699219e+00,5.137475703896290380e-01,0.000000000000000000e+00,1.110000000000000000e+02
0.000000000000000000e+00,1.000000000000000000e+00,0.000000000000000000e+00,5.600000000000000000e+01,1.036100000000000000e+04,3.081099987030029297e-01,1.646937847137451172e+00,3.608945904102699442e-01,0.000000000000000000e+00,1.110000000000000000e+02
1.000000000000000000e+00,1.000000000000000000e+00,1.000000000000000000e+00,5.700000000000000000e+01,1.041800000000000000e+04,2.810540199279785156e-01,1.526385068893432617e+00,2.540566916493827709e-01,0.000000000000000000e+00,1.110000000000000000e+02
1.000000000000000000e+00,1.000000000000000000e+00,1.000000000000000000e+00,5.600000000000000000e+01,1.047400000000000000e+04,2.709059715270996094e-01,1.616250038146972656e+00,3.535524838461597263e-01,0.000000000000000000e+00,1.110000000000000000e+02
0.000000000000000000e+00,1.000000000000000000e+00,0.000000000000000000e+00,5.200000000000000000e+01,1.052600000000000000e+04,3.002212047576904297e-01,1.871288061141967773e+00,5.746274459922592337e-01,0.000000000000000000e+00,1.110000000000000000e+02
0.000000000000000000e+00,1.000000000000000000e+00,0.000000000000000000e+00,5.300000000000000000e+01,1.057900000000000000e+04,2.976989746093750000e-01,1.878963947296142578e+00,5.869580172957321595e-01,0.000000000000000000e+00,1.110000000000000000e+02
1.000000000000000000e+00,1.000000000000000000e+00,1.000000000000000000e+00,5.000000000000000000e+01,1.062900000000000000e+04,3.174049854278564453e-01,1.628250122070312500e+00,3.154993600067738657e-01,0.000000000000000000e+00,1.110000000000000000e+02
1.000000000000000000e+00,0.000000000000000000e+00,0.000000000000000000e+00,4.600000000000000000e+01,1.067500000000000000e+04,2.552158832550048828e-01,1.797055006027221680e+00,5.456798473510360292e-01,1.000000000000000000e+00,1.120000000000000000e+02
1.000000000000000000e+00,1.000000000000000000e+00,1.000000000000000000e+00,5.700000000000000000e+01,1.073200000000000000e+04,2.968578338623046875e-01,1.842992067337036133e+00,5.553937728680207186e-01,0.000000000000000000e+00,1.120000000000000000e+02
1.000000000000000000e+00,1.000000000000000000e+00,1.000000000000000000e+00,5.200000000000000000e+01,1.078400000000000000e+04,2.749512195587158203e-01,1.819316148757934570e+00,5.580709560428225302e-01,0.000000000000000000e+00,1.120000000000000000e+02
1.000000000000000000e+00,1.000000000000000000e+00,1.000000000000000000e+00,5.400000000000000000e+01,1.083800000000000000e+04,2.803621292114257812e-01,1.661693811416625977e+00,3.866074196463171186e-01,0.000000000000000000e+00,1.120000000000000000e+02
1.000000000000000000e+00,1.000000000000000000e+00,1.000000000000000000e+00,5.500000000000000000e+01,1.089300000000000000e+04,2.747089862823486328e-01,1.666102170944213867e+00,4.027187139760527446e-01,0.000000000000000000e+00,1.120000000000000000e+02
1.000000000000000000e+00,1.000000000000000000e+00,1.000000000000000000e+00,5.600000000000000000e+01,1.094900000000000000e+04,2.730450630187988281e-01,2.000013828277587891e+00,7.357612698659312667e-01,0.000000000000000000e+00,1.120000000000000000e+02
1.000000000000000000e+00,1.000000000000000000e+00,1.000000000000000000e+00,5.500000000000000000e+01,1.100400000000000000e+04,3.792030811309814453e-01,1.680635929107666016e+00,3.002527528091495368e-01,0.000000000000000000e+00,1.120000000000000000e+02
1.000000000000000000e+00,1.000000000000000000e+00,1.000000000000000000e+00,5.300000000000000000e+01,1.105700000000000000e+04,2.758831977844238281e-01,1.710668087005615234e+00,4.441347726775883298e-01,0.000000000000000000e+00,1.120000000000000000e+02
0.000000000000000000e+00,1.000000000000000000e+00,0.000000000000000000e+00,6.100000000000000000e+01,1.111800000000000000e+04,3.529388904571533203e-01,1.837766885757446289e+00,4.985346168854102311e-01,0.000000000000000000e+00,1.120000000000000000e+02
0.000000000000000000e+00,1.000000000000000000e+00,0.000000000000000000e+00,5.500000000000000000e+01,1.117300000000000000e+04,3.250169754028320312e-01,1.840276956558227539e+00,5.221391926145567686e-01,0.000000000000000000e+00,1.120000000000000000e+02
0.000000000000000000e+00,1.000000000000000000e+00,0.000000000000000000e+00,5.500000000000000000e+01,1.122800000000000000e+04,3.437378406524658203e-01,1.793631076812744141e+00,4.659853012299676744e-01,0.000000000000000000e+00,1.120000000000000000e+02
1.000000000000000000e+00,1.000000000000000000e+00,1.000000000000000000e+00,5.900000000000000000e+01,1.128700000000000000e+04,3.488469123840332031e-01,2.005378007888793945e+00,6.544261623272989992e-01,0.000000000000000000e+00,1.120000000000000000e+02
0.000000000000000000e+00,1.000000000000000000e+00,0.000000000000000000e+00,5.600000000000000000e+01,1.134300000000000000e+04,3.620731830596923828e-01,1.714612960815429688e+00,3.527151379126445274e-01,0.000000000000000000e+00,1.120000000000000000e+02
0.000000000000000000e+00,1.000000000000000000e+00,0.000000000000000000e+00,5.300000000000000000e+01,1.139600000000000000e+04,3.263318538665771484e-01,1.721942186355590820e+00,4.079909304045986618e-01,0.000000000000000000e+00,1.120000000000000000e+02
1.000000000000000000e+00,1.000000000000000000e+00,1.000000000000000000e+00,5.600000000000000000e+01,1.145200000000000000e+04,3.627140522003173828e-01,1.862807989120483398e+00,5.040504181698717279e-01,0.000000000000000000e+00,1.120000000000000000e+02
1.000000000000000000e+00,1.000000000000000000e+00,1.000000000000000000e+00,5.500000000000000000e+01,1.150700000000000000e+04,3.642480373382568359e-01,2.033313035964965820e+00,6.705216489917534828e-01,0.000000000000000000e+00,1.120000000000000000e+02
1.000000000000000000e+00,1.000000000000000000e+00,1.000000000000000000e+00,5.500000000000000000e+01,1.156200000000000000e+04,4.098541736602783203e-01,1.825278043746948242e+00,4.294488248295519894e-01,0.000000000000000000e+00,1.120000000000000000e+02
0.000000000000000000e+00,1.000000000000000000e+00,0.000000000000000000e+00,6.100000000000000000e+01,1.162300000000000000e+04,3.572041988372802734e-01,1.697876930236816406e+00,3.607586406479517116e-01,0.000000000000000000e+00,1.120000000000000000e+02
1.000000000000000000e+00,1.000000000000000000e+00,1.000000000000000000e+00,5.400000000000000000e+01,1.167700000000000000e+04,2.952909469604492188e-01,1.712254047393798828e+00,4.229748377833971174e-01,0.000000000000000000e+00,1.120000000000000000e+02
0.000000000000000000e+00,1.000000000000000000e+00,0.000000000000000000e+00,6.300000000000000000e+01,1.174000000000000000e+04,3.667600154876708984e-01,1.995949029922485352e+00,6.352421660498852596e-01,0.000000000000000000e+00,1.120000000000000000e+02
1.000000000000000000e+00,1.000000000000000000e+00,1.000000000000000000e+00,5.500000000000000000e+01,1.179500000000000000e+04,2.877280712127685547e-01,1.686820983886718750e+00,4.057707143721102638e-01,0.000000000000000000e+00,1.120000000000000000e+02
1.000000000000000000e+00,1.000000000000000000e+00,1.000000000000000000e+00,5.600000000000000000e+01,1.185100000000000000e+04,2.814319133758544922e-01,1.954011917114257812e+00,6.762256414201843757e-01,0.000000000000000000e+00,1.120000000000000000e+02
1.000000000000000000e+00,1.000000000000000000e+00,1.000000000000000000e+00,5.600000000000000000e+01,1.190700000000000000e+04,3.035280704498291016e-01,1.673303842544555664e+00,3.831857033818278913e-01,0.000000000000000000e+00,1.120000000000000000e+02
0.000000000000000000e+00,1.000000000000000000e+00,0.000000000000000000e+00,5.400000000000000000e+01,1.196100000000000000e+04,3.402829170227050781e-01,1.600879192352294922e+00,2.675009765965967179e-01,0.000000000000000000e+00,1.120000000000000000e+02
0.000000000000000000e+00,1.000000000000000000e+00,0.000000000000000000e+00,5.600000000000000000e+01,1.201700000000000000e+04,3.343849182128906250e-01,1.726432800292968750e+00,3.938681798368223741e-01,0.000000000000000000e+00,1.120000000000000000e+02
0.000000000000000000e+00,1.000000000000000000e+00,0.000000000000000000e+00,5.600000000000000000e+01,1.207300000000000000e+04,2.436959743499755859e-01,1.811902999877929688e+00,5.889286286071457877e-01,0.000000000000000000e+00,1.120000000000000000e+02
1.000000000000000000e+00,1.000000000000000000e+00,1.000000000000000000e+00,5.600000000000000000e+01,1.212900000000000000e+04,2.540831565856933594e-01,1.498109102249145508e+00,2.540740483650550940e-01,0.000000000000000000e+00,1.120000000000000000e+02
1.000000000000000000e+00,1.000000000000000000e+00,1.000000000000000000e+00,5.200000000000000000e+01,1.218100000000000000e+04,3.011579513549804688e-01,1.856117010116577148e+00,5.599049087264087454e-01,0.000000000000000000e+00,1.120000000000000000e+02
0.000000000000000000e+00,1.000000000000000000e+00,0.000000000000000000e+00,5.200000000000000000e+01,1.223300000000000000e+04,3.522810935974121094e-01,2.057968139648437500e+00,7.177637472546630759e-01,0.000000000000000000e+00,1.120000000000000000e+02
1.000000000000000000e+00,1.000000000000000000e+00,1.000000000000000000e+00,5.300000000000000000e+01,1.228600000000000000e+04,3.287279605865478516e-01,2.006888866424560547e+00,6.747158959163737091e-01,0.000000000000000000e+00,1.120000000000000000e+02
1.000000000000000000e+00,1.000000000000000000e+00,1.000000000000000000e+00,5.600000000000000000e+01,1.234200000000000000e+04,2.956948280334472656e-01,1.768671989440917969e+00,4.769956282212422516e-01,0.000000000000000000e+00,1.120000000000000000e+02
0.000000000000000000e+00,1.000000000000000000e+00,0.000000000000000000e+00,5.400000000000000000e+01,1.239600000000000000e+04,3.890430927276611328e-01,1.753936052322387695e+00,3.810474930874794275e-01,0.000000000000000000e+00,1.120000000000000000e+02
0.000000000000000000e+00,1.000000000000000000e+00,0.000000000000000000e+00,5.000000000000000000e+01,1.244600000000000000e+04,2.842569351196289062e-01,1.779739141464233398e+00,5.106823970402913915e-01,0.000000000000000000e+00,1.120000000000000000e+02
1.000000000000000000e+00,1.000000000000000000e+00,1.000000000000000000e+00,6.000000000000000000e+01,1.250600000000000000e+04,3.058981895446777344e-01,2.027255058288574219e+00,7.377216468427645335e-01,0.000000000000000000e+00,1.120000000000000000e+02
1.000000000000000000e+00,1.000000000000000000e+00,1.000000000000000000e+00,5.700000000000000000e+01,1.256300000000000000e+04,2.995769977569580078e-01,1.798402786254882812e+00,5.030772166824204472e-01,0.000000000000000000e+00,1.120000000000000000e+02
0.000000000000000000e+00,1.000000000000000000e+00,0.000000000000000000e+00,5.400000000000000000e+01,1.261700000000000000e+04,3.227210044860839844e-01,1.611269950866699219e+00,2.979149216982867054e-01,0.000000000000000000e+00,1.120000000000000000e+02
1.000000000000000000e+00,0.000000000000000000e+00,0.000000000000000000e+00,4.800000000000000000e+01,1.266500000000000000e+04,3.327851295471191406e-01,1.577889919281005859e+00,2.591766078750005753e-01,1.000000000000000000e+00,1.110000000000000000e+02
1.000000000000000000e+00,1.000000000000000000e+00,1.000000000000000000e+00,5.400000000000000000e+01,1.271900000000000000e+04,2.915201187133789062e-01,1.719649791717529297e+00,4.453786942915379243e-01,0.000000000000000000e+00,1.110000000000000000e+02
1.000000000000000000e+00,1.000000000000000000e+00,1.000000000000000000e+00,5.100000000000000000e+01,1.277000000000000000e+04,2.509231567382812500e-01,1.959677934646606445e+00,7.214745080999145355e-01,0.000000000000000000e+00,1.110000000000000000e+02
1.000000000000000000e+00,1.000000000000000000e+00,1.000000000000000000e+00,5.300000000000000000e+01,1.282300000000000000e+04,2.982821464538574219e-01,1.794484138488769531e+00,4.995222980132716928e-01,0.000000000000000000e+00,1.110000000000000000e+02
1.000000000000000000e+00,1.000000000000000000e+00,1.000000000000000000e+00,5.600000000000000000e+01,1.287900000000000000e+04,2.453467845916748047e-01,1.539506912231445312e+00,2.892886103470764803e-01,0.000000000000000000e+00,1.110000000000000000e+02
0.000000000000000000e+00,1.000000000000000000e+00,0.000000000000000000e+00,5.400000000000000000e+01,1.293300000000000000e+04,3.420670032501220703e-01,1.598201036453247070e+00,2.708750459971407953e-01,0.000000000000000000e+00,1.110000000000000000e+02
0.000000000000000000e+00,1.000000000000000000e+00,0.000000000000000000e+00,5.400000000000000000e+01,1.298700000000000000e+04,2.902460098266601562e-01,1.558291912078857422e+00,2.791766185869450356e-01,0.000000000000000000e+00,1.110000000000000000e+02
1.000000000000000000e+00,1.000000000000000000e+00,1.000000000000000000e+00,5.200000000000000000e+01,1.303900000000000000e+04,3.881828784942626953e-01,1.967888116836547852e+00,5.967770253670614533e-01,0.000000000000000000e+00,1.110000000000000000e+02
0.000000000000000000e+00,1.000000000000000000e+00,0.000000000000000000e+00,5.100000000000000000e+01,1.309000000000000000e+04,4.636018276214599609e-01,1.868473052978515625e+00,4.154617631376158471e-01,0.000000000000000000e+00,1.110000000000000000e+02
1.000000000000000000e+00,1.000000000000000000e+00,1.000000000000000000e+00,5.100000000000000000e+01,1.314100000000000000e+04,2.386860847473144531e-01,1.851252079010009766e+00,5.998954572646488792e-01,0.000000000000000000e+00,1.110000000000000000e+02
1.000000000000000000e+00,1.000000000000000000e+00,1.000000000000000000e+00,5.100000000000000000e+01,1.319200000000000000e+04,2.803878784179687500e-01,1.650980949401855469e+00,3.677888111818619632e-01,0.000000000000000000e+00,1.110000000000000000e+02
0.000000000000000000e+00,1.000000000000000000e+00,0.000000000000000000e+00,5.300000000000000000e+01,1.324500000000000000e+04,3.844361305236816406e-01,1.639625072479248047e+00,2.575313372606000129e-01,0.000000000000000000e+00,1.110000000000000000e+02
0.000000000000000000e+00,1.000000000000000000e+00,0.000000000000000000e+00,5.200000000000000000e+01,1.329700000000000000e+04,2.721719741821289062e-01,1.838660001754760742e+00,5.792165026385188709e-01,0.000000000000000000e+00,1.110000000000000000e+02
1.000000000000000000e+00,1.000000000000000000e+00,1.000000000000000000e+00,5.500000000000000000e+01,1.335200000000000000e+04,3.329000473022460938e-01,1.891591072082519531e+00,5.708690481534205441e-01,0.000000000000000000e+00,1.110000000000000000e+02
0.000000000000000000e+00,1.000000000000000000e+00,0.000000000000000000e+00,5.300000000000000000e+01,1.340500000000000000e+04,3.589160442352294922e-01,1.720593929290771484e+00,3.750044422814931555e-01,0.000000000000000000e+00,1.110000000000000000e+02
0.000000000000000000e+00,1.000000000000000000e+00,0.000000000000000000e+00,5.100000000000000000e+01,1.345600000000000000e+04,2.673201560974121094e-01,1.763787031173706055e+00,5.053687528060477607e-01,0.000000000000000000e+00,1.110000000000000000e+02
0.000000000000000000e+00,1.000000000000000000e+00,0.000000000000000000e+00,5.500000000000000000e+01,1.351100000000000000e+04,2.697689533233642578e-01,1.689912080764770508e+00,4.287307497965773262e-01,0.000000000000000000e+00,1.110000000000000000e+02
0.000000000000000000e+00,1.000000000000000000e+00,0.000000000000000000e+00,5.200000000000000000e+01,1.356300000000000000e+04,2.564289569854736328e-01,1.926319122314453125e+00,6.881435333115397679e-01,0.000000000000000000e+00,1.110000000000000000e+02
1.000000000000000000e+00,1.000000000000000000e+00,1.000000000000000000e+00,5.200000000000000000e+01,1.361500000000000000e+04,3.151671886444091797e-01,1.983432769775390625e+00,6.716293740732774964e-01,0.000000000000000000e+00,1.110000000000000000e+02
0.000000000000000000e+00,1.000000000000000000e+00,0.000000000000000000e+00,5.100000000000000000e+01,1.366600000000000000e+04,3.619351387023925781e-01,2.047919034957885742e+00,6.862410152561324583e-01,0.000000000000000000e+00,1.110000000000000000e+02
1.000000000000000000e+00,1.000000000000000000e+00,1.000000000000000000e+00,5.300000000000000000e+01,1.371900000000000000e+04,3.269898891448974609e-01,1.822293996810913086e+00,5.087200154382087725e-01,0.000000000000000000e+00,1.110000000000000000e+02
0.000000000000000000e+00,1.000000000000000000e+00,0.000000000000000000e+00,5.100000000000000000e+01,1.377000000000000000e+04,2.714920043945312500e-01,1.542028188705444336e+00,2.843331045152810432e-01,0.000000000000000000e+00,1.110000000000000000e+02
1.000000000000000000e+00,1.000000000000000000e+00,1.000000000000000000e+00,5.200000000000000000e+01,1.382200000000000000e+04,3.444430828094482422e-01,1.599818944931030273e+00,2.675321209975152215e-01,0.000000000000000000e+00,1.110000000000000000e+02
1.000000000000000000e+00,1.000000000000000000e+00,1.000000000000000000e+00,5.400000000000000000e+01,1.387600000000000000e+04,2.684919834136962891e-01,1.834538936614990234e+00,5.684703569843937432e-01,0.000000000000000000e+00,1.110000000000000000e+02
0.000000000000000000e+00,1.000000000000000000e+00,0.000000000000000000e+00,5.400000000000000000e+01,1.393000000000000000e+04,3.112199306488037109e-01,1.743921041488647461e+00,4.458575921658591845e-01,0.000000000000000000e+00,1.110000000000000000e+02
0.000000000000000000e+00,1.000000000000000000e+00,0.000000000000000000e+00,5.200000000000000000e+01,1.398200000000000000e+04,2.559769153594970703e-01,1.502954006195068359e+00,2.657101310563890206e-01,0.000000000000000000e+00,1.110000000000000000e+02
0.000000000000000000e+00,1.000000000000000000e+00,0.000000000000000000e+00,5.100000000000000000e+01,1.403300000000000000e+04,2.743549346923828125e-01,1.767362117767333984e+00,4.995385029925709652e-01,0.000000000000000000e+00,1.110000000000000000e+02
1.000000000000000000e+00,1.000000000000000000e+00,1.000000000000000000e+00,5.500000000000000000e+01,1.408800000000000000e+04,3.078148365020751953e-01,1.716619014739990234e+00,4.162576025791746570e-01,0.000000000000000000e+00,1.110000000000000000e+02
1.000000000000000000e+00,1.000000000000000000e+00,1.000000000000000000e+00,5.100000000000000000e+01,1.413900000000000000e+04,2.581439018249511719e-01,1.607137918472290039e+00,3.567994883903071734e-01,0.000000000000000000e+00,1.110000000000000000e+02
1.000000000000000000e+00,0.000000000000000000e+00,0.000000000000000000e+00,4.600000000000000000e+01,1.418500000000000000e+04,2.742400169372558594e-01,1.987922906875610352e+00,7.277137958040602594e-01,1.000000000000000000e+00,1.120000000000000000e+02
0.000000000000000000e+00,1.000000000000000000e+00,0.000000000000000000e+00,5.200000000000000000e+01,1.423700000000000000e+04,3.739080429077148438e-01,1.773098945617675781e+00,4.178395550704859240e-01,0.000000000000000000e+00,1.120000000000000000e+02
1.000000000000000000e+00,1.000000000000000000e+00,1.000000000000000000e+00,5.300000000000000000e+01,1.429000000000000000e+04,2.787368297576904297e-01,1.825297117233276367e+00,5.430530061081285664e-01,0.000000000000000000e+00,1.120000000000000000e+02
0.000000000000000000e+00,1.000000000000000000e+00,0.000000000000000000e+00,5.400000000000000000e+01,1.434400000000000000e+04,3.420341014862060547e-01,2.066023826599121094e+00,7.422448400185608364e-01,0.000000000000000000e+00,1.120000000000000000e+02
0.000000000000000000e+00,1.000000000000000000e+00,0.000000000000000000e+00,5.200000000000000000e+01,1.439600000000000000e+04,2.884719371795654297e-01,1.716006994247436523e+00,4.418118758658437506e-01,0.000000000000000000e+00,1.120000000000000000e+02
0.000000000000000000e+00,1.000000000000000000e+00,0.000000000000000000e+00,5.200000000000000000e+01,1.444800000000000000e+04,2.438781261444091797e-01,1.538507938385009766e+00,3.139137601257591670e-01,0.000000000000000000e+00,1.120000000000000000e+02
0.000000000000000000e+00,1.000000000000000000e+00,0.000000000000000000e+00,5.200000000000000000e+01,1.450000000000000000e+04,2.555570602416992188e-01,1.772336006164550781e+00,5.360701588910299353e-01,0.000000000000000000e+00,1.120000000000000000e+02
1.000000000000000000e+00,1.000000000000000000e+00,1.000000000000000000e+00,5.300000000000000000e+01,1.455300000000000000e+04,3.083100318908691406e-01,1.761817932128906250e+00,4.646360966097326517e-01,0.000000000000000000e+00,1.120000000000000000e+02
1.000000000000000000e+00,1.000000000000000000e+00,1.000000000000000000e+00,5.300000000000000000e+01,1.460600000000000000e+04,2.893970012664794922e-01,1.623808860778808594e+00,3.552434080691470597e-01,0.000000000000000000e+00,1.120000000000000000e+02
0.000000000000000000e+00,1.000000000000000000e+00,0.000000000000000000e+00,5.100000000000000000e+01,1.465700000000000000e+04,3.830599784851074219e-01,2.022443056106567383e+00,6.441120060676486236e-01,0.000000000000000000e+00,1.120000000000000000e+02
1.000000000000000000e+00,1.000000000000000000e+00,1.000000000000000000e+00,5.400000000000000000e+01,1.471100000000000000e+04,2.984919548034667969e-01,2.033576965332031250e+00,7.442763441615422026e-01,0.000000000000000000e+00,1.120000000000000000e+02
0.000000000000000000e+00,1.000000000000000000e+00,0.000000000000000000e+00,5.200000000000000000e+01,1.476300000000000000e+04,3.382170200347900391e-01,1.872165203094482422e+00,5.500048486936550685e-01,0.000000000000000000e+00,1.120000000000000000e+02
1.000000000000000000e+00,1.000000000000000000e+00,1.000000000000000000e+00,5.400000000000000000e+01,1.481700000000000000e+04,3.499650955200195312e-01,1.782917022705078125e+00,4.330630017785361829e-01,0.000000000000000000e+00,1.120000000000000000e+02
0.000000000000000000e+00,1.000000000000000000e+00,0.000000000000000000e+00,5.100000000000000000e+01,1.486800000000000000e+04,3.726809024810791016e-01,1.718988895416259766e+00,3.521742536464860795e-01,0.000000000000000000e+00,1.120000000000000000e+02
0.000000000000000000e+00,1.000000000000000000e+00,0.000000000000000000e+00,5.200000000000000000e+01,1.492000000000000000e+04,2.771091461181640625e-01,1.886190176010131836e+00,6.047862235909857720e-01,0.000000000000000000e+00,1.120000000000000000e+02
0.000000000000000000e+00,1.000000000000000000e+00,0.000000000000000000e+00,5.000000000000000000e+01,1.497000000000000000e+04,2.398231029510498047e-01,1.637753963470458984e+00,4.094372931101077362e-01,0.000000000000000000e+00,1.120000000000000000e+02
1.000000000000000000e+00,1.000000000000000000e+00,1.000000000000000000e+00,5.500000000000000000e+01,1.502500000000000000e+04,3.765251636505126953e-01,1.687994956970214844e+00,3.142302552163952489e-01,0.000000000000000000e+00,1.120000000000000000e+02
0.000000000000000000e+00,1.000000000000000000e+00,0.000000000000000000e+00,5.400000000000000000e+01,1.507900000000000000e+04,3.382589817047119141e-01,2.046416997909545898e+00,7.269363544886873196e-01,0.000000000000000000e+00,1.120000000000000000e+02
1.000000000000000000e+00,1.000000000000000000e+00,1.000000000000000000e+00,5.100000000000000000e+01,1.513000000000000000e+04,2.893369197845458984e-01,1.892901182174682617e+00,6.199695946723607909e-01,0.000000000000000000e+00,1.120000000000000000e+02
1.000000000000000000e+00,1.000000000000000000e+00,1.000000000000000000e+00,5.500000000000000000e+01,1.518500000000000000e+04,3.433430194854736328e-01,1.854889869689941406e+00,5.249930221482155268e-01,0.000000000000000000e+00,1.120000000000000000e+02
1.000000000000000000e+00,1.000000000000000000e+00,1.000000000000000000e+00,5.100000000000000000e+01,1.523600000000000000e+04,3.224799633026123047e-01,1.644483804702758789e+00,3.363737916979434583e-01,0.000000000000000000e+00,1.120000000000000000e+02
0.000000000000000000e+00,1.000000000000000000e+00,0.000000000000000000e+00,5.300000000000000000e+01,1.528900000000000000e+04,3.615520000457763672e-01,1.618347883224487305e+00,2.714770495432748953e-01,0.000000000000000000e+00,1.120000000000000000e+02
0.000000000000000000e+00,0.000000000000000000e+00,1.000000000000000000e+00,5.000000000000000000e+01,1.533900000000000000e+04,2.959299087524414062e-01,1.823094129562377930e+00,5.277061595653964599e-01,0.000000000000000000e+00,1.120000000000000000e+02
0.000000000000000000e+00,1.000000000000000000e+00,0.000000000000000000e+00,5.700000000000000000e+01,1.539600000000000000e+04,3.653080463409423828e-01,1.828994035720825195e+00,4.734167818276912576e-01,0.000000000000000000e+00,1.120000000000000000e+02
0.000000000000000000e+00,1.000000000000000000e+00,0.000000000000000000e+00,5.500000000000000000e+01,1.545100000000000000e+04,3.030469417572021484e-01,1.698743820190429688e+00,4.056066100354819293e-01,0.000000000000000000e+00,1.120000000000000000e+02
1.000000000000000000e+00,1.000000000000000000e+00,1.000000000000000000e+00,5.400000000000000000e+01,1.550500000000000000e+04,3.151569366455078125e-01,1.641335010528564453e+00,3.303610468822026358e-01,0.000000000000000000e+00,1.120000000000000000e+02
0.000000000000000000e+00,0.000000000000000000e+00,1.000000000000000000e+00,4.400000000000000000e+01,1.554900000000000000e+04,3.488690853118896484e-01,1.735486030578613281e+00,3.991001136037147234e-01,1.000000000000000000e+00,1.110000000000000000e+02
0.000000000000000000e+00,1.000000000000000000e+00,0.000000000000000000e+00,5.400000000000000000e+01,1.560300000000000000e+04,3.079619407653808594e-01,1.688403129577636719e+00,3.875542173211521946e-01,0.000000000000000000e+00,1.110000000000000000e+02
1.000000000000000000e+00,1.000000000000000000e+00,1.000000000000000000e+00,5.900000000000000000e+01,1.566200000000000000e+04,2.865989208221435547e-01,1.940424919128417969e+00,6.610579094077615459e-01,0.000000000000000000e+00,1.110000000000000000e+02
0.000000000000000000e+00,1.000000000000000000e+00,0.000000000000000000e+00,5.500000000000000000e+01,1.571700000000000000e+04,3.543679714202880859e-01,1.860919952392578125e+00,5.221738879026207591e-01,0.000000000000000000e+00,1.110000000000000000e+02
1.000000000000000000e+00,1.000000000000000000e+00,1.000000000000000000e+00,5.300000000000000000e+01,1.577000000000000000e+04,2.588069438934326172e-01,1.795676946640014648e+00,5.511821905199509875e-01,0.000000000000000000e+00,1.110000000000000000e+02
0.000000000000000000e+00,1.000000000000000000e+00,0.000000000000000000e+00,5.200000000000000000e+01,1.582200000000000000e+04,4.008469581604003906e-01,2.042607069015502930e+00,6.437480552726653205e-01,0.000000000000000000e+00,1.110000000000000000e+02
0.000000000000000000e+00,1.000000000000000000e+00,0.000000000000000000e+00,5.200000000000000000e+01,1.587400000000000000e+04,3.065550327301025391e-01,1.660943984985351562e+00,3.716841534811783365e-01,0.000000000000000000e+00,1.110000000000000000e+02
1.000000000000000000e+00,1.000000000000000000e+00,1.000000000000000000e+00,5.400000000000000000e+01,1.592800000000000000e+04,8.299779891967773438e-01,2.362177133560180664e+00,5.335377901714652982e-01,0.000000000000000000e+00,1.110000000000000000e+02
0.000000000000000000e+00,1.000000000000000000e+00,0.000000000000000000e+00,5.200000000000000000e+01,1.598000000000000000e+04,3.193628787994384766e-01,1.924485921859741211e+00,6.081591484963109195e-01,0.000000000000000000e+00,1.110000000000000000e+02
0.000000000000000000e+00,1.000000000000000000e+00,0.000000000000000000e+00,5.500000000000000000e+01,1.603500000000000000e+04,2.687730789184570312e-01,1.801688909530639648e+00,5.432697329753028992e-01,0.000000000000000000e+00,1.110000000000000000e+02
1.000000000000000000e+00,1.000000000000000000e+00,1.000000000000000000e+00,5.500000000000000000e+01,1.609000000000000000e+04,3.617398738861083984e-01,1.627886056900024414e+00,2.881318409249998269e-01,0.000000000000000000e+00,1.110000000000000000e+02
0.000000000000000000e+00,1.000000000000000000e+00,0.000000000000000000e+00,5.200000000000000000e+01,1.614200000000000000e+04,3.505439758300781250e-01,1.784189939498901367e+00,4.388425035658781725e-01,0.000000000000000000e+00,1.110000000000000000e+02
0.000000000000000000e+00,1.000000000000000000e+00,0.000000000000000000e+00,5.600000000000000000e+01,1.619800000000000000e+04,2.573590278625488281e-01,1.776744127273559570e+00,5.321934495830717982e-01,0.000000000000000000e+00,1.110000000000000000e+02
1.000000000000000000e+00,1.000000000000000000e+00,1.000000000000000000e+00,5.200000000000000000e+01,1.625000000000000000e+04,2.790150642395019531e-01,1.750746011734008789e+00,4.663800724127513675e-01,0.000000000000000000e+00,1.110000000000000000e+02
0.000000000000000000e+00,1.000000000000000000e+00,0.000000000000000000e+00,5.300000000000000000e+01,1.630300000000000000e+04,3.420288562774658203e-01,1.721333980560302734e+00,3.878185698668632497e-01,0.000000000000000000e+00,1.110000000000000000e+02
1.000000000000000000e+00,1.000000000000000000e+00,1.000000000000000000e+00,5.400000000000000000e+01,1.635700000000000000e+04,2.764921188354492188e-01,1.928468942642211914e+00,6.659906329699882832e-01,0.000000000000000000e+00,1.110000000000000000e+02
1.000000000000000000e+00,1.000000000000000000e+00,1.000000000000000000e+00,5.400000000000000000e+01,1.641100000000000000e+04,2.542901039123535156e-01,1.588443994522094727e+00,3.381660770566649599e-01,0.000000000000000000e+00,1.110000000000000000e+02
1.000000000000000000e+00,1.000000000000000000e+00,1.000000000000000000e+00,5.300000000000000000e+01,1.646400000000000000e+04,2.789189815521240234e-01,1.642674922943115234e+00,3.641841994866562571e-01,0.000000000000000000e+00,1.110000000000000000e+02
0.000000000000000000e+00,1.000000000000000000e+00,0.000000000000000000e+00,5.700000000000000000e+01,1.652100000000000000e+04,3.486809730529785156e-01,2.011845111846923828e+00,6.757446822087194160e-01,0.000000000000000000e+00,1.110000000000000000e+02
0.000000000000000000e+00,1.000000000000000000e+00,0.000000000000000000e+00,5.400000000000000000e+01,1.657500000000000000e+04,2.930610179901123047e-01,1.768534898757934570e+00,4.945093401648108511e-01,0.000000000000000000e+00,1.110000000000000000e+02
0.000000000000000000e+00,1.000000000000000000e+00,0.000000000000000000e+00,5.600000000000000000e+01,1.663100000000000000e+04,3.704721927642822266e-01,1.980906963348388672e+00,6.253027401608505231e-01,0.000000000000000000e+00,1.110000000000000000e+02
1.000000000000000000e+00,1.000000000000000000e+00,1.000000000000000000e+00,5.500000000000000000e+01,1.668600000000000000e+04,2.691900730133056641e-01,1.669864892959594727e+00,4.120769936571641590e-01,0.000000000000000000e+00,1.110000000000000000e+02
0.000000000000000000e+00,1.000000000000000000e+00,0.000000000000000000e+00,5.400000000000000000e+01,1.674000000000000000e+04,3.456349372863769531e-01,1.610119104385375977e+00,2.723648705740861486e-01,0.000000000000000000e+00,1.110000000000000000e+02
0.000000000000000000e+00,1.000000000000000000e+00,0.000000000000000000e+00,5.100000000000000000e+01,1.679100000000000000e+04,2.569749355316162109e-01,1.719377040863037109e+00,4.748956321760364196e-01,0.000000000000000000e+00,1.110000000000000000e+02
0.000000000000000000e+00,1.000000000000000000e+00,0.000000000000000000e+00,5.200000000000000000e+01,1.684300000000000000e+04,2.644121646881103516e-01,1.858434915542602539e+00,5.999083258217097203e-01,0.000000000000000000e+00,1.110000000000000000e+02
1.000000000000000000e+00,1.000000000000000000e+00,1.000000000000000000e+00,5.200000000000000000e+01,1.689500000000000000e+04,2.447619438171386719e-01,1.628390073776245117e+00,3.952043398373499272e-01,0.000000000000000000e+00,1.110000000000000000e+02
1.000000000000000000e+00,1.000000000000000000e+00,1.000000000000000000e+00,5.300000000000000000e+01,1.694800000000000000e+04,2.421529293060302734e-01,1.659114122390747070e+00,4.376490258468880290e-01,0.000000000000000000e+00,1.110000000000000000e+02
0.000000000000000000e+00,1.000000000000000000e+00,0.000000000000000000e+00,5.600000000000000000e+01,1.700400000000000000e+04,3.105320930480957031e-01,1.993012905120849609e+00,6.804379246066307729e-01,0.000000000000000000e+00,1.110000000000000000e+02
1.000000000000000000e+00,1.000000000000000000e+00,1.000000000000000000e+00,5.000000000000000000e+01,1.705400000000000000e+04,2.752759456634521484e-01,1.562578916549682617e+00,3.100944929642163173e-01,0.000000000000000000e+00,1.110000000000000000e+02
1.000000000000000000e+00,1.000000000000000000e+00,1.000000000000000000e+00,5.300000000000000000e+01,1.710700000000000000e+04,2.997200489044189453e-01,1.895205020904541016e+00,6.050156607214522975e-01,0.000000000000000000e+00,1.110000000000000000e+02
1.000000000000000000e+00,0.000000000000000000e+00,0.000000000000000000e+00,4.000000000000000000e+01,1.714700000000000000e+04,2.407388687133789062e-01,1.755582094192504883e+00,5.273797246342186718e-01,1.000000000000000000e+00,1.120000000000000000e+02
0.000000000000000000e+00,1.000000000000000000e+00,0.000000000000000000e+00,5.900000000000000000e+01,1.720600000000000000e+04,3.037569522857666016e-01,1.621562957763671875e+00,3.325189931238848873e-01,0.000000000000000000e+00,1.120000000000000000e+02
1.000000000000000000e+00,1.000000000000000000e+00,1.000000000000000000e+00,5.400000000000000000e+01,1.726000000000000000e+04,2.925121784210205078e-01,1.821730136871337891e+00,5.207254487147232602e-01,0.000000000000000000e+00,1.120000000000000000e+02
1.000000000000000000e+00,1.000000000000000000e+00,1.000000000000000000e+00,5.600000000000000000e+01,1.731600000000000000e+04,2.876150608062744141e-01,1.724129915237426758e+00,4.449961194005075948e-01,0.000000000000000000e+00,1.120000000000000000e+02
0.000000000000000000e+00,1.000000000000000000e+00,0.000000000000000000e+00,5.700000000000000000e+01,1.737300000000000000e+04,3.463189601898193359e-01,1.717970848083496094e+00,3.797135236687763649e-01,0.000000000000000000e+00,1.120000000000000000e+02
1.000000000000000000e+00,1.000000000000000000e+00,1.000000000000000000e+00,5.900000000000000000e+01,1.743200000000000000e+04,2.837049961090087891e-01,1.658346891403198242e+00,3.880816076029065531e-01,0.000000000000000000e+00,1.120000000000000000e+02
1.000000000000000000e+00,1.000000000000000000e+00,1.000000000000000000e+00,5.700000000000000000e+01,1.748900000000000000e+04,3.270330429077148438e-01,1.745543956756591797e+00,4.169501005882630396e-01,0.000000000000000000e+00,1.120000000000000000e+02
0.000000000000000000e+00,1.000000000000000000e+00,0.000000000000000000e+00,6.000000000000000000e+01,1.754900000000000000e+04,3.271911144256591797e-01,1.608624935150146484e+00,2.758184534827280987e-01,0.000000000000000000e+00,1.120000000000000000e+02
0.000000000000000000e+00,1.000000000000000000e+00,0.000000000000000000e+00,5.600000000000000000e+01,1.760500000000000000e+04,2.922880649566650391e-01,1.997123003005981445e+00,7.224955356919016136e-01,0.000000000000000000e+00,1.120000000000000000e+02
1.000000000000000000e+00,1.000000000000000000e+00,1.000000000000000000e+00,6.000000000000000000e+01,1.766500000000000000e+04,2.003591060638427734e-01,1.926110029220581055e+00,7.319251135122364360e-01,0.000000000000000000e+00,1.120000000000000000e+02
1.000000000000000000e+00,1.000000000000000000e+00,1.000000000000000000e+00,5.900000000000000000e+01,1.772400000000000000e+04,2.911739349365234375e-01,1.894486904144287109e+00,6.099100070847753852e-01,0.000000000000000000e+00,1.120000000000000000e+02
1.000000000000000000e+00,1.000000000000000000e+00,1.000000000000000000e+00,6.300000000000000000e+01,1.778700000000000000e+04,2.288100719451904297e-01,1.678094863891601562e+00,4.549030356793776764e-01,0.000000000000000000e+00,1.120000000000000000e+02
0.000000000000000000e+00,1.000000000000000000e+00,0.000000000000000000e+00,5.600000000000000000e+01,1.784300000000000000e+04,3.525509834289550781e-01,1.784875154495239258e+00,4.398005140876405372e-01,0.000000000000000000e+00,1.120000000000000000e+02
1.000000000000000000e+00,1.000000000000000000e+00,1.000000000000000000e+00,5.100000000000000000e+01,1.789400000000000000e+04,3.162400722503662109e-01,1.882554054260253906e+00,5.722648661962677075e-01,0.000000000000000000e+00,1.120000000000000000e+02
0.000000000000000000e+00,1.000000000000000000e+00,0.000000000000000000e+00,5.900000000000000000e+01,1.795300000000000000e+04,3.449499607086181641e-01,1.678068876266479492e+00,3.338923511137950606e-01,0.000000000000000000e+00,1.120000000000000000e+02
1.000000000000000000e+00,1.000000000000000000e+00,1.000000000000000000e+00,5.600000000000000000e+01,1.800900000000000000e+04,2.866849899291992188e-01,1.682231187820434570e+00,3.994267017342675308e-01,0.000000000000000000e+00,1.120000000000000000e+02
0.000000000000000000e+00,1.000000000000000000e+00,0.000000000000000000e+00,6.100000000000000000e+01,1.807000000000000000e+04,2.943370342254638672e-01,1.617068052291870117e+00,3.166035249713808342e-01,0.000000000000000000e+00,1.120000000000000000e+02
0.000000000000000000e+00,1.000000000000000000e+00,0.000000000000000000e+00,5.600000000000000000e+01,1.812600000000000000e+04,3.007819652557373047e-01,1.569617033004760742e+00,2.696234700783217697e-01,0.000000000000000000e+00,1.120000000000000000e+02
0.000000000000000000e+00,1.000000000000000000e+00,0.000000000000000000e+00,5.900000000000000000e+01,1.818500000000000000e+04,3.002009391784667969e-01,1.848814964294433594e+00,5.514917496585521883e-01,0.000000000000000000e+00,1.120000000000000000e+02
1.000000000000000000e+00,1.000000000000000000e+00,1.000000000000000000e+00,5.900000000000000000e+01,1.824400000000000000e+04,2.472209930419921875e-01,1.924353122711181641e+00,6.757367643124887469e-01,0.000000000000000000e+00,1.120000000000000000e+02
1.000000000000000000e+00,1.000000000000000000e+00,1.000000000000000000e+00,6.600000000000000000e+01,1.831000000000000000e+04,2.486958503723144531e-01,1.883047819137573242e+00,6.422031149557226870e-01,0.000000000000000000e+00,1.120000000000000000e+02
1.000000000000000000e+00,1.000000000000000000e+00,1.000000000000000000e+00,6.300000000000000000e+01,1.837300000000000000e+04,2.703559398651123047e-01,1.609747171401977539e+00,3.522673731246530604e-01,0.000000000000000000e+00,1.120000000000000000e+02
0.000000000000000000e+00,1.000000000000000000e+00,0.000000000000000000e+00,6.400000000000000000e+01,1.843700000000000000e+04,3.797280788421630859e-01,1.688083887100219727e+00,3.070763907965840533e-01,0.000000000000000000e+00,1.120000000000000000e+02
0.000000000000000000e+00,1.000000000000000000e+00,0.000000000000000000e+00,5.600000000000000000e+01,1.849300000000000000e+04,2.585220336914062500e-01,1.685453176498413086e+00,4.425146706278609288e-01,0.000000000000000000e+00,1.120000000000000000e+02
0.000000000000000000e+00,0.000000000000000000e+00,1.000000000000000000e+00,4.400000000000000000e+01,1.853700000000000000e+04,2.541940212249755859e-01,1.798696994781494141e+00,5.577455192490820002e-01,0.000000000000000000e+00,1.120000000000000000e+02
1.000000000000000000e+00,1.000000000000000000e+00,1.000000000000000000e+00,5.700000000000000000e+01,1.859400000000000000e+04,2.862541675567626953e-01,1.674336910247802734e+00,3.989149397418065290e-01,0.000000000000000000e+00,1.120000000000000000e+02
1.000000000000000000e+00,1.000000000000000000e+00,1.000000000000000000e+00,6.000000000000000000e+01,1.865400000000000000e+04,2.101101875305175781e-01,1.695641040802001953e+00,4.778200089180297816e-01,0.000000000000000000e+00,1.120000000000000000e+02
0.000000000000000000e+00,1.000000000000000000e+00,0.000000000000000000e+00,5.900000000000000000e+01,1.871300000000000000e+04,3.977448940277099609e-01,1.728629112243652344e+00,3.399731806337171203e-01,0.000000000000000000e+00,1.120000000000000000e+02
0.000000000000000000e+00,1.000000000000000000e+00,0.000000000000000000e+00,5.300000000000000000e+01,1.876600000000000000e+04,2.484421730041503906e-01,1.552956104278564453e+00,3.096611717267950259e-01,0.000000000000000000e+00,1.120000000000000000e+02
1.000000000000000000e+00,1.000000000000000000e+00,1.000000000000000000e+00,5.500000000000000000e+01,1.882100000000000000e+04,2.965052127838134766e-01,1.976877927780151367e+00,6.861517481508774274e-01,0.000000000000000000e+00,1.120000000000000000e+02
0.000000000000000000e+00,1.000000000000000000e+00,0.000000000000000000e+00,6.000000000000000000e+01,1.888100000000000000e+04,3.763270378112792969e-01,2.063678026199340820e+00,6.998637501307438669e-01,0.000000000000000000e+00,1.120000000000000000e+02
0.000000000000000000e+00,1.000000000000000000e+00,0.000000000000000000e+00,5.600000000000000000e+01,1.893700000000000000e+04,2.756979465484619141e-01,1.800256967544555664e+00,5.336557317219454699e-01,0.000000000000000000e+00,1.120000000000000000e+02
1.000000000000000000e+00,1.000000000000000000e+00,1.000000000000000000e+00,6.200000000000000000e+01,1.899900000000000000e+04,2.846231460571289062e-01,1.664820194244384766e+00,3.820074409258980008e-01,0.000000000000000000e+00,1.120000000000000000e+02
1.000000000000000000e+00,1.000000000000000000e+00,1.000000000000000000e+00,5.500000000000000000e+01,1.905400000000000000e+04,2.767598628997802734e-01,1.612084865570068359e+00,3.608151747766110695e-01,0.000000000000000000e+00,1.120000000000000000e+02
1.000000000000000000e+00,1.000000000000000000e+00,1.000000000000000000e+00,6.100000000000000000e+01,1.911500000000000000e+04,2.761540412902832031e-01,1.514052152633666992e+00,2.583384906696080119e-01,0.000000000000000000e+00,1.120000000000000000e+02
1.000000000000000000e+00,1.000000000000000000e+00,1.000000000000000000e+00,5.600000000000000000e+01,1.917100000000000000e+04,3.415760993957519531e-01,1.632438898086547852e+00,3.074176247393635708e-01,0.000000000000000000e+00,1.120000000000000000e+02
1.000000000000000000e+00,1.000000000000000000e+00,1.000000000000000000e+00,6.200000000000000000e+01,1.923300000000000000e+04,2.692210674285888672e-01,1.646440029144287109e+00,3.871212954354205094e-01,0.000000000000000000e+00,1.120000000000000000e+02
0.000000000000000000e+00,1.000000000000000000e+00,0.000000000000000000e+00,6.000000000000000000e+01,1.929300000000000000e+04,5.584180355072021484e-01,1.818014144897460938e+00,2.719626494671096295e-01,0.000000000000000000e+00,1.120000000000000000e+02
0.000000000000000000e+00,1.000000000000000000e+00,0.000000000000000000e+00,5.700000000000000000e+01,1.935000000000000000e+04,2.517149448394775391e-01,1.841490983963012695e+00,5.964616719842602555e-01,0.000000000000000000e+00,1.120000000000000000e+02
0.000000000000000000e+00,0.000000000000000000e+00,1.000000000000000000e+00,4.700000000000000000e+01,1.939700000000000000e+04,2.925209999084472656e-01,1.684031963348388672e+00,4.140629181516126134e-01,1.000000000000000000e+00,1.110000000000000000e+02
0.000000000000000000e+00,1.000000000000000000e+00,0.000000000000000000e+00,5.000000000000000000e+01,1.944700000000000000e+04,5.181958675384521484e-01,2.212945938110351562e+00,7.100964243194972658e-01,0.000000000000000000e+00,1.110000000000000000e+02
0.000000000000000000e+00,1.000000000000000000e+00,0.000000000000000000e+00,5.400000000000000000e+01,1.950100000000000000e+04,2.836050987243652344e-01,1.599373817443847656e+00,3.265533945625228585e-01,0.000000000000000000e+00,1.110000000000000000e+02
1.000000000000000000e+00,1.000000000000000000e+00,1.000000000000000000e+00,5.400000000000000000e+01,1.955500000000000000e+04,2.667460441589355469e-01,1.846101045608520508e+00,5.890922895908223822e-01,0.000000000000000000e+00,1.110000000000000000e+02
1.000000000000000000e+00,1.000000000000000000e+00,1.000000000000000000e+00,5.300000000000000000e+01,1.960800000000000000e+04,2.517030239105224609e-01,1.757738113403320312e+00,5.135527012518066314e-01,0.000000000000000000e+00,1.110000000000000000e+02
1.000000000000000000e+00,1.000000000000000000e+00,1.000000000000000000e+00,5.100000000000000000e+01,1.965900000000000000e+04,2.377660274505615234e-01,1.735629081726074219e+00,5.159175401418979456e-01,0.000000000000000000e+00,1.110000000000000000e+02
0.000000000000000000e+00,1.000000000000000000e+00,0.000000000000000000e+00,5.100000000000000000e+01,1.971000000000000000e+04,3.448522090911865234e-01,1.975677013397216797e+00,6.415090035993977757e-01,0.000000000000000000e+00,1.110000000000000000e+02
0.000000000000000000e+00,1.000000000000000000e+00,0.000000000000000000e+00,5.200000000000000000e+01,1.976200000000000000e+04,2.732830047607421875e-01,1.623151063919067383e+00,3.649486815615099466e-01,0.000000000000000000e+00,1.110000000000000000e+02
0.000000000000000000e+00,1.000000000000000000e+00,0.000000000000000000e+00,5.000000000000000000e+01,1.981200000000000000e+04,2.976109981536865234e-01,1.617668867111206055e+00,3.326741218114269705e-01,0.000000000000000000e+00,1.110000000000000000e+02
1.000000000000000000e+00,1.000000000000000000e+00,1.000000000000000000e+00,5.500000000000000000e+01,1.986700000000000000e+04,3.063459396362304688e-01,1.624804973602294922e+00,3.241900634263747971e-01,0.000000000000000000e+00,1.110000000000000000e+02
1.000000000000000000e+00,1.000000000000000000e+00,1.000000000000000000e+00,5.200000000000000000e+01,1.991900000000000000e+04,2.707400321960449219e-01,1.981667995452880859e+00,7.221768621610199501e-01,0.000000000000000000e+00,1.110000000000000000e+02
1.000000000000000000e+00,1.000000000000000000e+00,1.000000000000000000e+00,5.300000000000000000e+01,1.997200000000000000e+04,2.694821357727050781e-01,1.688951015472412109e+00,4.281047797119086895e-01,0.000000000000000000e+00,1.110000000000000000e+02
0.000000000000000000e+00,1.000000000000000000e+00,0.000000000000000000e+00,5.200000000000000000e+01,2.002400000000000000e+04,3.323078155517578125e-01,1.764665842056274414e+00,4.427830614183880797e-01,0.000000000000000000e+00,1.110000000000000000e+02
0.000000000000000000e+00,1.000000000000000000e+00,0.000000000000000000e+00,5.600000000000000000e+01,2.008000000000000000e+04,2.616159915924072266e-01,1.916686058044433594e+00,6.592767796558195448e-01,0.000000000000000000e+00,1.110000000000000000e+02
1.000000000000000000e+00,1.000000000000000000e+00,1.000000000000000000e+00,5.000000000000000000e+01,2.013000000000000000e+04,3.200590610504150391e-01,2.026983976364135742e+00,7.195907771546642406e-01,0.000000000000000000e+00,1.110000000000000000e+02
1.000000000000000000e+00,1.000000000000000000e+00,1.000000000000000000e+00,5.500000000000000000e+01,2.018500000000000000e+04,2.627601623535156250e-01,1.880059003829956055e+00,6.164418220896998868e-01,0.000000000000000000e+00,1.110000000000000000e+02
0.000000000000000000e+00,1.000000000000000000e+00,0.000000000000000000e+00,5.000000000000000000e+01,2.023500000000000000e+04,3.544218540191650391e-01,1.687061071395874023e+00,3.371570966130164049e-01,0.000000000000000000e+00,1.110000000000000000e+02
0.000000000000000000e+00,1.000000000000000000e+00,0.000000000000000000e+00,5.500000000000000000e+01,2.029000000000000000e+04,2.371389865875244141e-01,1.638952016830444336e+00,4.093956012287319757e-01,0.000000000000000000e+00,1.110000000000000000e+02
1.000000000000000000e+00,1.000000000000000000e+00,1.000000000000000000e+00,5.400000000000000000e+01,2.034400000000000000e+04,2.639632225036621094e-01,1.781743049621582031e+00,5.243695500434846224e-01,0.000000000000000000e+00,1.110000000000000000e+02
1.000000000000000000e+00,1.000000000000000000e+00,1.000000000000000000e+00,5.100000000000000000e+01,2.039500000000000000e+04,2.496500015258789062e-01,1.552085161209106445e+00,3.100303682143193407e-01,0.000000000000000000e+00,1.110000000000000000e+02
0.000000000000000000e+00,1.000000000000000000e+00,0.000000000000000000e+00,5.500000000000000000e+01,2.045000000000000000e+04,3.856601715087890625e-01,2.082687854766845703e+00,7.090257688407394232e-01,0.000000000000000000e+00,1.110000000000000000e+02
0.000000000000000000e+00,1.000000000000000000e+00,0.000000000000000000e+00,5.300000000000000000e+01,2.050300000000000000e+04,3.404951095581054688e-01,1.965576171875000000e+00,6.413325288764553100e-01,0.000000000000000000e+00,1.110000000000000000e+02
0.000000000000000000e+00,1.000000000000000000e+00,0.000000000000000000e+00,5.000000000000000000e+01,2.055300000000000000e+04,2.488820552825927734e-01,1.965933084487915039e+00,7.239177449128051389e-01,0.000000000000000000e+00,1.110000000000000000e+02
1.000000000000000000e+00,1.000000000000000000e+00,1.000000000000000000e+00,5.100000000000000000e+01,2.060400000000000000e+04,2.412650585174560547e-01,1.624014854431152344e+00,3.982872397594490743e-01,0.000000000000000000e+00,1.110000000000000000e+02
1.000000000000000000e+00,0.000000000000000000e+00,0.000000000000000000e+00,5.000000000000000000e+01,2.065400000000000000e+04,2.627329826354980469e-01,1.585756778717041016e+00,3.341408618383420182e-01,1.000000000000000000e+00,1.120000000000000000e+02
1.000000000000000000e+00,0.000000000000000000e+00,0.000000000000000000e+00,4.600000000000000000e+01,2.070000000000000000e+04,2.657189369201660156e-01,1.736057996749877930e+00,4.700859421751789613e-01,0.000000000000000000e+00,1.120000000000000000e+02
1.000000000000000000e+00,1.000000000000000000e+00,1.000000000000000000e+00,5.600000000000000000e+01,2.075600000000000000e+04,4.213700294494628906e-01,2.003946065902709961e+00,5.905897946210714178e-01,0.000000000000000000e+00,1.120000000000000000e+02
1.000000000000000000e+00,1.000000000000000000e+00,1.000000000000000000e+00,5.300000000000000000e+01,2.080900000000000000e+04,2.504820823669433594e-01,1.885253906250000000e+00,6.424981009803486520e-01,0.000000000000000000e+00,1.120000000000000000e+02
1.000000000000000000e+00,1.000000000000000000e+00,1.000000000000000000e+00,5.100000000000000000e+01,2.086000000000000000e+04,2.962059974670410156e-01,1.712884902954101562e+00,4.223187401596374402e-01,0.000000000000000000e+00,1.120000000000000000e+02
0.000000000000000000e+00,1.000000000000000000e+00,0.000000000000000000e+00,5.300000000000000000e+01,2.091300000000000000e+04,3.856141567230224609e-01,1.940366029739379883e+00,5.625932231103476511e-01,0.000000000000000000e+00,1.120000000000000000e+02
0.000000000000000000e+00,1.000000000000000000e+00,0.000000000000000000e+00,5.400000000000000000e+01,2.096700000000000000e+04,2.812430858612060547e-01,1.666872024536132812e+00,3.963376933936700319e-01,0.000000000000000000e+00,1.120000000000000000e+02
0.000000000000000000e+00,1.000000000000000000e+00,0.000000000000000000e+00,5.600000000000000000e+01,2.102300000000000000e+04,3.167819976806640625e-01,1.686748981475830078e+00,3.830869892020647982e-01,0.000000000000000000e+00,1.120000000000000000e+02
1.000000000000000000e+00,1.000000000000000000e+00,1.000000000000000000e+00,5.300000000000000000e+01,2.107600000000000000e+04,2.838408946990966797e-01,1.951871156692504883e+00,6.680105456957765586e-01,0.000000000000000000e+00,1.120000000000000000e+02
0.000000000000000000e+00,1.000000000000000000e+00,0.000000000000000000e+00,5.200000000000000000e+01,2.112800000000000000e+04,3.268868923187255859e-01,1.971623897552490234e+00,6.397482339742155411e-01,0.000000000000000000e+00,1.120000000000000000e+02
1.000000000000000000e+00,1.000000000000000000e+00,1.000000000000000000e+00,5.600000000000000000e+01,2.118400000000000000e+04,3.102889060974121094e-01,1.757861852645874023e+00,4.478113649629122395e-01,0.000000000000000000e+00,1.120000000000000000e+02
1.000000000000000000e+00,1.000000000000000000e+00,1.000000000000000000e+00,5.600000000000000000e+01,2.124000000000000000e+04,2.803690433502197266e-01,1.863102197647094727e+00,5.941245287388028373e-01,0.000000000000000000e+00,1.120000000000000000e+02
0.000000000000000000e+00,1.000000000000000000e+00,0.000000000000000000e+00,5.400000000000000000e+01,2.129400000000000000e+04,3.187329769134521484e-01,1.772756814956665039e+00,4.670849696847698684e-01,0.000000000000000000e+00,1.120000000000000000e+02
0.000000000000000000e+00,1.000000000000000000e+00,0.000000000000000000e+00,5.300000000000000000e+01,2.134700000000000000e+04,2.835168838500976562e-01,1.960636138916015625e+00,6.775303483601312626e-01,0.000000000000000000e+00,1.120000000000000000e+02
1.000000000000000000e+00,1.000000000000000000e+00,1.000000000000000000e+00,5.600000000000000000e+01,2.140300000000000000e+04,2.955718040466308594e-01,1.841939926147460938e+00,5.529077323045683556e-01,0.000000000000000000e+00,1.120000000000000000e+02
0.000000000000000000e+00,1.000000000000000000e+00,0.000000000000000000e+00,5.500000000000000000e+01,2.145800000000000000e+04,3.675820827484130859e-01,1.801805019378662109e+00,4.382303665756864808e-01,0.000000000000000000e+00,1.120000000000000000e+02
0.000000000000000000e+00,1.000000000000000000e+00,0.000000000000000000e+00,5.200000000000000000e+01,2.151000000000000000e+04,2.826759815216064453e-01,1.648416996002197266e+00,3.700789928075048363e-01,0.000000000000000000e+00,1.120000000000000000e+02
1.000000000000000000e+00,1.000000000000000000e+00,1.000000000000000000e+00,6.200000000000000000e+01,2.157200000000000000e+04,3.457839488983154297e-01,1.910382986068725586e+00,5.636643823279888776e-01,0.000000000000000000e+00,1.120000000000000000e+02
0.000000000000000000e+00,1.000000000000000000e+00,0.000000000000000000e+00,5.900000000000000000e+01,2.163100000000000000e+04,3.377370834350585938e-01,1.632480859756469727e+00,3.130986456951164731e-01,0.000000000000000000e+00,1.120000000000000000e+02
0.000000000000000000e+00,1.000000000000000000e+00,0.000000000000000000e+00,5.400000000000000000e+01,2.168500000000000000e+04,2.905399799346923828e-01,1.578951835632324219e+00,3.087146590168661775e-01,0.000000000000000000e+00,1.120000000000000000e+02
0.000000000000000000e+00,1.000000000000000000e+00,0.000000000000000000e+00,5.600000000000000000e+01,2.174100000000000000e+04,2.842509746551513672e-01,2.000266075134277344e+00,7.253014705583888944e-01,0.000000000000000000e+00,1.120000000000000000e+02
1.000000000000000000e+00,1.000000000000000000e+00,1.000000000000000000e+00,5.700000000000000000e+01,2.179800000000000000e+04,2.413110733032226562e-01,1.661895036697387695e+00,4.374723960663904343e-01,0.000000000000000000e+00,1.120000000000000000e+02
1.000000000000000000e+00,1.000000000000000000e+00,1.000000000000000000e+00,5.600000000000000000e+01,2.185400000000000000e+04,2.507910728454589844e-01,1.826148033142089844e+00,5.801910539785158916e-01,0.000000000000000000e+00,1.120000000000000000e+02
1.000000000000000000e+00,0.000000000000000000e+00,0.000000000000000000e+00,4.800000000000000000e+01,2.190200000000000000e+04,3.460888862609863281e-01,1.613752126693725586e+00,2.775945706506893762e-01,1.000000000000000000e+00,1.110000000000000000e+02
0.000000000000000000e+00,1.000000000000000000e+00,0.000000000000000000e+00,5.400000000000000000e+01,2.195600000000000000e+04,3.705630302429199219e-01,1.960585832595825195e+00,6.045243825075004018e-01,0.000000000000000000e+00,1.110000000000000000e+02
