choice, accuracy, solution,  reward, cumulative_reward, rt,  total_trial_time, iti, cp_with_slow_fast
0.000000000000000000e+00,0.000000000000000000e+00,1.000000000000000000e+00,3.500000000000000000e+01,3.500000000000000000e+01,5.880777835845947266e-01,1.578402686119079590e+01,2.808309375912033667e-01,0.000000000000000000e+00
0.000000000000000000e+00,1.000000000000000000e+00,0.000000000000000000e+00,6.000000000000000000e+01,9.500000000000000000e+01,4.629418849945068359e-01,1.705611944198608398e+00,2.532231616674567309e-01,0.000000000000000000e+00
0.000000000000000000e+00,1.000000000000000000e+00,0.000000000000000000e+00,6.100000000000000000e+01,1.560000000000000000e+02,2.882649898529052734e-01,1.974215984344482422e+00,6.935769091423278354e-01,0.000000000000000000e+00
0.000000000000000000e+00,1.000000000000000000e+00,0.000000000000000000e+00,6.300000000000000000e+01,2.190000000000000000e+02,2.336161136627197266e-01,1.819600105285644531e+00,5.967069533871491860e-01,0.000000000000000000e+00
0.000000000000000000e+00,1.000000000000000000e+00,0.000000000000000000e+00,6.600000000000000000e+01,2.850000000000000000e+02,2.310080528259277344e-01,1.568319082260131836e+00,3.487044425405692594e-01,0.000000000000000000e+00
1.000000000000000000e+00,1.000000000000000000e+00,1.000000000000000000e+00,6.700000000000000000e+01,3.520000000000000000e+02,3.264391422271728516e-01,1.612568855285644531e+00,3.113883109951479655e-01,0.000000000000000000e+00
1.000000000000000000e+00,1.000000000000000000e+00,1.000000000000000000e+00,5.900000000000000000e+01,4.110000000000000000e+02,2.558169364929199219e-01,1.795442104339599609e+00,5.565797646639757401e-01,0.000000000000000000e+00
1.000000000000000000e+00,1.000000000000000000e+00,1.000000000000000000e+00,6.900000000000000000e+01,4.800000000000000000e+02,2.477781772613525391e-01,1.615715980529785156e+00,3.726014647246196909e-01,0.000000000000000000e+00
1.000000000000000000e+00,1.000000000000000000e+00,1.000000000000000000e+00,6.100000000000000000e+01,5.410000000000000000e+02,2.201879024505615234e-01,1.911463022232055664e+00,7.004622448070894070e-01,0.000000000000000000e+00
1.000000000000000000e+00,1.000000000000000000e+00,1.000000000000000000e+00,6.700000000000000000e+01,6.080000000000000000e+02,2.716767787933349609e-01,1.905371189117431641e+00,6.393108992748601782e-01,0.000000000000000000e+00
1.000000000000000000e+00,1.000000000000000000e+00,1.000000000000000000e+00,6.400000000000000000e+01,6.720000000000000000e+02,2.886958122253417969e-01,1.998261928558349609e+00,7.209121566880916099e-01,0.000000000000000000e+00
0.000000000000000000e+00,1.000000000000000000e+00,0.000000000000000000e+00,6.400000000000000000e+01,7.360000000000000000e+02,3.117659091949462891e-01,1.700186014175415039e+00,4.048080780742204232e-01,0.000000000000000000e+00
1.000000000000000000e+00,1.000000000000000000e+00,1.000000000000000000e+00,6.100000000000000000e+01,7.970000000000000000e+02,2.527990341186523438e-01,1.854099035263061523e+00,6.087499778651265236e-01,0.000000000000000000e+00
1.000000000000000000e+00,1.000000000000000000e+00,1.000000000000000000e+00,6.400000000000000000e+01,8.610000000000000000e+02,3.309040069580078125e-01,1.676933050155639648e+00,3.527487912063695941e-01,0.000000000000000000e+00
0.000000000000000000e+00,1.000000000000000000e+00,0.000000000000000000e+00,6.800000000000000000e+01,9.290000000000000000e+02,3.125200271606445312e-01,1.635100126266479492e+00,3.212625607771883995e-01,0.000000000000000000e+00
1.000000000000000000e+00,1.000000000000000000e+00,1.000000000000000000e+00,6.600000000000000000e+01,9.950000000000000000e+02,2.903158664703369141e-01,1.935246944427490234e+00,6.561940111610198301e-01,0.000000000000000000e+00
0.000000000000000000e+00,1.000000000000000000e+00,0.000000000000000000e+00,6.900000000000000000e+01,1.064000000000000000e+03,2.770371437072753906e-01,1.882122039794921875e+00,6.217416714892998186e-01,0.000000000000000000e+00
0.000000000000000000e+00,1.000000000000000000e+00,0.000000000000000000e+00,6.700000000000000000e+01,1.131000000000000000e+03,3.507409095764160156e-01,1.784271001815795898e+00,4.396283771575136279e-01,0.000000000000000000e+00
1.000000000000000000e+00,1.000000000000000000e+00,1.000000000000000000e+00,6.000000000000000000e+01,1.191000000000000000e+03,3.335421085357666016e-01,1.582260131835937500e+00,2.555145227656085427e-01,0.000000000000000000e+00
1.000000000000000000e+00,1.000000000000000000e+00,1.000000000000000000e+00,6.200000000000000000e+01,1.253000000000000000e+03,3.092699050903320312e-01,1.696864843368530273e+00,4.022706088848583272e-01,0.000000000000000000e+00
0.000000000000000000e+00,1.000000000000000000e+00,0.000000000000000000e+00,6.200000000000000000e+01,1.315000000000000000e+03,3.612589836120605469e-01,2.026312828063964844e+00,6.783598550801903659e-01,0.000000000000000000e+00
0.000000000000000000e+00,1.000000000000000000e+00,0.000000000000000000e+00,6.400000000000000000e+01,1.379000000000000000e+03,3.596968650817871094e-01,1.650654077529907227e+00,3.128098495164675641e-01,0.000000000000000000e+00
0.000000000000000000e+00,1.000000000000000000e+00,0.000000000000000000e+00,6.400000000000000000e+01,1.443000000000000000e+03,2.617278099060058594e-01,1.994453191757202148e+00,7.401878223721964911e-01,0.000000000000000000e+00
0.000000000000000000e+00,1.000000000000000000e+00,0.000000000000000000e+00,6.800000000000000000e+01,1.511000000000000000e+03,2.437930107116699219e-01,1.665321826934814453e+00,4.392580309070110989e-01,0.000000000000000000e+00
1.000000000000000000e+00,1.000000000000000000e+00,1.000000000000000000e+00,6.500000000000000000e+01,1.576000000000000000e+03,3.062419891357421875e-01,1.862941980361938477e+00,5.688305903309238687e-01,0.000000000000000000e+00
1.000000000000000000e+00,1.000000000000000000e+00,1.000000000000000000e+00,7.000000000000000000e+01,1.646000000000000000e+03,2.976100444793701172e-01,1.562469005584716797e+00,2.650007944109011859e-01,0.000000000000000000e+00
0.000000000000000000e+00,1.000000000000000000e+00,0.000000000000000000e+00,6.500000000000000000e+01,1.711000000000000000e+03,3.376288414001464844e-01,1.642817020416259766e+00,3.244970459793277140e-01,0.000000000000000000e+00
1.000000000000000000e+00,1.000000000000000000e+00,1.000000000000000000e+00,6.800000000000000000e+01,1.779000000000000000e+03,2.747449874877929688e-01,1.600290060043334961e+00,3.415012393513885414e-01,0.000000000000000000e+00
1.000000000000000000e+00,1.000000000000000000e+00,1.000000000000000000e+00,6.400000000000000000e+01,1.843000000000000000e+03,2.307929992675781250e-01,1.772431850433349609e+00,5.471151757430597895e-01,0.000000000000000000e+00
1.000000000000000000e+00,1.000000000000000000e+00,1.000000000000000000e+00,6.300000000000000000e+01,1.906000000000000000e+03,2.731349468231201172e-01,1.922974109649658203e+00,6.700074261638692130e-01,0.000000000000000000e+00
1.000000000000000000e+00,1.000000000000000000e+00,1.000000000000000000e+00,6.400000000000000000e+01,1.970000000000000000e+03,2.457778453826904297e-01,1.982481002807617188e+00,7.358372694775512368e-01,0.000000000000000000e+00
0.000000000000000000e+00,1.000000000000000000e+00,0.000000000000000000e+00,6.500000000000000000e+01,2.035000000000000000e+03,3.765649795532226562e-01,2.053072929382324219e+00,6.890417045256322925e-01,0.000000000000000000e+00
1.000000000000000000e+00,0.000000000000000000e+00,0.000000000000000000e+00,3.800000000000000000e+01,2.073000000000000000e+03,3.227031230926513672e-01,1.951808929443359375e+00,6.409833050622661954e-01,1.000000000000000000e+00
1.000000000000000000e+00,0.000000000000000000e+00,0.000000000000000000e+00,3.500000000000000000e+01,2.108000000000000000e+03,2.547500133514404297e-01,1.655421972274780273e+00,4.133926482110519829e-01,0.000000000000000000e+00
1.000000000000000000e+00,1.000000000000000000e+00,1.000000000000000000e+00,6.700000000000000000e+01,2.175000000000000000e+03,3.178601264953613281e-01,1.910008907318115234e+00,6.066086119208899952e-01,0.000000000000000000e+00
1.000000000000000000e+00,1.000000000000000000e+00,1.000000000000000000e+00,5.900000000000000000e+01,2.234000000000000000e+03,3.652129173278808594e-01,2.049501895904541016e+00,6.894522305322495770e-01,0.000000000000000000e+00
0.000000000000000000e+00,1.000000000000000000e+00,0.000000000000000000e+00,6.500000000000000000e+01,2.299000000000000000e+03,2.853271961212158203e-01,1.984646081924438477e+00,7.074916384746813280e-01,0.000000000000000000e+00
1.000000000000000000e+00,1.000000000000000000e+00,1.000000000000000000e+00,6.500000000000000000e+01,2.364000000000000000e+03,3.530039787292480469e-01,2.084724903106689453e+00,7.422463750948724570e-01,0.000000000000000000e+00
0.000000000000000000e+00,1.000000000000000000e+00,0.000000000000000000e+00,6.800000000000000000e+01,2.432000000000000000e+03,2.977769374847412109e-01,1.694638013839721680e+00,4.040017726722292535e-01,0.000000000000000000e+00
1.000000000000000000e+00,1.000000000000000000e+00,1.000000000000000000e+00,6.300000000000000000e+01,2.495000000000000000e+03,3.167488574981689453e-01,1.684856176376342773e+00,3.722776152437593522e-01,0.000000000000000000e+00
0.000000000000000000e+00,1.000000000000000000e+00,0.000000000000000000e+00,6.500000000000000000e+01,2.560000000000000000e+03,3.476650714874267578e-01,1.730530977249145508e+00,3.862434214124702003e-01,0.000000000000000000e+00
0.000000000000000000e+00,0.000000000000000000e+00,1.000000000000000000e+00,3.600000000000000000e+01,2.596000000000000000e+03,2.882850170135498047e-01,1.824649095535278320e+00,5.440908442827057101e-01,0.000000000000000000e+00
1.000000000000000000e+00,1.000000000000000000e+00,1.000000000000000000e+00,6.300000000000000000e+01,2.659000000000000000e+03,2.536690235137939453e-01,1.841809988021850586e+00,6.025059754141215418e-01,0.000000000000000000e+00
0.000000000000000000e+00,1.000000000000000000e+00,0.000000000000000000e+00,6.000000000000000000e+01,2.719000000000000000e+03,3.347349166870117188e-01,1.647130012512207031e+00,3.167370756142764976e-01,0.000000000000000000e+00
1.000000000000000000e+00,1.000000000000000000e+00,1.000000000000000000e+00,6.600000000000000000e+01,2.785000000000000000e+03,2.767729759216308594e-01,2.001808881759643555e+00,7.348595528731294291e-01,0.000000000000000000e+00
0.000000000000000000e+00,1.000000000000000000e+00,0.000000000000000000e+00,6.500000000000000000e+01,2.850000000000000000e+03,3.768010139465332031e-01,1.706897974014282227e+00,3.422655042249684865e-01,0.000000000000000000e+00
1.000000000000000000e+00,1.000000000000000000e+00,1.000000000000000000e+00,6.400000000000000000e+01,2.914000000000000000e+03,2.818961143493652344e-01,1.813234090805053711e+00,5.386698079565299668e-01,0.000000000000000000e+00
0.000000000000000000e+00,1.000000000000000000e+00,0.000000000000000000e+00,6.200000000000000000e+01,2.976000000000000000e+03,2.952830791473388672e-01,1.635066986083984375e+00,3.406772547913135551e-01,0.000000000000000000e+00
1.000000000000000000e+00,1.000000000000000000e+00,1.000000000000000000e+00,6.200000000000000000e+01,3.038000000000000000e+03,3.220012187957763672e-01,2.026504039764404297e+00,7.168696861645457163e-01,0.000000000000000000e+00
1.000000000000000000e+00,1.000000000000000000e+00,1.000000000000000000e+00,6.300000000000000000e+01,3.101000000000000000e+03,2.847740650177001953e-01,1.578253030776977539e+00,2.956451316597647483e-01,0.000000000000000000e+00
1.000000000000000000e+00,1.000000000000000000e+00,1.000000000000000000e+00,6.700000000000000000e+01,3.168000000000000000e+03,2.581439018249511719e-01,1.572757005691528320e+00,3.351206778237552086e-01,0.000000000000000000e+00
0.000000000000000000e+00,1.000000000000000000e+00,0.000000000000000000e+00,6.500000000000000000e+01,3.233000000000000000e+03,3.189160823822021484e-01,1.620594024658203125e+00,3.057393584139949660e-01,0.000000000000000000e+00
1.000000000000000000e+00,1.000000000000000000e+00,1.000000000000000000e+00,6.100000000000000000e+01,3.294000000000000000e+03,2.442917823791503906e-01,1.834610939025878906e+00,6.068248574810116702e-01,0.000000000000000000e+00
1.000000000000000000e+00,1.000000000000000000e+00,1.000000000000000000e+00,6.800000000000000000e+01,3.362000000000000000e+03,2.129650115966796875e-01,1.915758132934570312e+00,7.058747982848552205e-01,0.000000000000000000e+00
0.000000000000000000e+00,1.000000000000000000e+00,0.000000000000000000e+00,6.000000000000000000e+01,3.422000000000000000e+03,2.834079265594482422e-01,1.737095117568969727e+00,4.599709339496049210e-01,0.000000000000000000e+00
0.000000000000000000e+00,1.000000000000000000e+00,0.000000000000000000e+00,6.200000000000000000e+01,3.484000000000000000e+03,3.240768909454345703e-01,2.037850856781005859e+00,7.309763769609256556e-01,0.000000000000000000e+00
1.000000000000000000e+00,1.000000000000000000e+00,1.000000000000000000e+00,6.400000000000000000e+01,3.548000000000000000e+03,3.488202095031738281e-01,1.723938941955566406e+00,3.886798862418747724e-01,0.000000000000000000e+00
0.000000000000000000e+00,1.000000000000000000e+00,0.000000000000000000e+00,6.300000000000000000e+01,3.611000000000000000e+03,4.156088829040527344e-01,2.151258945465087891e+00,7.396626734116509283e-01,0.000000000000000000e+00
0.000000000000000000e+00,1.000000000000000000e+00,0.000000000000000000e+00,6.400000000000000000e+01,3.675000000000000000e+03,3.196148872375488281e-01,1.641434907913208008e+00,3.315539555304709007e-01,0.000000000000000000e+00
1.000000000000000000e+00,1.000000000000000000e+00,1.000000000000000000e+00,6.600000000000000000e+01,3.741000000000000000e+03,3.143210411071777344e-01,1.899307966232299805e+00,5.973248440068226195e-01,0.000000000000000000e+00
0.000000000000000000e+00,1.000000000000000000e+00,0.000000000000000000e+00,6.400000000000000000e+01,3.805000000000000000e+03,2.915527820587158203e-01,1.839487075805664062e+00,5.702554280739626780e-01,0.000000000000000000e+00
1.000000000000000000e+00,1.000000000000000000e+00,1.000000000000000000e+00,6.000000000000000000e+01,3.865000000000000000e+03,3.554449081420898438e-01,1.828840017318725586e+00,4.825979030844731454e-01,0.000000000000000000e+00
0.000000000000000000e+00,1.000000000000000000e+00,0.000000000000000000e+00,6.600000000000000000e+01,3.931000000000000000e+03,2.452309131622314453e-01,1.620937108993530273e+00,3.703984815962180210e-01,0.000000000000000000e+00
0.000000000000000000e+00,1.000000000000000000e+00,0.000000000000000000e+00,6.300000000000000000e+01,3.994000000000000000e+03,3.356149196624755859e-01,1.606938838958740234e+00,2.775032056221727328e-01,0.000000000000000000e+00
1.000000000000000000e+00,0.000000000000000000e+00,0.000000000000000000e+00,4.200000000000000000e+01,4.036000000000000000e+03,2.916979789733886719e-01,1.573507785797119141e+00,3.010302224039409502e-01,1.000000000000000000e+00
1.000000000000000000e+00,1.000000000000000000e+00,1.000000000000000000e+00,6.100000000000000000e+01,4.097000000000000000e+03,3.323690891265869141e-01,1.597699165344238281e+00,2.655274042858865036e-01,0.000000000000000000e+00
0.000000000000000000e+00,1.000000000000000000e+00,0.000000000000000000e+00,6.000000000000000000e+01,4.157000000000000000e+03,3.061559200286865234e-01,1.692138910293579102e+00,4.075675679633219972e-01,0.000000000000000000e+00
1.000000000000000000e+00,1.000000000000000000e+00,1.000000000000000000e+00,5.700000000000000000e+01,4.214000000000000000e+03,3.611760139465332031e-01,1.678991079330444336e+00,3.200139773762871731e-01,0.000000000000000000e+00
0.000000000000000000e+00,1.000000000000000000e+00,0.000000000000000000e+00,6.200000000000000000e+01,4.276000000000000000e+03,2.548670768737792969e-01,1.540113925933837891e+00,2.935870361929924233e-01,0.000000000000000000e+00
1.000000000000000000e+00,1.000000000000000000e+00,1.000000000000000000e+00,5.500000000000000000e+01,4.331000000000000000e+03,2.295610904693603516e-01,1.830293178558349609e+00,6.069687493452480265e-01,0.000000000000000000e+00
1.000000000000000000e+00,1.000000000000000000e+00,1.000000000000000000e+00,5.600000000000000000e+01,4.387000000000000000e+03,2.663168907165527344e-01,1.627760887145996094e+00,3.683483784472766920e-01,0.000000000000000000e+00
1.000000000000000000e+00,1.000000000000000000e+00,1.000000000000000000e+00,5.400000000000000000e+01,4.441000000000000000e+03,2.950279712677001953e-01,1.797075986862182617e+00,4.986870063237399675e-01,0.000000000000000000e+00
1.000000000000000000e+00,1.000000000000000000e+00,1.000000000000000000e+00,6.100000000000000000e+01,4.502000000000000000e+03,2.270920276641845703e-01,1.471379041671752930e+00,2.537007791306029048e-01,0.000000000000000000e+00
0.000000000000000000e+00,1.000000000000000000e+00,0.000000000000000000e+00,5.600000000000000000e+01,4.558000000000000000e+03,3.396279811859130859e-01,1.854691982269287109e+00,5.249044609239942316e-01,0.000000000000000000e+00
0.000000000000000000e+00,1.000000000000000000e+00,0.000000000000000000e+00,6.100000000000000000e+01,4.619000000000000000e+03,2.704908847808837891e-01,1.587242841720581055e+00,3.290703051321049455e-01,0.000000000000000000e+00
0.000000000000000000e+00,1.000000000000000000e+00,0.000000000000000000e+00,6.100000000000000000e+01,4.680000000000000000e+03,2.743051052093505859e-01,1.508189201354980469e+00,2.540398196921675456e-01,0.000000000000000000e+00
0.000000000000000000e+00,1.000000000000000000e+00,0.000000000000000000e+00,5.600000000000000000e+01,4.736000000000000000e+03,3.206789493560791016e-01,1.603452920913696289e+00,2.908700514607168719e-01,0.000000000000000000e+00
1.000000000000000000e+00,0.000000000000000000e+00,0.000000000000000000e+00,4.600000000000000000e+01,4.782000000000000000e+03,2.916300296783447266e-01,1.897419929504394531e+00,6.213052371155622922e-01,0.000000000000000000e+00
0.000000000000000000e+00,0.000000000000000000e+00,1.000000000000000000e+00,4.000000000000000000e+01,4.822000000000000000e+03,2.397530078887939453e-01,1.732752084732055664e+00,5.043085247771759150e-01,0.000000000000000000e+00
1.000000000000000000e+00,0.000000000000000000e+00,0.000000000000000000e+00,4.600000000000000000e+01,4.868000000000000000e+03,2.194719314575195312e-01,1.482337951660156250e+00,2.702795199581609076e-01,0.000000000000000000e+00
0.000000000000000000e+00,1.000000000000000000e+00,0.000000000000000000e+00,6.000000000000000000e+01,4.928000000000000000e+03,3.102028369903564453e-01,1.574589014053344727e+00,2.615921866067026924e-01,0.000000000000000000e+00
0.000000000000000000e+00,1.000000000000000000e+00,0.000000000000000000e+00,5.600000000000000000e+01,4.984000000000000000e+03,2.816040515899658203e-01,1.779216051101684570e+00,5.072765925135688247e-01,0.000000000000000000e+00
1.000000000000000000e+00,1.000000000000000000e+00,1.000000000000000000e+00,5.900000000000000000e+01,5.043000000000000000e+03,2.943370342254638672e-01,1.871676206588745117e+00,5.789530975809945579e-01,0.000000000000000000e+00
1.000000000000000000e+00,1.000000000000000000e+00,1.000000000000000000e+00,6.400000000000000000e+01,5.107000000000000000e+03,2.647531032562255859e-01,1.610446929931640625e+00,3.563792239415101148e-01,0.000000000000000000e+00
1.000000000000000000e+00,1.000000000000000000e+00,1.000000000000000000e+00,5.600000000000000000e+01,5.163000000000000000e+03,2.511441707611083984e-01,1.583431005477905273e+00,3.398970249430117718e-01,0.000000000000000000e+00
1.000000000000000000e+00,1.000000000000000000e+00,1.000000000000000000e+00,6.100000000000000000e+01,5.224000000000000000e+03,2.368669509887695312e-01,1.756154060363769531e+00,5.292472036307804828e-01,0.000000000000000000e+00
0.000000000000000000e+00,1.000000000000000000e+00,0.000000000000000000e+00,6.100000000000000000e+01,5.285000000000000000e+03,3.259050846099853516e-01,1.642786026000976562e+00,3.389623539779996197e-01,0.000000000000000000e+00
1.000000000000000000e+00,1.000000000000000000e+00,1.000000000000000000e+00,5.600000000000000000e+01,5.341000000000000000e+03,2.489430904388427734e-01,1.536041021347045898e+00,2.917989945483971392e-01,0.000000000000000000e+00
1.000000000000000000e+00,1.000000000000000000e+00,1.000000000000000000e+00,5.600000000000000000e+01,5.397000000000000000e+03,2.657151222229003906e-01,1.991734027862548828e+00,7.331316751942604792e-01,0.000000000000000000e+00
1.000000000000000000e+00,1.000000000000000000e+00,1.000000000000000000e+00,5.500000000000000000e+01,5.452000000000000000e+03,2.957420349121093750e-01,1.874300956726074219e+00,5.743379903779988194e-01,0.000000000000000000e+00
0.000000000000000000e+00,1.000000000000000000e+00,0.000000000000000000e+00,5.900000000000000000e+01,5.511000000000000000e+03,3.781368732452392578e-01,1.612308979034423828e+00,2.537458236643572729e-01,0.000000000000000000e+00
1.000000000000000000e+00,1.000000000000000000e+00,1.000000000000000000e+00,6.100000000000000000e+01,5.572000000000000000e+03,2.785351276397705078e-01,1.574671030044555664e+00,2.950886715063542609e-01,0.000000000000000000e+00
0.000000000000000000e+00,1.000000000000000000e+00,0.000000000000000000e+00,6.000000000000000000e+01,5.632000000000000000e+03,3.159239292144775391e-01,1.967837095260620117e+00,6.626027083736798495e-01,0.000000000000000000e+00
0.000000000000000000e+00,1.000000000000000000e+00,0.000000000000000000e+00,6.100000000000000000e+01,5.693000000000000000e+03,3.162970542907714844e-01,1.821439027786254883e+00,5.176223885731838781e-01,0.000000000000000000e+00
1.000000000000000000e+00,1.000000000000000000e+00,1.000000000000000000e+00,6.000000000000000000e+01,5.753000000000000000e+03,2.630310058593750000e-01,1.948132991790771484e+00,6.823261431095528629e-01,0.000000000000000000e+00
0.000000000000000000e+00,1.000000000000000000e+00,0.000000000000000000e+00,6.200000000000000000e+01,5.815000000000000000e+03,3.041050434112548828e-01,1.890320062637329102e+00,5.894863628672770695e-01,0.000000000000000000e+00
0.000000000000000000e+00,1.000000000000000000e+00,0.000000000000000000e+00,5.900000000000000000e+01,5.874000000000000000e+03,2.908861637115478516e-01,1.760862112045288086e+00,4.838401279277578793e-01,0.000000000000000000e+00
1.000000000000000000e+00,1.000000000000000000e+00,1.000000000000000000e+00,5.900000000000000000e+01,5.933000000000000000e+03,2.512340545654296875e-01,1.509082078933715820e+00,2.599199477139457204e-01,0.000000000000000000e+00
0.000000000000000000e+00,1.000000000000000000e+00,0.000000000000000000e+00,6.200000000000000000e+01,5.995000000000000000e+03,2.872960567474365234e-01,1.601599931716918945e+00,3.281645218864320257e-01,0.000000000000000000e+00
0.000000000000000000e+00,1.000000000000000000e+00,0.000000000000000000e+00,5.600000000000000000e+01,6.051000000000000000e+03,3.003649711608886719e-01,1.574784040451049805e+00,2.863966480687220595e-01,0.000000000000000000e+00
1.000000000000000000e+00,0.000000000000000000e+00,0.000000000000000000e+00,3.500000000000000000e+01,6.086000000000000000e+03,2.790620326995849609e-01,1.582798004150390625e+00,3.025582109402164543e-01,1.000000000000000000e+00
0.000000000000000000e+00,1.000000000000000000e+00,0.000000000000000000e+00,5.500000000000000000e+01,6.141000000000000000e+03,2.627770900726318359e-01,1.708905220031738281e+00,4.447567903706501902e-01,0.000000000000000000e+00
1.000000000000000000e+00,1.000000000000000000e+00,1.000000000000000000e+00,6.400000000000000000e+01,6.205000000000000000e+03,3.908681869506835938e-01,1.918016910552978516e+00,5.460375919402260525e-01,0.000000000000000000e+00
0.000000000000000000e+00,1.000000000000000000e+00,0.000000000000000000e+00,6.400000000000000000e+01,6.269000000000000000e+03,3.142719268798828125e-01,1.888580083847045898e+00,5.846879472039809844e-01,0.000000000000000000e+00
1.000000000000000000e+00,1.000000000000000000e+00,1.000000000000000000e+00,6.200000000000000000e+01,6.331000000000000000e+03,2.663140296936035156e-01,1.746012926101684570e+00,4.808729351005215924e-01,0.000000000000000000e+00
1.000000000000000000e+00,1.000000000000000000e+00,1.000000000000000000e+00,6.500000000000000000e+01,6.396000000000000000e+03,4.230120182037353516e-01,1.943178892135620117e+00,5.407457314934658310e-01,0.000000000000000000e+00
1.000000000000000000e+00,1.000000000000000000e+00,1.000000000000000000e+00,5.900000000000000000e+01,6.455000000000000000e+03,3.360950946807861328e-01,1.759629011154174805e+00,4.339128035863338284e-01,0.000000000000000000e+00
0.000000000000000000e+00,1.000000000000000000e+00,0.000000000000000000e+00,6.000000000000000000e+01,6.515000000000000000e+03,7.684869766235351562e-01,2.020521879196166992e+00,2.546827967887425603e-01,0.000000000000000000e+00
1.000000000000000000e+00,1.000000000000000000e+00,1.000000000000000000e+00,5.700000000000000000e+01,6.572000000000000000e+03,3.248980045318603516e-01,1.662153959274291992e+00,3.501306790690030812e-01,0.000000000000000000e+00
1.000000000000000000e+00,1.000000000000000000e+00,1.000000000000000000e+00,5.600000000000000000e+01,6.628000000000000000e+03,2.912878990173339844e-01,1.934650182723999023e+00,6.512067938437386960e-01,0.000000000000000000e+00
0.000000000000000000e+00,1.000000000000000000e+00,0.000000000000000000e+00,6.600000000000000000e+01,6.694000000000000000e+03,3.840119838714599609e-01,2.005760908126831055e+00,6.237312164580031126e-01,0.000000000000000000e+00
0.000000000000000000e+00,1.000000000000000000e+00,0.000000000000000000e+00,6.000000000000000000e+01,6.754000000000000000e+03,3.030960559844970703e-01,1.813110828399658203e+00,5.203722424902874621e-01,0.000000000000000000e+00
0.000000000000000000e+00,1.000000000000000000e+00,0.000000000000000000e+00,6.500000000000000000e+01,6.819000000000000000e+03,2.465159893035888672e-01,1.645874023437500000e+00,3.997638297720423339e-01,0.000000000000000000e+00
1.000000000000000000e+00,1.000000000000000000e+00,1.000000000000000000e+00,6.600000000000000000e+01,6.885000000000000000e+03,3.444969654083251953e-01,1.743052005767822266e+00,3.929329796010786469e-01,0.000000000000000000e+00
0.000000000000000000e+00,1.000000000000000000e+00,0.000000000000000000e+00,6.600000000000000000e+01,6.951000000000000000e+03,2.652170658111572266e-01,1.536801099777221680e+00,2.798846523369062367e-01,0.000000000000000000e+00
1.000000000000000000e+00,1.000000000000000000e+00,1.000000000000000000e+00,6.500000000000000000e+01,7.016000000000000000e+03,2.549982070922851562e-01,1.822758913040161133e+00,5.857136468307982957e-01,0.000000000000000000e+00
1.000000000000000000e+00,1.000000000000000000e+00,1.000000000000000000e+00,6.300000000000000000e+01,7.079000000000000000e+03,2.697539329528808594e-01,1.766664028167724609e+00,5.025589655268893896e-01,0.000000000000000000e+00
0.000000000000000000e+00,1.000000000000000000e+00,0.000000000000000000e+00,6.500000000000000000e+01,7.144000000000000000e+03,2.800540924072265625e-01,1.867658853530883789e+00,5.868499874208977785e-01,0.000000000000000000e+00
0.000000000000000000e+00,1.000000000000000000e+00,0.000000000000000000e+00,5.900000000000000000e+01,7.203000000000000000e+03,2.375130653381347656e-01,1.866472959518432617e+00,6.366755901677692009e-01,0.000000000000000000e+00
0.000000000000000000e+00,1.000000000000000000e+00,0.000000000000000000e+00,6.200000000000000000e+01,7.265000000000000000e+03,2.739439010620117188e-01,1.755836009979248047e+00,4.927625938061606647e-01,0.000000000000000000e+00
0.000000000000000000e+00,1.000000000000000000e+00,0.000000000000000000e+00,6.400000000000000000e+01,7.329000000000000000e+03,2.729749679565429688e-01,1.517522096633911133e+00,2.605643289937012996e-01,0.000000000000000000e+00
0.000000000000000000e+00,1.000000000000000000e+00,0.000000000000000000e+00,6.000000000000000000e+01,7.389000000000000000e+03,3.153550624847412109e-01,1.970374107360839844e+00,6.639625115834408842e-01,0.000000000000000000e+00
0.000000000000000000e+00,1.000000000000000000e+00,0.000000000000000000e+00,6.100000000000000000e+01,7.450000000000000000e+03,2.767570018768310547e-01,1.697952985763549805e+00,4.455360080156798297e-01,0.000000000000000000e+00
1.000000000000000000e+00,1.000000000000000000e+00,1.000000000000000000e+00,6.300000000000000000e+01,7.513000000000000000e+03,3.027880191802978516e-01,1.917402982711791992e+00,6.294825951901785732e-01,0.000000000000000000e+00
1.000000000000000000e+00,1.000000000000000000e+00,1.000000000000000000e+00,6.300000000000000000e+01,7.576000000000000000e+03,3.432350158691406250e-01,2.001616954803466797e+00,6.811493415302225518e-01,0.000000000000000000e+00
0.000000000000000000e+00,1.000000000000000000e+00,0.000000000000000000e+00,6.400000000000000000e+01,7.640000000000000000e+03,3.302469253540039062e-01,1.898111104965209961e+00,5.794398941378725576e-01,0.000000000000000000e+00
0.000000000000000000e+00,1.000000000000000000e+00,0.000000000000000000e+00,6.600000000000000000e+01,7.706000000000000000e+03,2.503259181976318359e-01,1.603989124298095703e+00,3.670425023139516352e-01,0.000000000000000000e+00
1.000000000000000000e+00,1.000000000000000000e+00,1.000000000000000000e+00,6.500000000000000000e+01,7.771000000000000000e+03,2.947449684143066406e-01,1.934515953063964844e+00,6.346735499260689473e-01,0.000000000000000000e+00
1.000000000000000000e+00,1.000000000000000000e+00,1.000000000000000000e+00,6.300000000000000000e+01,7.834000000000000000e+03,2.544620037078857422e-01,1.525121927261352539e+00,2.769226654799526455e-01,0.000000000000000000e+00
1.000000000000000000e+00,1.000000000000000000e+00,1.000000000000000000e+00,6.400000000000000000e+01,7.898000000000000000e+03,3.329279422760009766e-01,1.774240016937255859e+00,4.510803630119382124e-01,0.000000000000000000e+00
1.000000000000000000e+00,1.000000000000000000e+00,1.000000000000000000e+00,6.300000000000000000e+01,7.961000000000000000e+03,2.775769233703613281e-01,1.737269878387451172e+00,4.716854881412015921e-01,0.000000000000000000e+00
0.000000000000000000e+00,1.000000000000000000e+00,0.000000000000000000e+00,6.400000000000000000e+01,8.025000000000000000e+03,3.173019886016845703e-01,1.848681211471557617e+00,5.370408396951464880e-01,0.000000000000000000e+00
1.000000000000000000e+00,1.000000000000000000e+00,1.000000000000000000e+00,6.000000000000000000e+01,8.085000000000000000e+03,3.283829689025878906e-01,1.858855009078979492e+00,5.293612539976348952e-01,0.000000000000000000e+00
1.000000000000000000e+00,1.000000000000000000e+00,1.000000000000000000e+00,6.400000000000000000e+01,8.149000000000000000e+03,2.793970108032226562e-01,1.825286865234375000e+00,5.546658220066362777e-01,0.000000000000000000e+00
1.000000000000000000e+00,1.000000000000000000e+00,1.000000000000000000e+00,6.600000000000000000e+01,8.215000000000000000e+03,2.881419658660888672e-01,1.568764209747314453e+00,2.904378111838280541e-01,0.000000000000000000e+00
1.000000000000000000e+00,1.000000000000000000e+00,1.000000000000000000e+00,6.400000000000000000e+01,8.279000000000000000e+03,2.605080604553222656e-01,1.801275014877319336e+00,5.581513296963405146e-01,0.000000000000000000e+00
0.000000000000000000e+00,1.000000000000000000e+00,0.000000000000000000e+00,6.300000000000000000e+01,8.342000000000000000e+03,3.236079216003417969e-01,2.025543928146362305e+00,7.169487711182186418e-01,0.000000000000000000e+00
0.000000000000000000e+00,1.000000000000000000e+00,0.000000000000000000e+00,6.300000000000000000e+01,8.405000000000000000e+03,3.394100666046142578e-01,1.714280843734741211e+00,3.816627259329488098e-01,0.000000000000000000e+00
1.000000000000000000e+00,1.000000000000000000e+00,1.000000000000000000e+00,6.400000000000000000e+01,8.469000000000000000e+03,2.823929786682128906e-01,1.843990087509155273e+00,5.755542649641751662e-01,0.000000000000000000e+00
0.000000000000000000e+00,1.000000000000000000e+00,0.000000000000000000e+00,6.500000000000000000e+01,8.534000000000000000e+03,2.775070667266845703e-01,1.599072933197021484e+00,3.415878144027429952e-01,0.000000000000000000e+00
1.000000000000000000e+00,1.000000000000000000e+00,1.000000000000000000e+00,6.200000000000000000e+01,8.596000000000000000e+03,3.015201091766357422e-01,1.941955089569091797e+00,6.499532812786354974e-01,0.000000000000000000e+00
1.000000000000000000e+00,0.000000000000000000e+00,0.000000000000000000e+00,3.800000000000000000e+01,8.634000000000000000e+03,3.025748729705810547e-01,1.893461942672729492e+00,5.935638515222501077e-01,1.000000000000000000e+00
1.000000000000000000e+00,1.000000000000000000e+00,1.000000000000000000e+00,6.000000000000000000e+01,8.694000000000000000e+03,4.793751239776611328e-01,2.120376110076904297e+00,6.472902035293230938e-01,0.000000000000000000e+00
1.000000000000000000e+00,1.000000000000000000e+00,1.000000000000000000e+00,6.000000000000000000e+01,8.754000000000000000e+03,2.997500896453857422e-01,1.682927846908569336e+00,3.972169613578316882e-01,0.000000000000000000e+00
1.000000000000000000e+00,1.000000000000000000e+00,1.000000000000000000e+00,6.100000000000000000e+01,8.815000000000000000e+03,3.104867935180664062e-01,1.873366117477416992e+00,5.871415775218632449e-01,0.000000000000000000e+00
1.000000000000000000e+00,1.000000000000000000e+00,1.000000000000000000e+00,6.200000000000000000e+01,8.877000000000000000e+03,2.642898559570312500e-01,1.657978057861328125e+00,3.953798647018508805e-01,0.000000000000000000e+00
1.000000000000000000e+00,1.000000000000000000e+00,1.000000000000000000e+00,6.000000000000000000e+01,8.937000000000000000e+03,2.663381099700927734e-01,1.618680000305175781e+00,3.642243588764745854e-01,0.000000000000000000e+00
0.000000000000000000e+00,1.000000000000000000e+00,0.000000000000000000e+00,5.900000000000000000e+01,8.996000000000000000e+03,3.285958766937255859e-01,1.622910976409912109e+00,3.039089610783743400e-01,0.000000000000000000e+00
1.000000000000000000e+00,1.000000000000000000e+00,1.000000000000000000e+00,6.400000000000000000e+01,9.060000000000000000e+03,2.983570098876953125e-01,1.599265098571777344e+00,3.032036178552219297e-01,0.000000000000000000e+00
1.000000000000000000e+00,1.000000000000000000e+00,1.000000000000000000e+00,5.600000000000000000e+01,9.116000000000000000e+03,2.694120407104492188e-01,1.606998920440673828e+00,3.435502629969214849e-01,0.000000000000000000e+00
0.000000000000000000e+00,1.000000000000000000e+00,0.000000000000000000e+00,6.200000000000000000e+01,9.178000000000000000e+03,3.354420661926269531e-01,1.932227849960327148e+00,6.089438879729711651e-01,0.000000000000000000e+00
0.000000000000000000e+00,1.000000000000000000e+00,0.000000000000000000e+00,6.300000000000000000e+01,9.241000000000000000e+03,3.172471523284912109e-01,1.854997158050537109e+00,5.474053895970054651e-01,0.000000000000000000e+00
1.000000000000000000e+00,1.000000000000000000e+00,1.000000000000000000e+00,5.600000000000000000e+01,9.297000000000000000e+03,2.833490371704101562e-01,1.761574983596801758e+00,4.925140819026324057e-01,0.000000000000000000e+00
1.000000000000000000e+00,1.000000000000000000e+00,1.000000000000000000e+00,6.100000000000000000e+01,9.358000000000000000e+03,2.556970119476318359e-01,1.836260080337524414e+00,5.952963588563671138e-01,0.000000000000000000e+00
1.000000000000000000e+00,1.000000000000000000e+00,1.000000000000000000e+00,6.800000000000000000e+01,9.426000000000000000e+03,2.713930606842041016e-01,1.900022983551025391e+00,6.453621799549289495e-01,0.000000000000000000e+00
1.000000000000000000e+00,1.000000000000000000e+00,1.000000000000000000e+00,5.900000000000000000e+01,9.485000000000000000e+03,3.293480873107910156e-01,2.024520158767700195e+00,7.032091737070322868e-01,0.000000000000000000e+00
1.000000000000000000e+00,1.000000000000000000e+00,1.000000000000000000e+00,5.600000000000000000e+01,9.541000000000000000e+03,2.381730079650878906e-01,1.690109968185424805e+00,4.603427287682086422e-01,0.000000000000000000e+00
0.000000000000000000e+00,1.000000000000000000e+00,0.000000000000000000e+00,6.300000000000000000e+01,9.604000000000000000e+03,3.878569602966308594e-01,1.816376924514770508e+00,4.434505712269298794e-01,0.000000000000000000e+00
1.000000000000000000e+00,0.000000000000000000e+00,0.000000000000000000e+00,3.700000000000000000e+01,9.641000000000000000e+03,2.954158782958984375e-01,1.966289997100830078e+00,6.762839397310211886e-01,0.000000000000000000e+00
0.000000000000000000e+00,1.000000000000000000e+00,0.000000000000000000e+00,5.600000000000000000e+01,9.697000000000000000e+03,2.847108840942382812e-01,1.779749870300292969e+00,5.062593041293378393e-01,0.000000000000000000e+00
1.000000000000000000e+00,1.000000000000000000e+00,1.000000000000000000e+00,6.100000000000000000e+01,9.758000000000000000e+03,3.215241432189941406e-01,1.774746894836425781e+00,4.645059525536889833e-01,0.000000000000000000e+00
0.000000000000000000e+00,1.000000000000000000e+00,0.000000000000000000e+00,6.100000000000000000e+01,9.819000000000000000e+03,3.088309764862060547e-01,1.598269939422607422e+00,3.129988631818701461e-01,0.000000000000000000e+00
0.000000000000000000e+00,1.000000000000000000e+00,0.000000000000000000e+00,6.100000000000000000e+01,9.880000000000000000e+03,3.059308528900146484e-01,1.654441118240356445e+00,3.674619676513646294e-01,0.000000000000000000e+00
0.000000000000000000e+00,0.000000000000000000e+00,1.000000000000000000e+00,3.200000000000000000e+01,9.912000000000000000e+03,2.802989482879638672e-01,1.785730123519897461e+00,5.031072972103791674e-01,0.000000000000000000e+00
0.000000000000000000e+00,1.000000000000000000e+00,0.000000000000000000e+00,6.100000000000000000e+01,9.973000000000000000e+03,3.249330520629882812e-01,1.746254920959472656e+00,4.328152153371429001e-01,0.000000000000000000e+00
1.000000000000000000e+00,0.000000000000000000e+00,0.000000000000000000e+00,4.000000000000000000e+01,1.001300000000000000e+04,2.810888290405273438e-01,1.555748939514160156e+00,2.721828843237103501e-01,1.000000000000000000e+00
1.000000000000000000e+00,1.000000000000000000e+00,1.000000000000000000e+00,5.600000000000000000e+01,1.006900000000000000e+04,3.671150207519531250e-01,1.866523027420043945e+00,5.051644476707842779e-01,0.000000000000000000e+00
1.000000000000000000e+00,1.000000000000000000e+00,1.000000000000000000e+00,6.700000000000000000e+01,1.013600000000000000e+04,2.785120010375976562e-01,1.639094114303588867e+00,3.611568710297307638e-01,0.000000000000000000e+00
1.000000000000000000e+00,1.000000000000000000e+00,1.000000000000000000e+00,5.900000000000000000e+01,1.019500000000000000e+04,2.572321891784667969e-01,1.509124040603637695e+00,2.704562566374345556e-01,0.000000000000000000e+00
0.000000000000000000e+00,1.000000000000000000e+00,0.000000000000000000e+00,6.900000000000000000e+01,1.026400000000000000e+04,3.295838832855224609e-01,1.632512092590332031e+00,3.029848367614885740e-01,0.000000000000000000e+00
0.000000000000000000e+00,1.000000000000000000e+00,0.000000000000000000e+00,5.700000000000000000e+01,1.032100000000000000e+04,3.043689727783203125e-01,1.930012941360473633e+00,6.327439937241782220e-01,0.000000000000000000e+00
1.000000000000000000e+00,1.000000000000000000e+00,1.000000000000000000e+00,5.900000000000000000e+01,1.038000000000000000e+04,2.861089706420898438e-01,1.859060049057006836e+00,5.752543179903202297e-01,0.000000000000000000e+00
1.000000000000000000e+00,1.000000000000000000e+00,1.000000000000000000e+00,6.200000000000000000e+01,1.044200000000000000e+04,2.532100677490234375e-01,1.892907142639160156e+00,6.514731874276917800e-01,0.000000000000000000e+00
1.000000000000000000e+00,1.000000000000000000e+00,1.000000000000000000e+00,6.000000000000000000e+01,1.050200000000000000e+04,2.722430229187011719e-01,1.894922018051147461e+00,6.298515392867791718e-01,0.000000000000000000e+00
1.000000000000000000e+00,1.000000000000000000e+00,1.000000000000000000e+00,6.400000000000000000e+01,1.056600000000000000e+04,2.278959751129150391e-01,1.735470056533813477e+00,5.154983154761225705e-01,0.000000000000000000e+00
0.000000000000000000e+00,1.000000000000000000e+00,0.000000000000000000e+00,6.100000000000000000e+01,1.062700000000000000e+04,3.379678726196289062e-01,1.967543840408325195e+00,6.330007300965849737e-01,0.000000000000000000e+00
0.000000000000000000e+00,1.000000000000000000e+00,0.000000000000000000e+00,6.700000000000000000e+01,1.069400000000000000e+04,2.924361228942871094e-01,1.904523849487304688e+00,6.209367421767213457e-01,0.000000000000000000e+00
1.000000000000000000e+00,1.000000000000000000e+00,1.000000000000000000e+00,5.700000000000000000e+01,1.075100000000000000e+04,3.454270362854003906e-01,1.735151052474975586e+00,3.897319899726383596e-01,0.000000000000000000e+00
1.000000000000000000e+00,1.000000000000000000e+00,1.000000000000000000e+00,6.200000000000000000e+01,1.081300000000000000e+04,3.571629524230957031e-01,1.686010122299194336e+00,3.425343465537129539e-01,0.000000000000000000e+00
0.000000000000000000e+00,1.000000000000000000e+00,0.000000000000000000e+00,6.300000000000000000e+01,1.087600000000000000e+04,3.448748588562011719e-01,2.028611898422241211e+00,6.875186793054970380e-01,0.000000000000000000e+00
1.000000000000000000e+00,0.000000000000000000e+00,0.000000000000000000e+00,3.800000000000000000e+01,1.091400000000000000e+04,2.706410884857177734e-01,1.641875982284545898e+00,3.798249387490033047e-01,0.000000000000000000e+00
0.000000000000000000e+00,1.000000000000000000e+00,0.000000000000000000e+00,6.100000000000000000e+01,1.097500000000000000e+04,3.042941093444824219e-01,1.666349887847900391e+00,3.795424047587359073e-01,0.000000000000000000e+00
0.000000000000000000e+00,1.000000000000000000e+00,0.000000000000000000e+00,6.000000000000000000e+01,1.103500000000000000e+04,2.868590354919433594e-01,1.803517818450927734e+00,5.329818732225786171e-01,0.000000000000000000e+00
0.000000000000000000e+00,1.000000000000000000e+00,0.000000000000000000e+00,6.200000000000000000e+01,1.109700000000000000e+04,2.732560634613037109e-01,1.940789222717285156e+00,6.737172807046092338e-01,0.000000000000000000e+00
0.000000000000000000e+00,1.000000000000000000e+00,0.000000000000000000e+00,5.600000000000000000e+01,1.115300000000000000e+04,2.589309215545654297e-01,1.822196960449218750e+00,5.794281130503295962e-01,0.000000000000000000e+00
0.000000000000000000e+00,1.000000000000000000e+00,0.000000000000000000e+00,6.700000000000000000e+01,1.122000000000000000e+04,2.733409404754638672e-01,1.999113082885742188e+00,7.451262940532350498e-01,0.000000000000000000e+00
1.000000000000000000e+00,1.000000000000000000e+00,1.000000000000000000e+00,6.200000000000000000e+01,1.128200000000000000e+04,2.913739681243896484e-01,1.722902059555053711e+00,4.517491400760926257e-01,0.000000000000000000e+00
1.000000000000000000e+00,1.000000000000000000e+00,1.000000000000000000e+00,5.900000000000000000e+01,1.134100000000000000e+04,3.193488121032714844e-01,1.690253019332885742e+00,3.754431765592615711e-01,0.000000000000000000e+00
0.000000000000000000e+00,1.000000000000000000e+00,0.000000000000000000e+00,6.200000000000000000e+01,1.140300000000000000e+04,3.608009815216064453e-01,2.024220943450927734e+00,6.828156039541533051e-01,0.000000000000000000e+00
1.000000000000000000e+00,1.000000000000000000e+00,1.000000000000000000e+00,6.300000000000000000e+01,1.146600000000000000e+04,2.885849475860595703e-01,1.889361143112182617e+00,6.056475067325082229e-01,0.000000000000000000e+00
0.000000000000000000e+00,1.000000000000000000e+00,0.000000000000000000e+00,6.000000000000000000e+01,1.152600000000000000e+04,3.313200473785400391e-01,1.870898008346557617e+00,5.433416996746992522e-01,0.000000000000000000e+00
1.000000000000000000e+00,1.000000000000000000e+00,1.000000000000000000e+00,6.000000000000000000e+01,1.158600000000000000e+04,2.776820659637451172e-01,1.568614959716796875e+00,3.122402398874323803e-01,0.000000000000000000e+00
1.000000000000000000e+00,1.000000000000000000e+00,1.000000000000000000e+00,6.600000000000000000e+01,1.165200000000000000e+04,3.190441131591796875e-01,1.993187904357910156e+00,6.884448098415052453e-01,0.000000000000000000e+00
0.000000000000000000e+00,1.000000000000000000e+00,0.000000000000000000e+00,6.100000000000000000e+01,1.171300000000000000e+04,2.680878639221191406e-01,1.647804975509643555e+00,3.866553980681944336e-01,0.000000000000000000e+00
1.000000000000000000e+00,1.000000000000000000e+00,1.000000000000000000e+00,5.600000000000000000e+01,1.176900000000000000e+04,3.172168731689453125e-01,1.721134901046752930e+00,4.078312537517548297e-01,0.000000000000000000e+00
0.000000000000000000e+00,1.000000000000000000e+00,0.000000000000000000e+00,6.000000000000000000e+01,1.182900000000000000e+04,2.975909709930419922e-01,1.918919086456298828e+00,6.266403458003806382e-01,0.000000000000000000e+00
1.000000000000000000e+00,1.000000000000000000e+00,1.000000000000000000e+00,6.400000000000000000e+01,1.189300000000000000e+04,2.739868164062500000e-01,1.952986001968383789e+00,6.962718352075826234e-01,0.000000000000000000e+00
1.000000000000000000e+00,1.000000000000000000e+00,1.000000000000000000e+00,6.200000000000000000e+01,1.195500000000000000e+04,3.461711406707763672e-01,1.844670057296752930e+00,5.078988681434881691e-01,0.000000000000000000e+00
0.000000000000000000e+00,1.000000000000000000e+00,0.000000000000000000e+00,6.000000000000000000e+01,1.201500000000000000e+04,3.100900650024414062e-01,1.827202081680297852e+00,5.351627042177948823e-01,0.000000000000000000e+00
0.000000000000000000e+00,1.000000000000000000e+00,0.000000000000000000e+00,6.100000000000000000e+01,1.207600000000000000e+04,3.509140014648437500e-01,1.728204965591430664e+00,3.802892737255663125e-01,0.000000000000000000e+00
0.000000000000000000e+00,1.000000000000000000e+00,0.000000000000000000e+00,6.100000000000000000e+01,1.213700000000000000e+04,3.272778987884521484e-01,1.809361934661865234e+00,5.062133294404811412e-01,0.000000000000000000e+00
0.000000000000000000e+00,0.000000000000000000e+00,1.000000000000000000e+00,4.200000000000000000e+01,1.217900000000000000e+04,2.856719493865966797e-01,1.790459871292114258e+00,5.134286740583864361e-01,1.000000000000000000e+00
0.000000000000000000e+00,1.000000000000000000e+00,0.000000000000000000e+00,6.200000000000000000e+01,1.224100000000000000e+04,4.014759063720703125e-01,1.638898134231567383e+00,2.526745286718802275e-01,0.000000000000000000e+00
0.000000000000000000e+00,1.000000000000000000e+00,0.000000000000000000e+00,6.100000000000000000e+01,1.230200000000000000e+04,3.104779720306396484e-01,1.701876878738403320e+00,3.878455716130863595e-01,0.000000000000000000e+00
0.000000000000000000e+00,1.000000000000000000e+00,0.000000000000000000e+00,6.100000000000000000e+01,1.236300000000000000e+04,2.876179218292236328e-01,1.816837787628173828e+00,5.378955271207591649e-01,0.000000000000000000e+00
0.000000000000000000e+00,1.000000000000000000e+00,0.000000000000000000e+00,6.100000000000000000e+01,1.242400000000000000e+04,2.469618320465087891e-01,1.727669954299926758e+00,4.823751444476440109e-01,0.000000000000000000e+00
0.000000000000000000e+00,1.000000000000000000e+00,0.000000000000000000e+00,6.100000000000000000e+01,1.248500000000000000e+04,2.726459503173828125e-01,1.895981073379516602e+00,6.282436859338593749e-01,0.000000000000000000e+00
0.000000000000000000e+00,1.000000000000000000e+00,0.000000000000000000e+00,6.100000000000000000e+01,1.254600000000000000e+04,2.934160232543945312e-01,1.586194992065429688e+00,3.148372649641079102e-01,0.000000000000000000e+00
0.000000000000000000e+00,1.000000000000000000e+00,0.000000000000000000e+00,6.100000000000000000e+01,1.260700000000000000e+04,2.711410522460937500e-01,1.870578050613403320e+00,6.185023275759480299e-01,0.000000000000000000e+00
1.000000000000000000e+00,1.000000000000000000e+00,1.000000000000000000e+00,6.000000000000000000e+01,1.266700000000000000e+04,3.370339870452880859e-01,2.042732954025268555e+00,7.112243950645467105e-01,0.000000000000000000e+00
1.000000000000000000e+00,1.000000000000000000e+00,1.000000000000000000e+00,6.300000000000000000e+01,1.273000000000000000e+04,3.025782108306884766e-01,1.941565990447998047e+00,6.529570909200004269e-01,0.000000000000000000e+00
1.000000000000000000e+00,1.000000000000000000e+00,1.000000000000000000e+00,6.300000000000000000e+01,1.279300000000000000e+04,2.705841064453125000e-01,1.593967914581298828e+00,3.306699370368915147e-01,0.000000000000000000e+00
0.000000000000000000e+00,1.000000000000000000e+00,0.000000000000000000e+00,6.000000000000000000e+01,1.285300000000000000e+04,3.494029045104980469e-01,1.684325933456420898e+00,3.483722305681897224e-01,0.000000000000000000e+00
0.000000000000000000e+00,1.000000000000000000e+00,0.000000000000000000e+00,5.700000000000000000e+01,1.291000000000000000e+04,2.891080379486083984e-01,1.738698005676269531e+00,4.703545962940488545e-01,0.000000000000000000e+00
1.000000000000000000e+00,1.000000000000000000e+00,1.000000000000000000e+00,5.600000000000000000e+01,1.296600000000000000e+04,2.881209850311279297e-01,1.969336032867431641e+00,6.894880462707064783e-01,0.000000000000000000e+00
1.000000000000000000e+00,1.000000000000000000e+00,1.000000000000000000e+00,5.600000000000000000e+01,1.302200000000000000e+04,2.676451206207275391e-01,1.579147100448608398e+00,3.191185762067554887e-01,0.000000000000000000e+00
1.000000000000000000e+00,1.000000000000000000e+00,1.000000000000000000e+00,5.600000000000000000e+01,1.307800000000000000e+04,2.822508811950683594e-01,1.922279119491577148e+00,6.411250296039425756e-01,0.000000000000000000e+00
1.000000000000000000e+00,1.000000000000000000e+00,1.000000000000000000e+00,5.900000000000000000e+01,1.313700000000000000e+04,3.206131458282470703e-01,1.746839046478271484e+00,4.382670264803767979e-01,0.000000000000000000e+00
1.000000000000000000e+00,1.000000000000000000e+00,1.000000000000000000e+00,6.100000000000000000e+01,1.319800000000000000e+04,2.787220478057861328e-01,1.685002803802490234e+00,4.067362226383526846e-01,0.000000000000000000e+00
1.000000000000000000e+00,1.000000000000000000e+00,1.000000000000000000e+00,6.000000000000000000e+01,1.325800000000000000e+04,2.685301303863525391e-01,1.909615993499755859e+00,6.494899648094938360e-01,0.000000000000000000e+00
0.000000000000000000e+00,1.000000000000000000e+00,0.000000000000000000e+00,6.300000000000000000e+01,1.332100000000000000e+04,3.548569679260253906e-01,1.890779972076416016e+00,5.404628221871278226e-01,0.000000000000000000e+00
1.000000000000000000e+00,1.000000000000000000e+00,1.000000000000000000e+00,6.300000000000000000e+01,1.338400000000000000e+04,3.145139217376708984e-01,2.054876089096069336e+00,7.452052323327187366e-01,0.000000000000000000e+00
0.000000000000000000e+00,1.000000000000000000e+00,0.000000000000000000e+00,6.400000000000000000e+01,1.344800000000000000e+04,3.136899471282958984e-01,1.967169046401977539e+00,6.625393640900879566e-01,0.000000000000000000e+00
0.000000000000000000e+00,1.000000000000000000e+00,0.000000000000000000e+00,6.400000000000000000e+01,1.351200000000000000e+04,2.812199592590332031e-01,1.612350940704345703e+00,3.419679755764690188e-01,0.000000000000000000e+00
0.000000000000000000e+00,1.000000000000000000e+00,0.000000000000000000e+00,5.600000000000000000e+01,1.356800000000000000e+04,2.754440307617187500e-01,1.971464872360229492e+00,7.130866266949691390e-01,0.000000000000000000e+00
0.000000000000000000e+00,1.000000000000000000e+00,0.000000000000000000e+00,6.000000000000000000e+01,1.362800000000000000e+04,2.828748226165771484e-01,1.912243127822875977e+00,6.421182608930022795e-01,0.000000000000000000e+00
0.000000000000000000e+00,1.000000000000000000e+00,0.000000000000000000e+00,6.000000000000000000e+01,1.368800000000000000e+04,3.002648353576660156e-01,1.867264986038208008e+00,5.762238382573545703e-01,0.000000000000000000e+00
0.000000000000000000e+00,1.000000000000000000e+00,0.000000000000000000e+00,5.700000000000000000e+01,1.374500000000000000e+04,2.556121349334716797e-01,1.825673818588256836e+00,5.852750488437143961e-01,0.000000000000000000e+00
1.000000000000000000e+00,1.000000000000000000e+00,1.000000000000000000e+00,5.900000000000000000e+01,1.380400000000000000e+04,3.353350162506103516e-01,1.594662904739379883e+00,2.637124191881025648e-01,0.000000000000000000e+00
1.000000000000000000e+00,1.000000000000000000e+00,1.000000000000000000e+00,6.100000000000000000e+01,1.386500000000000000e+04,2.781620025634765625e-01,1.655180931091308594e+00,3.854646680951955284e-01,0.000000000000000000e+00
1.000000000000000000e+00,1.000000000000000000e+00,1.000000000000000000e+00,6.200000000000000000e+01,1.392700000000000000e+04,2.554869651794433594e-01,1.756566047668457031e+00,5.086318672268813623e-01,0.000000000000000000e+00
1.000000000000000000e+00,1.000000000000000000e+00,1.000000000000000000e+00,6.300000000000000000e+01,1.399000000000000000e+04,2.655279636383056641e-01,1.739828109741210938e+00,4.819177457593539216e-01,0.000000000000000000e+00
0.000000000000000000e+00,1.000000000000000000e+00,0.000000000000000000e+00,5.600000000000000000e+01,1.404600000000000000e+04,3.274021148681640625e-01,2.012265920639038086e+00,7.106776163357302334e-01,0.000000000000000000e+00
1.000000000000000000e+00,1.000000000000000000e+00,1.000000000000000000e+00,5.900000000000000000e+01,1.410500000000000000e+04,2.886750698089599609e-01,1.897562026977539062e+00,6.251078673478054348e-01,0.000000000000000000e+00
1.000000000000000000e+00,1.000000000000000000e+00,1.000000000000000000e+00,5.900000000000000000e+01,1.416400000000000000e+04,2.546830177307128906e-01,1.704323053359985352e+00,4.629949227044130033e-01,0.000000000000000000e+00
1.000000000000000000e+00,1.000000000000000000e+00,1.000000000000000000e+00,6.000000000000000000e+01,1.422400000000000000e+04,2.988219261169433594e-01,1.912542104721069336e+00,6.254141562615675998e-01,0.000000000000000000e+00
0.000000000000000000e+00,1.000000000000000000e+00,0.000000000000000000e+00,5.600000000000000000e+01,1.428000000000000000e+04,3.341560363769531250e-01,2.056915998458862305e+00,7.320656552082283053e-01,0.000000000000000000e+00
1.000000000000000000e+00,1.000000000000000000e+00,1.000000000000000000e+00,6.000000000000000000e+01,1.434000000000000000e+04,3.485708236694335938e-01,1.791661977767944336e+00,4.410311487816676590e-01,0.000000000000000000e+00
0.000000000000000000e+00,1.000000000000000000e+00,0.000000000000000000e+00,6.000000000000000000e+01,1.440000000000000000e+04,3.052690029144287109e-01,1.842984199523925781e+00,5.506438028827829179e-01,0.000000000000000000e+00
1.000000000000000000e+00,1.000000000000000000e+00,1.000000000000000000e+00,5.700000000000000000e+01,1.445700000000000000e+04,2.623431682586669922e-01,1.616507053375244141e+00,3.507603757282234946e-01,0.000000000000000000e+00
0.000000000000000000e+00,1.000000000000000000e+00,0.000000000000000000e+00,5.900000000000000000e+01,1.451600000000000000e+04,3.367760181427001953e-01,1.942173957824707031e+00,6.094084862283954962e-01,0.000000000000000000e+00
0.000000000000000000e+00,1.000000000000000000e+00,0.000000000000000000e+00,5.600000000000000000e+01,1.457200000000000000e+04,3.564348220825195312e-01,1.781878948211669922e+00,4.415242024559464795e-01,0.000000000000000000e+00
0.000000000000000000e+00,1.000000000000000000e+00,0.000000000000000000e+00,6.100000000000000000e+01,1.463300000000000000e+04,2.992329597473144531e-01,1.983736038208007812e+00,6.917668434685035894e-01,0.000000000000000000e+00
1.000000000000000000e+00,1.000000000000000000e+00,1.000000000000000000e+00,5.600000000000000000e+01,1.468900000000000000e+04,2.939701080322265625e-01,1.863845109939575195e+00,5.891112930479520671e-01,0.000000000000000000e+00
1.000000000000000000e+00,0.000000000000000000e+00,0.000000000000000000e+00,3.900000000000000000e+01,1.472800000000000000e+04,2.654211521148681641e-01,1.594356060028076172e+00,3.338078689831530665e-01,1.000000000000000000e+00
1.000000000000000000e+00,1.000000000000000000e+00,1.000000000000000000e+00,6.500000000000000000e+01,1.479300000000000000e+04,3.404610157012939453e-01,1.894093990325927734e+00,5.610655156177832836e-01,0.000000000000000000e+00
0.000000000000000000e+00,1.000000000000000000e+00,0.000000000000000000e+00,6.800000000000000000e+01,1.486100000000000000e+04,3.251321315765380859e-01,1.936779975891113281e+00,6.311877009633081181e-01,0.000000000000000000e+00
1.000000000000000000e+00,1.000000000000000000e+00,1.000000000000000000e+00,6.800000000000000000e+01,1.492900000000000000e+04,2.568469047546386719e-01,1.935389995574951172e+00,6.999152324192075003e-01,0.000000000000000000e+00
0.000000000000000000e+00,1.000000000000000000e+00,0.000000000000000000e+00,6.900000000000000000e+01,1.499800000000000000e+04,3.509600162506103516e-01,1.774337053298950195e+00,4.246388118775280551e-01,0.000000000000000000e+00
1.000000000000000000e+00,1.000000000000000000e+00,1.000000000000000000e+00,6.900000000000000000e+01,1.506700000000000000e+04,2.463018894195556641e-01,1.920962095260620117e+00,6.787076039210473422e-01,0.000000000000000000e+00
0.000000000000000000e+00,1.000000000000000000e+00,0.000000000000000000e+00,6.700000000000000000e+01,1.513400000000000000e+04,2.727098464965820312e-01,1.878048896789550781e+00,6.235696145647694477e-01,0.000000000000000000e+00
0.000000000000000000e+00,1.000000000000000000e+00,0.000000000000000000e+00,6.500000000000000000e+01,1.519900000000000000e+04,3.764529228210449219e-01,1.874979972839355469e+00,5.154352972434070868e-01,0.000000000000000000e+00
1.000000000000000000e+00,1.000000000000000000e+00,1.000000000000000000e+00,6.200000000000000000e+01,1.526100000000000000e+04,2.582120895385742188e-01,1.946965932846069336e+00,6.956217011979060061e-01,0.000000000000000000e+00
0.000000000000000000e+00,1.000000000000000000e+00,0.000000000000000000e+00,7.100000000000000000e+01,1.533200000000000000e+04,3.349370956420898438e-01,2.042483091354370117e+00,7.215018326281807948e-01,0.000000000000000000e+00
1.000000000000000000e+00,1.000000000000000000e+00,1.000000000000000000e+00,6.500000000000000000e+01,1.539700000000000000e+04,2.880179882049560547e-01,1.671725034713745117e+00,3.936392029661461844e-01,0.000000000000000000e+00
0.000000000000000000e+00,1.000000000000000000e+00,0.000000000000000000e+00,6.900000000000000000e+01,1.546600000000000000e+04,2.863638401031494141e-01,1.891393899917602539e+00,6.182135081756656714e-01,0.000000000000000000e+00
1.000000000000000000e+00,1.000000000000000000e+00,1.000000000000000000e+00,6.600000000000000000e+01,1.553200000000000000e+04,3.464798927307128906e-01,2.075408220291137695e+00,7.269186424287017445e-01,0.000000000000000000e+00
0.000000000000000000e+00,1.000000000000000000e+00,0.000000000000000000e+00,6.400000000000000000e+01,1.559600000000000000e+04,2.738709449768066406e-01,1.857494831085205078e+00,6.012862333679380722e-01,0.000000000000000000e+00
0.000000000000000000e+00,1.000000000000000000e+00,0.000000000000000000e+00,6.900000000000000000e+01,1.566500000000000000e+04,3.782777786254882812e-01,1.742505073547363281e+00,3.607727450105890354e-01,0.000000000000000000e+00
1.000000000000000000e+00,1.000000000000000000e+00,1.000000000000000000e+00,6.400000000000000000e+01,1.572900000000000000e+04,3.230130672454833984e-01,1.564011096954345703e+00,2.582901721694805808e-01,0.000000000000000000e+00
1.000000000000000000e+00,1.000000000000000000e+00,1.000000000000000000e+00,6.500000000000000000e+01,1.579400000000000000e+04,2.734110355377197266e-01,1.967621088027954102e+00,7.088634955048822572e-01,0.000000000000000000e+00
0.000000000000000000e+00,1.000000000000000000e+00,0.000000000000000000e+00,6.400000000000000000e+01,1.585800000000000000e+04,2.907881736755371094e-01,1.799773931503295898e+00,5.255603864081279664e-01,0.000000000000000000e+00
1.000000000000000000e+00,0.000000000000000000e+00,0.000000000000000000e+00,3.400000000000000000e+01,1.589200000000000000e+04,2.698459625244140625e-01,1.603920936584472656e+00,3.464300824153793701e-01,0.000000000000000000e+00
1.000000000000000000e+00,1.000000000000000000e+00,1.000000000000000000e+00,6.400000000000000000e+01,1.595600000000000000e+04,3.328480720520019531e-01,2.026480197906494141e+00,7.063593037867630375e-01,0.000000000000000000e+00
0.000000000000000000e+00,1.000000000000000000e+00,0.000000000000000000e+00,6.400000000000000000e+01,1.602000000000000000e+04,2.835769653320312500e-01,2.009307861328125000e+00,7.319322297291741553e-01,0.000000000000000000e+00
1.000000000000000000e+00,1.000000000000000000e+00,1.000000000000000000e+00,6.900000000000000000e+01,1.608900000000000000e+04,2.429299354553222656e-01,1.576278924942016602e+00,3.420357885369532669e-01,0.000000000000000000e+00
1.000000000000000000e+00,1.000000000000000000e+00,1.000000000000000000e+00,6.600000000000000000e+01,1.615500000000000000e+04,2.773590087890625000e-01,1.980570077896118164e+00,7.222928311472901486e-01,0.000000000000000000e+00
0.000000000000000000e+00,1.000000000000000000e+00,0.000000000000000000e+00,6.200000000000000000e+01,1.621700000000000000e+04,3.170688152313232422e-01,1.643079996109008789e+00,3.325061952880233318e-01,0.000000000000000000e+00
0.000000000000000000e+00,1.000000000000000000e+00,0.000000000000000000e+00,6.400000000000000000e+01,1.628100000000000000e+04,2.881059646606445312e-01,1.829314947128295898e+00,5.450005919898999185e-01,0.000000000000000000e+00
1.000000000000000000e+00,1.000000000000000000e+00,1.000000000000000000e+00,6.200000000000000000e+01,1.634300000000000000e+04,3.045561313629150391e-01,1.893945217132568359e+00,6.056204233076648569e-01,0.000000000000000000e+00
1.000000000000000000e+00,0.000000000000000000e+00,0.000000000000000000e+00,3.600000000000000000e+01,1.637900000000000000e+04,2.638018131256103516e-01,1.887700080871582031e+00,6.267295219225953451e-01,1.000000000000000000e+00
0.000000000000000000e+00,1.000000000000000000e+00,0.000000000000000000e+00,6.100000000000000000e+01,1.644000000000000000e+04,3.074078559875488281e-01,1.786095857620239258e+00,4.963860088144229077e-01,0.000000000000000000e+00
1.000000000000000000e+00,1.000000000000000000e+00,1.000000000000000000e+00,6.400000000000000000e+01,1.650400000000000000e+04,3.142299652099609375e-01,2.015295982360839844e+00,7.115249143866506643e-01,0.000000000000000000e+00
0.000000000000000000e+00,1.000000000000000000e+00,0.000000000000000000e+00,6.900000000000000000e+01,1.657300000000000000e+04,3.645341396331787109e-01,1.662740945816040039e+00,3.080897080992864856e-01,0.000000000000000000e+00
1.000000000000000000e+00,1.000000000000000000e+00,1.000000000000000000e+00,6.300000000000000000e+01,1.663600000000000000e+04,3.179960250854492188e-01,1.904377937316894531e+00,5.955898942017672226e-01,0.000000000000000000e+00
1.000000000000000000e+00,1.000000000000000000e+00,1.000000000000000000e+00,6.300000000000000000e+01,1.669900000000000000e+04,2.800261974334716797e-01,1.929309844970703125e+00,6.582213160748879854e-01,0.000000000000000000e+00
1.000000000000000000e+00,1.000000000000000000e+00,1.000000000000000000e+00,7.000000000000000000e+01,1.676900000000000000e+04,2.797300815582275391e-01,1.944675922393798828e+00,6.696374260957901337e-01,0.000000000000000000e+00
0.000000000000000000e+00,1.000000000000000000e+00,0.000000000000000000e+00,6.400000000000000000e+01,1.683300000000000000e+04,3.268771171569824219e-01,1.927833080291748047e+00,5.976435536559919770e-01,0.000000000000000000e+00
1.000000000000000000e+00,1.000000000000000000e+00,1.000000000000000000e+00,6.300000000000000000e+01,1.689600000000000000e+04,2.851819992065429688e-01,1.734689950942993164e+00,4.658720623897135704e-01,0.000000000000000000e+00
1.000000000000000000e+00,1.000000000000000000e+00,1.000000000000000000e+00,6.400000000000000000e+01,1.696000000000000000e+04,2.622630596160888672e-01,1.905496835708618164e+00,6.379506782199827475e-01,0.000000000000000000e+00
1.000000000000000000e+00,1.000000000000000000e+00,1.000000000000000000e+00,6.500000000000000000e+01,1.702500000000000000e+04,2.873160839080810547e-01,1.867227077484130859e+00,5.886290726745934121e-01,0.000000000000000000e+00
0.000000000000000000e+00,1.000000000000000000e+00,0.000000000000000000e+00,6.200000000000000000e+01,1.708700000000000000e+04,3.137049674987792969e-01,1.817952156066894531e+00,5.067330282855344592e-01,0.000000000000000000e+00
1.000000000000000000e+00,1.000000000000000000e+00,1.000000000000000000e+00,6.300000000000000000e+01,1.715000000000000000e+04,2.450428009033203125e-01,1.719182014465332031e+00,4.760481353787116565e-01,0.000000000000000000e+00
1.000000000000000000e+00,1.000000000000000000e+00,1.000000000000000000e+00,6.500000000000000000e+01,1.721500000000000000e+04,2.845010757446289062e-01,1.714051008224487305e+00,4.401892592859186770e-01,0.000000000000000000e+00
1.000000000000000000e+00,1.000000000000000000e+00,1.000000000000000000e+00,6.400000000000000000e+01,1.727900000000000000e+04,2.878129482269287109e-01,1.961224079132080078e+00,6.845368039634911472e-01,0.000000000000000000e+00
1.000000000000000000e+00,1.000000000000000000e+00,1.000000000000000000e+00,6.000000000000000000e+01,1.733900000000000000e+04,2.673029899597167969e-01,1.732640027999877930e+00,4.675086006114340664e-01,0.000000000000000000e+00
0.000000000000000000e+00,1.000000000000000000e+00,0.000000000000000000e+00,6.600000000000000000e+01,1.740500000000000000e+04,4.069499969482421875e-01,1.822284936904907227e+00,4.232570035256111862e-01,0.000000000000000000e+00
0.000000000000000000e+00,1.000000000000000000e+00,0.000000000000000000e+00,5.900000000000000000e+01,1.746400000000000000e+04,2.914800643920898438e-01,1.945404052734375000e+00,6.684829042640501040e-01,0.000000000000000000e+00
0.000000000000000000e+00,1.000000000000000000e+00,0.000000000000000000e+00,6.200000000000000000e+01,1.752600000000000000e+04,2.935509681701660156e-01,1.606609106063842773e+00,3.254994631563653540e-01,0.000000000000000000e+00
0.000000000000000000e+00,1.000000000000000000e+00,0.000000000000000000e+00,6.600000000000000000e+01,1.759200000000000000e+04,2.976241111755371094e-01,1.553819894790649414e+00,2.628012548422434813e-01,0.000000000000000000e+00
0.000000000000000000e+00,1.000000000000000000e+00,0.000000000000000000e+00,6.700000000000000000e+01,1.765900000000000000e+04,2.786638736724853516e-01,1.880859136581420898e+00,6.100649035515970375e-01,0.000000000000000000e+00
0.000000000000000000e+00,0.000000000000000000e+00,1.000000000000000000e+00,3.900000000000000000e+01,1.769800000000000000e+04,2.453808784484863281e-01,1.503758907318115234e+00,2.642190738810513695e-01,1.000000000000000000e+00
1.000000000000000000e+00,1.000000000000000000e+00,1.000000000000000000e+00,5.600000000000000000e+01,1.775400000000000000e+04,3.603310585021972656e-01,2.089511871337890625e+00,7.200184355645218304e-01,0.000000000000000000e+00
1.000000000000000000e+00,1.000000000000000000e+00,1.000000000000000000e+00,5.900000000000000000e+01,1.781300000000000000e+04,2.184698581695556641e-01,1.937981128692626953e+00,7.247346265681873234e-01,0.000000000000000000e+00
0.000000000000000000e+00,1.000000000000000000e+00,0.000000000000000000e+00,5.600000000000000000e+01,1.786900000000000000e+04,3.322510719299316406e-01,1.876454830169677734e+00,5.514336749651985725e-01,0.000000000000000000e+00
1.000000000000000000e+00,1.000000000000000000e+00,1.000000000000000000e+00,5.900000000000000000e+01,1.792800000000000000e+04,3.199501037597656250e-01,1.722848176956176758e+00,4.078503126004068835e-01,0.000000000000000000e+00
1.000000000000000000e+00,1.000000000000000000e+00,1.000000000000000000e+00,6.300000000000000000e+01,1.799100000000000000e+04,2.592809200286865234e-01,1.629708051681518555e+00,3.876530685519837816e-01,0.000000000000000000e+00
0.000000000000000000e+00,1.000000000000000000e+00,0.000000000000000000e+00,5.300000000000000000e+01,1.804400000000000000e+04,3.350989818572998047e-01,1.781943798065185547e+00,4.529263350481852468e-01,0.000000000000000000e+00
1.000000000000000000e+00,1.000000000000000000e+00,1.000000000000000000e+00,5.300000000000000000e+01,1.809700000000000000e+04,2.658491134643554688e-01,1.650195837020874023e+00,3.866006008780749625e-01,0.000000000000000000e+00
1.000000000000000000e+00,1.000000000000000000e+00,1.000000000000000000e+00,6.100000000000000000e+01,1.815800000000000000e+04,3.948559761047363281e-01,1.739042997360229492e+00,3.424153083080926363e-01,0.000000000000000000e+00
0.000000000000000000e+00,1.000000000000000000e+00,0.000000000000000000e+00,5.900000000000000000e+01,1.821700000000000000e+04,3.304898738861083984e-01,2.057164192199707031e+00,7.325801311954585060e-01,0.000000000000000000e+00
0.000000000000000000e+00,1.000000000000000000e+00,0.000000000000000000e+00,5.600000000000000000e+01,1.827300000000000000e+04,3.249380588531494141e-01,1.843010902404785156e+00,5.258880329963493416e-01,0.000000000000000000e+00
1.000000000000000000e+00,1.000000000000000000e+00,1.000000000000000000e+00,6.100000000000000000e+01,1.833400000000000000e+04,3.397560119628906250e-01,1.967319011688232422e+00,6.431542573161317389e-01,0.000000000000000000e+00
0.000000000000000000e+00,1.000000000000000000e+00,0.000000000000000000e+00,5.900000000000000000e+01,1.839300000000000000e+04,2.651259899139404297e-01,1.705043077468872070e+00,4.484820196760281874e-01,0.000000000000000000e+00
0.000000000000000000e+00,1.000000000000000000e+00,0.000000000000000000e+00,6.200000000000000000e+01,1.845500000000000000e+04,3.432369232177734375e-01,1.840916156768798828e+00,5.227268317946872633e-01,0.000000000000000000e+00
0.000000000000000000e+00,1.000000000000000000e+00,0.000000000000000000e+00,5.700000000000000000e+01,1.851200000000000000e+04,2.732520103454589844e-01,1.863091945648193359e+00,6.025026965857320782e-01,0.000000000000000000e+00
0.000000000000000000e+00,1.000000000000000000e+00,0.000000000000000000e+00,5.500000000000000000e+01,1.856700000000000000e+04,2.906808853149414062e-01,1.798913955688476562e+00,5.182374965519180865e-01,0.000000000000000000e+00
0.000000000000000000e+00,1.000000000000000000e+00,0.000000000000000000e+00,6.000000000000000000e+01,1.862700000000000000e+04,2.577288150787353516e-01,1.638598918914794922e+00,3.903828421541783444e-01,0.000000000000000000e+00
0.000000000000000000e+00,1.000000000000000000e+00,0.000000000000000000e+00,6.300000000000000000e+01,1.869000000000000000e+04,2.624139785766601562e-01,1.602088928222656250e+00,3.425512995026219754e-01,0.000000000000000000e+00
0.000000000000000000e+00,1.000000000000000000e+00,0.000000000000000000e+00,6.200000000000000000e+01,1.875200000000000000e+04,2.685220241546630859e-01,1.770708084106445312e+00,5.131755528508491482e-01,0.000000000000000000e+00
1.000000000000000000e+00,1.000000000000000000e+00,1.000000000000000000e+00,6.100000000000000000e+01,1.881300000000000000e+04,2.818558216094970703e-01,1.775180101394653320e+00,5.050761603069430228e-01,0.000000000000000000e+00
0.000000000000000000e+00,1.000000000000000000e+00,0.000000000000000000e+00,6.000000000000000000e+01,1.887300000000000000e+04,2.585289478302001953e-01,1.511209011077880859e+00,2.666265930055812250e-01,0.000000000000000000e+00
1.000000000000000000e+00,1.000000000000000000e+00,1.000000000000000000e+00,5.600000000000000000e+01,1.892900000000000000e+04,2.729778289794921875e-01,1.557012081146240234e+00,2.903350516823549055e-01,0.000000000000000000e+00
1.000000000000000000e+00,1.000000000000000000e+00,1.000000000000000000e+00,6.200000000000000000e+01,1.899100000000000000e+04,2.890701293945312500e-01,1.732044935226440430e+00,4.556400617979834422e-01,0.000000000000000000e+00
1.000000000000000000e+00,1.000000000000000000e+00,1.000000000000000000e+00,5.500000000000000000e+01,1.904600000000000000e+04,2.907958030700683594e-01,1.702270030975341797e+00,4.246777753248134335e-01,0.000000000000000000e+00
0.000000000000000000e+00,1.000000000000000000e+00,0.000000000000000000e+00,6.000000000000000000e+01,1.910600000000000000e+04,2.808189392089843750e-01,1.657787084579467773e+00,3.826072332901937489e-01,0.000000000000000000e+00
0.000000000000000000e+00,1.000000000000000000e+00,0.000000000000000000e+00,6.200000000000000000e+01,1.916800000000000000e+04,2.821888923645019531e-01,1.604412078857421875e+00,3.204576486132025281e-01,0.000000000000000000e+00
1.000000000000000000e+00,0.000000000000000000e+00,0.000000000000000000e+00,3.300000000000000000e+01,1.920100000000000000e+04,2.732789516448974609e-01,1.667487859725952148e+00,4.046025244159054957e-01,1.000000000000000000e+00
1.000000000000000000e+00,0.000000000000000000e+00,0.000000000000000000e+00,3.800000000000000000e+01,1.923900000000000000e+04,2.376358509063720703e-01,1.775757789611816406e+00,5.469642016567877185e-01,0.000000000000000000e+00
1.000000000000000000e+00,1.000000000000000000e+00,1.000000000000000000e+00,6.300000000000000000e+01,1.930200000000000000e+04,4.190049171447753906e-01,2.087042808532714844e+00,6.839364150152280608e-01,0.000000000000000000e+00
0.000000000000000000e+00,1.000000000000000000e+00,0.000000000000000000e+00,6.700000000000000000e+01,1.936900000000000000e+04,2.931890487670898438e-01,1.622610807418823242e+00,3.403170078574834223e-01,0.000000000000000000e+00
1.000000000000000000e+00,1.000000000000000000e+00,1.000000000000000000e+00,6.900000000000000000e+01,1.943800000000000000e+04,2.874808311462402344e-01,1.792732954025268555e+00,5.162732893520851629e-01,0.000000000000000000e+00
1.000000000000000000e+00,1.000000000000000000e+00,1.000000000000000000e+00,6.200000000000000000e+01,1.950000000000000000e+04,2.965390682220458984e-01,1.682883977890014648e+00,3.827013820735525873e-01,0.000000000000000000e+00
1.000000000000000000e+00,1.000000000000000000e+00,1.000000000000000000e+00,6.600000000000000000e+01,1.956600000000000000e+04,2.613098621368408203e-01,1.782665967941284180e+00,5.319192881087609903e-01,0.000000000000000000e+00
0.000000000000000000e+00,1.000000000000000000e+00,0.000000000000000000e+00,6.400000000000000000e+01,1.963000000000000000e+04,3.486700057983398438e-01,1.888380050659179688e+00,5.537252953452715953e-01,0.000000000000000000e+00
1.000000000000000000e+00,1.000000000000000000e+00,1.000000000000000000e+00,6.900000000000000000e+01,1.969900000000000000e+04,2.938661575317382812e-01,1.915955066680908203e+00,6.196758774592021624e-01,0.000000000000000000e+00
1.000000000000000000e+00,1.000000000000000000e+00,1.000000000000000000e+00,6.800000000000000000e+01,1.976700000000000000e+04,2.512190341949462891e-01,1.501985073089599609e+00,2.554156311953127423e-01,0.000000000000000000e+00
0.000000000000000000e+00,1.000000000000000000e+00,0.000000000000000000e+00,6.500000000000000000e+01,1.983200000000000000e+04,3.722329139709472656e-01,2.006011009216308594e+00,6.444478701378918428e-01,0.000000000000000000e+00
0.000000000000000000e+00,1.000000000000000000e+00,0.000000000000000000e+00,6.400000000000000000e+01,1.989600000000000000e+04,3.143250942230224609e-01,1.694998979568481445e+00,3.898073451504789344e-01,0.000000000000000000e+00
0.000000000000000000e+00,1.000000000000000000e+00,0.000000000000000000e+00,6.300000000000000000e+01,1.995900000000000000e+04,3.024029731750488281e-01,1.967593193054199219e+00,6.738350486386927019e-01,0.000000000000000000e+00
1.000000000000000000e+00,1.000000000000000000e+00,1.000000000000000000e+00,6.800000000000000000e+01,2.002700000000000000e+04,2.538259029388427734e-01,1.894523859024047852e+00,6.517610284742776372e-01,0.000000000000000000e+00
0.000000000000000000e+00,1.000000000000000000e+00,0.000000000000000000e+00,6.600000000000000000e+01,2.009300000000000000e+04,3.388772010803222656e-01,2.054445028305053711e+00,7.229328086857509383e-01,0.000000000000000000e+00
0.000000000000000000e+00,1.000000000000000000e+00,0.000000000000000000e+00,6.500000000000000000e+01,2.015800000000000000e+04,3.199179172515869141e-01,1.715219974517822266e+00,4.051970028717387096e-01,0.000000000000000000e+00
1.000000000000000000e+00,1.000000000000000000e+00,1.000000000000000000e+00,6.400000000000000000e+01,2.022200000000000000e+04,3.353998661041259766e-01,1.975586175918579102e+00,6.472645933636731463e-01,0.000000000000000000e+00
0.000000000000000000e+00,1.000000000000000000e+00,0.000000000000000000e+00,6.600000000000000000e+01,2.028800000000000000e+04,4.117300510406494141e-01,1.763902902603149414e+00,3.615620515791931333e-01,0.000000000000000000e+00
1.000000000000000000e+00,1.000000000000000000e+00,1.000000000000000000e+00,6.400000000000000000e+01,2.035200000000000000e+04,2.831358909606933594e-01,1.596834182739257812e+00,3.251546972697317850e-01,0.000000000000000000e+00
1.000000000000000000e+00,1.000000000000000000e+00,1.000000000000000000e+00,7.100000000000000000e+01,2.042300000000000000e+04,2.832038402557373047e-01,1.658396959304809570e+00,3.835815648590500393e-01,0.000000000000000000e+00
1.000000000000000000e+00,1.000000000000000000e+00,1.000000000000000000e+00,6.300000000000000000e+01,2.048600000000000000e+04,3.766829967498779297e-01,1.661761045455932617e+00,2.788599149606122984e-01,0.000000000000000000e+00
1.000000000000000000e+00,1.000000000000000000e+00,1.000000000000000000e+00,6.600000000000000000e+01,2.055200000000000000e+04,3.166170120239257812e-01,1.684890031814575195e+00,3.803681064073075047e-01,0.000000000000000000e+00
1.000000000000000000e+00,1.000000000000000000e+00,1.000000000000000000e+00,6.600000000000000000e+01,2.061800000000000000e+04,2.583129405975341797e-01,1.575194835662841797e+00,3.389990035957751169e-01,0.000000000000000000e+00
0.000000000000000000e+00,1.000000000000000000e+00,0.000000000000000000e+00,6.900000000000000000e+01,2.068700000000000000e+04,3.880541324615478516e-01,1.787691116333007812e+00,4.100369096323710494e-01,0.000000000000000000e+00
1.000000000000000000e+00,1.000000000000000000e+00,1.000000000000000000e+00,6.300000000000000000e+01,2.075000000000000000e+04,2.947461605072021484e-01,1.673167943954467773e+00,3.666408054098087566e-01,0.000000000000000000e+00
0.000000000000000000e+00,0.000000000000000000e+00,1.000000000000000000e+00,4.000000000000000000e+01,2.079000000000000000e+04,2.994301319122314453e-01,1.897463083267211914e+00,5.972854179665854080e-01,1.000000000000000000e+00
0.000000000000000000e+00,1.000000000000000000e+00,0.000000000000000000e+00,6.100000000000000000e+01,2.085100000000000000e+04,3.422019481658935547e-01,2.040650129318237305e+00,7.212160559924376546e-01,0.000000000000000000e+00
1.000000000000000000e+00,1.000000000000000000e+00,1.000000000000000000e+00,6.100000000000000000e+01,2.091200000000000000e+04,2.503669261932373047e-01,1.783656835556030273e+00,5.384402880070917607e-01,0.000000000000000000e+00
1.000000000000000000e+00,1.000000000000000000e+00,1.000000000000000000e+00,5.900000000000000000e+01,2.097100000000000000e+04,3.161141872406005859e-01,1.851788997650146484e+00,5.403356784516581968e-01,0.000000000000000000e+00
1.000000000000000000e+00,1.000000000000000000e+00,1.000000000000000000e+00,5.700000000000000000e+01,2.102800000000000000e+04,3.321750164031982422e-01,2.004280805587768555e+00,6.778573339344431403e-01,0.000000000000000000e+00
0.000000000000000000e+00,1.000000000000000000e+00,0.000000000000000000e+00,5.700000000000000000e+01,2.108500000000000000e+04,3.561980724334716797e-01,1.591207027435302734e+00,2.529254962708651910e-01,0.000000000000000000e+00
0.000000000000000000e+00,1.000000000000000000e+00,0.000000000000000000e+00,5.700000000000000000e+01,2.114200000000000000e+04,3.192770481109619141e-01,1.588895797729492188e+00,2.752056617956376017e-01,0.000000000000000000e+00
1.000000000000000000e+00,1.000000000000000000e+00,1.000000000000000000e+00,6.000000000000000000e+01,2.120200000000000000e+04,3.469450473785400391e-01,1.665458202362060547e+00,3.240119857012868643e-01,0.000000000000000000e+00
1.000000000000000000e+00,1.000000000000000000e+00,1.000000000000000000e+00,5.600000000000000000e+01,2.125800000000000000e+04,3.084318637847900391e-01,1.646744012832641602e+00,3.540956974721181649e-01,0.000000000000000000e+00
0.000000000000000000e+00,1.000000000000000000e+00,0.000000000000000000e+00,5.900000000000000000e+01,2.131700000000000000e+04,3.194758892059326172e-01,1.695379018783569336e+00,3.829059587271607112e-01,0.000000000000000000e+00
0.000000000000000000e+00,1.000000000000000000e+00,0.000000000000000000e+00,6.000000000000000000e+01,2.137700000000000000e+04,2.705731391906738281e-01,1.802309989929199219e+00,5.351107348752908166e-01,0.000000000000000000e+00
1.000000000000000000e+00,1.000000000000000000e+00,1.000000000000000000e+00,5.600000000000000000e+01,2.143300000000000000e+04,2.815501689910888672e-01,1.717976093292236328e+00,4.365995066569658412e-01,0.000000000000000000e+00
0.000000000000000000e+00,1.000000000000000000e+00,0.000000000000000000e+00,5.600000000000000000e+01,2.148900000000000000e+04,3.489270210266113281e-01,1.990358114242553711e+00,6.434785924582138161e-01,0.000000000000000000e+00
1.000000000000000000e+00,1.000000000000000000e+00,1.000000000000000000e+00,6.000000000000000000e+01,2.154900000000000000e+04,3.886640071868896484e-01,1.671326875686645508e+00,2.985673004789903828e-01,0.000000000000000000e+00
0.000000000000000000e+00,1.000000000000000000e+00,0.000000000000000000e+00,5.700000000000000000e+01,2.160600000000000000e+04,3.990879058837890625e-01,2.107676029205322266e+00,7.225649913536913438e-01,0.000000000000000000e+00
0.000000000000000000e+00,1.000000000000000000e+00,0.000000000000000000e+00,5.700000000000000000e+01,2.166300000000000000e+04,3.305978775024414062e-01,2.016671180725097656e+00,6.893456064365808267e-01,0.000000000000000000e+00
0.000000000000000000e+00,1.000000000000000000e+00,0.000000000000000000e+00,5.300000000000000000e+01,2.171600000000000000e+04,2.519228458404541016e-01,1.501158952713012695e+00,2.576828584013423629e-01,0.000000000000000000e+00
1.000000000000000000e+00,1.000000000000000000e+00,1.000000000000000000e+00,6.300000000000000000e+01,2.177900000000000000e+04,3.329620361328125000e-01,1.789955139160156250e+00,4.641726068459713361e-01,0.000000000000000000e+00
1.000000000000000000e+00,1.000000000000000000e+00,1.000000000000000000e+00,5.500000000000000000e+01,2.183400000000000000e+04,2.556490898132324219e-01,1.520744800567626953e+00,2.851253332395577988e-01,0.000000000000000000e+00
0.000000000000000000e+00,1.000000000000000000e+00,0.000000000000000000e+00,5.700000000000000000e+01,2.189100000000000000e+04,3.323230743408203125e-01,1.967012882232666016e+00,6.352080011538689952e-01,0.000000000000000000e+00
0.000000000000000000e+00,1.000000000000000000e+00,0.000000000000000000e+00,5.600000000000000000e+01,2.194700000000000000e+04,2.787539958953857422e-01,1.691959142684936523e+00,4.108154719390278986e-01,0.000000000000000000e+00
1.000000000000000000e+00,1.000000000000000000e+00,1.000000000000000000e+00,6.100000000000000000e+01,2.200800000000000000e+04,2.954809665679931641e-01,1.871232032775878906e+00,5.819689995241618119e-01,0.000000000000000000e+00
0.000000000000000000e+00,1.000000000000000000e+00,0.000000000000000000e+00,6.300000000000000000e+01,2.207100000000000000e+04,2.646090984344482422e-01,1.747539997100830078e+00,4.629800478607151160e-01,0.000000000000000000e+00
1.000000000000000000e+00,1.000000000000000000e+00,1.000000000000000000e+00,6.300000000000000000e+01,2.213400000000000000e+04,2.949810028076171875e-01,1.887401103973388672e+00,6.169982722400690900e-01,0.000000000000000000e+00
1.000000000000000000e+00,1.000000000000000000e+00,1.000000000000000000e+00,5.600000000000000000e+01,2.219000000000000000e+04,3.180029392242431641e-01,1.925078868865966797e+00,6.088492572031434236e-01,0.000000000000000000e+00
0.000000000000000000e+00,1.000000000000000000e+00,0.000000000000000000e+00,5.700000000000000000e+01,2.224700000000000000e+04,3.424499034881591797e-01,1.971508979797363281e+00,6.470652584079181757e-01,0.000000000000000000e+00
1.000000000000000000e+00,1.000000000000000000e+00,1.000000000000000000e+00,6.200000000000000000e+01,2.230900000000000000e+04,2.338879108428955078e-01,1.804953813552856445e+00,5.854567476280836402e-01,0.000000000000000000e+00
1.000000000000000000e+00,1.000000000000000000e+00,1.000000000000000000e+00,6.100000000000000000e+01,2.237000000000000000e+04,2.742209434509277344e-01,1.708395957946777344e+00,4.440934799817448653e-01,0.000000000000000000e+00
0.000000000000000000e+00,1.000000000000000000e+00,0.000000000000000000e+00,5.600000000000000000e+01,2.242600000000000000e+04,2.962880134582519531e-01,2.026023864746093750e+00,7.364534669749298601e-01,0.000000000000000000e+00
1.000000000000000000e+00,1.000000000000000000e+00,1.000000000000000000e+00,5.900000000000000000e+01,2.248500000000000000e+04,3.580489158630371094e-01,1.652714014053344727e+00,3.064578558650929985e-01,0.000000000000000000e+00
1.000000000000000000e+00,1.000000000000000000e+00,1.000000000000000000e+00,6.500000000000000000e+01,2.255000000000000000e+04,3.300528526306152344e-01,2.033825874328613281e+00,7.066222770793371133e-01,0.000000000000000000e+00
0.000000000000000000e+00,1.000000000000000000e+00,0.000000000000000000e+00,6.000000000000000000e+01,2.261000000000000000e+04,3.268060684204101562e-01,1.911890983581542969e+00,6.020401422026186999e-01,0.000000000000000000e+00
1.000000000000000000e+00,0.000000000000000000e+00,0.000000000000000000e+00,3.300000000000000000e+01,2.264300000000000000e+04,2.682399749755859375e-01,1.876042842864990234e+00,6.114868160916371309e-01,1.000000000000000000e+00
1.000000000000000000e+00,0.000000000000000000e+00,0.000000000000000000e+00,3.800000000000000000e+01,2.268100000000000000e+04,2.536008358001708984e-01,1.680030822753906250e+00,4.417557405294139650e-01,0.000000000000000000e+00
0.000000000000000000e+00,1.000000000000000000e+00,0.000000000000000000e+00,6.700000000000000000e+01,2.274800000000000000e+04,2.693550586700439453e-01,1.934816837310791016e+00,6.764207228069644140e-01,0.000000000000000000e+00
0.000000000000000000e+00,1.000000000000000000e+00,0.000000000000000000e+00,6.700000000000000000e+01,2.281500000000000000e+04,2.880649566650390625e-01,1.720395088195800781e+00,4.471228101362693663e-01,0.000000000000000000e+00
1.000000000000000000e+00,1.000000000000000000e+00,1.000000000000000000e+00,6.600000000000000000e+01,2.288100000000000000e+04,2.964429855346679688e-01,1.950030088424682617e+00,6.636348943646720455e-01,0.000000000000000000e+00
0.000000000000000000e+00,1.000000000000000000e+00,0.000000000000000000e+00,6.700000000000000000e+01,2.294800000000000000e+04,3.265719413757324219e-01,1.676090955734252930e+00,3.734860787311964914e-01,0.000000000000000000e+00
0.000000000000000000e+00,1.000000000000000000e+00,0.000000000000000000e+00,6.800000000000000000e+01,2.301600000000000000e+04,3.341991901397705078e-01,1.595497131347656250e+00,2.691555039261951943e-01,0.000000000000000000e+00
0.000000000000000000e+00,1.000000000000000000e+00,0.000000000000000000e+00,6.800000000000000000e+01,2.308400000000000000e+04,3.533320426940917969e-01,1.657720088958740234e+00,3.102312490467470929e-01,0.000000000000000000e+00
0.000000000000000000e+00,1.000000000000000000e+00,0.000000000000000000e+00,7.100000000000000000e+01,2.315500000000000000e+04,2.713758945465087891e-01,1.580626010894775391e+00,3.242065528527350859e-01,0.000000000000000000e+00
1.000000000000000000e+00,1.000000000000000000e+00,1.000000000000000000e+00,6.200000000000000000e+01,2.321700000000000000e+04,2.811288833618164062e-01,1.871026992797851562e+00,5.950565028051842953e-01,0.000000000000000000e+00
0.000000000000000000e+00,1.000000000000000000e+00,0.000000000000000000e+00,6.400000000000000000e+01,2.328100000000000000e+04,3.005211353302001953e-01,1.917579889297485352e+00,6.293073732821539146e-01,0.000000000000000000e+00
0.000000000000000000e+00,1.000000000000000000e+00,0.000000000000000000e+00,6.600000000000000000e+01,2.334700000000000000e+04,2.339079380035400391e-01,1.500332832336425781e+00,2.801187929763778728e-01,0.000000000000000000e+00
1.000000000000000000e+00,1.000000000000000000e+00,1.000000000000000000e+00,7.000000000000000000e+01,2.341700000000000000e+04,3.349249362945556641e-01,2.010678052902221680e+00,6.904360969797191938e-01,0.000000000000000000e+00
0.000000000000000000e+00,1.000000000000000000e+00,0.000000000000000000e+00,6.700000000000000000e+01,2.348400000000000000e+04,3.493599891662597656e-01,1.851945161819458008e+00,5.093367964828633410e-01,0.000000000000000000e+00
1.000000000000000000e+00,1.000000000000000000e+00,1.000000000000000000e+00,6.500000000000000000e+01,2.354900000000000000e+04,5.214180946350097656e-01,1.995028972625732422e+00,4.877728141295871178e-01,0.000000000000000000e+00
0.000000000000000000e+00,1.000000000000000000e+00,0.000000000000000000e+00,6.600000000000000000e+01,2.361500000000000000e+04,5.264799594879150391e-01,2.055411100387573242e+00,5.432342299623122983e-01,0.000000000000000000e+00
0.000000000000000000e+00,1.000000000000000000e+00,0.000000000000000000e+00,7.000000000000000000e+01,2.368500000000000000e+04,3.405849933624267578e-01,1.834897994995117188e+00,5.115456355796255128e-01,0.000000000000000000e+00
0.000000000000000000e+00,1.000000000000000000e+00,0.000000000000000000e+00,6.800000000000000000e+01,2.375300000000000000e+04,3.133111000061035156e-01,1.917950868606567383e+00,6.127927399523769303e-01,0.000000000000000000e+00
0.000000000000000000e+00,1.000000000000000000e+00,0.000000000000000000e+00,6.300000000000000000e+01,2.381600000000000000e+04,2.596948146820068359e-01,1.864102840423583984e+00,6.269312585174653396e-01,0.000000000000000000e+00
1.000000000000000000e+00,1.000000000000000000e+00,1.000000000000000000e+00,6.600000000000000000e+01,2.388200000000000000e+04,3.181128501892089844e-01,1.782067060470581055e+00,4.759489341258551498e-01,0.000000000000000000e+00
1.000000000000000000e+00,1.000000000000000000e+00,1.000000000000000000e+00,6.600000000000000000e+01,2.394800000000000000e+04,2.838079929351806641e-01,1.690186023712158203e+00,4.162906599332454327e-01,0.000000000000000000e+00
0.000000000000000000e+00,1.000000000000000000e+00,0.000000000000000000e+00,7.200000000000000000e+01,2.402000000000000000e+04,3.208670616149902344e-01,1.788354158401489258e+00,4.712953055027353511e-01,0.000000000000000000e+00
1.000000000000000000e+00,1.000000000000000000e+00,1.000000000000000000e+00,6.800000000000000000e+01,2.408800000000000000e+04,2.746310234069824219e-01,1.638496875762939453e+00,3.766342215515201541e-01,0.000000000000000000e+00
1.000000000000000000e+00,1.000000000000000000e+00,1.000000000000000000e+00,5.900000000000000000e+01,2.414700000000000000e+04,3.113222122192382812e-01,1.972023010253906250e+00,6.650712160645970705e-01,0.000000000000000000e+00
0.000000000000000000e+00,1.000000000000000000e+00,0.000000000000000000e+00,6.400000000000000000e+01,2.421100000000000000e+04,3.124010562896728516e-01,2.056684970855712891e+00,7.218268807973897694e-01,0.000000000000000000e+00
1.000000000000000000e+00,1.000000000000000000e+00,1.000000000000000000e+00,6.600000000000000000e+01,2.427700000000000000e+04,2.761340141296386719e-01,1.965358972549438477e+00,7.039077436425729140e-01,0.000000000000000000e+00
0.000000000000000000e+00,1.000000000000000000e+00,0.000000000000000000e+00,6.200000000000000000e+01,2.433900000000000000e+04,2.495560646057128906e-01,1.557178974151611328e+00,3.115822027480370515e-01,0.000000000000000000e+00
1.000000000000000000e+00,0.000000000000000000e+00,0.000000000000000000e+00,3.400000000000000000e+01,2.437300000000000000e+04,2.766067981719970703e-01,1.749742031097412109e+00,4.778836900665786036e-01,1.000000000000000000e+00
1.000000000000000000e+00,1.000000000000000000e+00,1.000000000000000000e+00,6.300000000000000000e+01,2.443600000000000000e+04,2.845799922943115234e-01,1.912220001220703125e+00,6.399788400690160639e-01,0.000000000000000000e+00
1.000000000000000000e+00,1.000000000000000000e+00,1.000000000000000000e+00,6.200000000000000000e+01,2.449800000000000000e+04,3.070290088653564453e-01,1.773955106735229492e+00,4.808769284917701614e-01,0.000000000000000000e+00
0.000000000000000000e+00,1.000000000000000000e+00,0.000000000000000000e+00,6.200000000000000000e+01,2.456000000000000000e+04,3.074049949645996094e-01,1.785187959671020508e+00,4.994540147880700554e-01,0.000000000000000000e+00
0.000000000000000000e+00,1.000000000000000000e+00,0.000000000000000000e+00,6.600000000000000000e+01,2.462600000000000000e+04,2.624270915985107422e-01,1.845871210098266602e+00,5.786474878799601207e-01,0.000000000000000000e+00
0.000000000000000000e+00,1.000000000000000000e+00,0.000000000000000000e+00,6.400000000000000000e+01,2.469000000000000000e+04,2.232310771942138672e-01,1.573249101638793945e+00,3.688451280090318529e-01,0.000000000000000000e+00
0.000000000000000000e+00,1.000000000000000000e+00,0.000000000000000000e+00,6.200000000000000000e+01,2.475200000000000000e+04,2.549731731414794922e-01,1.783694028854370117e+00,5.357899184882148891e-01,0.000000000000000000e+00
0.000000000000000000e+00,1.000000000000000000e+00,0.000000000000000000e+00,6.700000000000000000e+01,2.481900000000000000e+04,2.317140102386474609e-01,1.689220905303955078e+00,4.584777273491025817e-01,0.000000000000000000e+00
0.000000000000000000e+00,1.000000000000000000e+00,0.000000000000000000e+00,6.500000000000000000e+01,2.488400000000000000e+04,2.503859996795654297e-01,1.569648027420043945e+00,3.283154949490869057e-01,0.000000000000000000e+00
0.000000000000000000e+00,1.000000000000000000e+00,0.000000000000000000e+00,6.700000000000000000e+01,2.495100000000000000e+04,3.017950057983398438e-01,1.998789072036743164e+00,7.101009455192475173e-01,0.000000000000000000e+00
0.000000000000000000e+00,1.000000000000000000e+00,0.000000000000000000e+00,6.400000000000000000e+01,2.501500000000000000e+04,2.588269710540771484e-01,1.626038074493408203e+00,3.865846788935323186e-01,0.000000000000000000e+00
0.000000000000000000e+00,1.000000000000000000e+00,0.000000000000000000e+00,6.500000000000000000e+01,2.508000000000000000e+04,2.686300277709960938e-01,1.702033996582031250e+00,4.386363657343465561e-01,0.000000000000000000e+00
1.000000000000000000e+00,1.000000000000000000e+00,1.000000000000000000e+00,6.500000000000000000e+01,2.514500000000000000e+04,3.147070407867431641e-01,1.827446222305297852e+00,5.160163216449639156e-01,0.000000000000000000e+00
1.000000000000000000e+00,1.000000000000000000e+00,1.000000000000000000e+00,6.800000000000000000e+01,2.521300000000000000e+04,3.023929595947265625e-01,1.730018854141235352e+00,4.295717862432125722e-01,0.000000000000000000e+00
1.000000000000000000e+00,1.000000000000000000e+00,1.000000000000000000e+00,6.400000000000000000e+01,2.527700000000000000e+04,3.367438316345214844e-01,1.675963163375854492e+00,3.557302955780720644e-01,0.000000000000000000e+00
1.000000000000000000e+00,1.000000000000000000e+00,1.000000000000000000e+00,6.200000000000000000e+01,2.533900000000000000e+04,2.894830703735351562e-01,1.709905862808227539e+00,4.322582265881014796e-01,0.000000000000000000e+00
1.000000000000000000e+00,1.000000000000000000e+00,1.000000000000000000e+00,6.800000000000000000e+01,2.540700000000000000e+04,2.728919982910156250e-01,1.620153188705444336e+00,3.525618288157347791e-01,0.000000000000000000e+00
1.000000000000000000e+00,1.000000000000000000e+00,1.000000000000000000e+00,6.300000000000000000e+01,2.547000000000000000e+04,3.282680511474609375e-01,2.017191886901855469e+00,6.861514348814288233e-01,0.000000000000000000e+00
0.000000000000000000e+00,1.000000000000000000e+00,0.000000000000000000e+00,6.900000000000000000e+01,2.553900000000000000e+04,3.076808452606201172e-01,1.954364061355590820e+00,6.572596018967117315e-01,0.000000000000000000e+00
1.000000000000000000e+00,1.000000000000000000e+00,1.000000000000000000e+00,6.400000000000000000e+01,2.560300000000000000e+04,3.377380371093750000e-01,2.047600030899047852e+00,7.215631295424447256e-01,0.000000000000000000e+00
1.000000000000000000e+00,1.000000000000000000e+00,1.000000000000000000e+00,5.700000000000000000e+01,2.566000000000000000e+04,2.768769264221191406e-01,1.594154119491577148e+00,3.161956153807359837e-01,0.000000000000000000e+00
0.000000000000000000e+00,1.000000000000000000e+00,0.000000000000000000e+00,6.600000000000000000e+01,2.572600000000000000e+04,3.349270820617675781e-01,1.994443893432617188e+00,6.603740599113991916e-01,0.000000000000000000e+00
1.000000000000000000e+00,1.000000000000000000e+00,1.000000000000000000e+00,6.200000000000000000e+01,2.578800000000000000e+04,2.425949573516845703e-01,1.524142026901245117e+00,3.016375595278634747e-01,0.000000000000000000e+00
1.000000000000000000e+00,1.000000000000000000e+00,1.000000000000000000e+00,6.500000000000000000e+01,2.585300000000000000e+04,3.313410282135009766e-01,2.054758071899414062e+00,7.226901101871532340e-01,0.000000000000000000e+00
1.000000000000000000e+00,1.000000000000000000e+00,1.000000000000000000e+00,6.100000000000000000e+01,2.591400000000000000e+04,2.764198780059814453e-01,1.583005189895629883e+00,3.228671156873021419e-01,0.000000000000000000e+00
0.000000000000000000e+00,1.000000000000000000e+00,0.000000000000000000e+00,6.600000000000000000e+01,2.598000000000000000e+04,3.472149372100830078e-01,2.029207944869995117e+00,6.850810754295911797e-01,0.000000000000000000e+00
1.000000000000000000e+00,1.000000000000000000e+00,1.000000000000000000e+00,6.600000000000000000e+01,2.604600000000000000e+04,2.428779602050781250e-01,1.648648977279663086e+00,4.174330403219995711e-01,0.000000000000000000e+00
0.000000000000000000e+00,1.000000000000000000e+00,0.000000000000000000e+00,6.000000000000000000e+01,2.610600000000000000e+04,2.948930263519287109e-01,1.562483787536621094e+00,2.801535163387221528e-01,0.000000000000000000e+00
1.000000000000000000e+00,1.000000000000000000e+00,1.000000000000000000e+00,6.100000000000000000e+01,2.616700000000000000e+04,3.359689712524414062e-01,1.715299129486083984e+00,3.953946608818391661e-01,0.000000000000000000e+00
1.000000000000000000e+00,1.000000000000000000e+00,1.000000000000000000e+00,6.000000000000000000e+01,2.622700000000000000e+04,3.363571166992187500e-01,1.793754100799560547e+00,4.724453427186288690e-01,0.000000000000000000e+00
1.000000000000000000e+00,1.000000000000000000e+00,1.000000000000000000e+00,6.400000000000000000e+01,2.629100000000000000e+04,2.823741436004638672e-01,1.746080875396728516e+00,4.686091893351334581e-01,0.000000000000000000e+00
1.000000000000000000e+00,1.000000000000000000e+00,1.000000000000000000e+00,6.300000000000000000e+01,2.635400000000000000e+04,2.685298919677734375e-01,1.533737182617187500e+00,2.692895524484877345e-01,0.000000000000000000e+00
0.000000000000000000e+00,0.000000000000000000e+00,1.000000000000000000e+00,3.300000000000000000e+01,2.638700000000000000e+04,5.192649364471435547e-01,2.039196014404296875e+00,5.249517649609893866e-01,1.000000000000000000e+00
1.000000000000000000e+00,1.000000000000000000e+00,1.000000000000000000e+00,6.500000000000000000e+01,2.645200000000000000e+04,2.660601139068603516e-01,1.883366823196411133e+00,6.249635498037386938e-01,0.000000000000000000e+00
0.000000000000000000e+00,1.000000000000000000e+00,0.000000000000000000e+00,7.000000000000000000e+01,2.652200000000000000e+04,3.566691875457763672e-01,2.055052995681762695e+00,7.133627578018957305e-01,0.000000000000000000e+00
0.000000000000000000e+00,1.000000000000000000e+00,0.000000000000000000e+00,6.600000000000000000e+01,2.658800000000000000e+04,2.408201694488525391e-01,1.646765947341918945e+00,4.271556392660398882e-01,0.000000000000000000e+00
0.000000000000000000e+00,1.000000000000000000e+00,0.000000000000000000e+00,6.000000000000000000e+01,2.664800000000000000e+04,2.468090057373046875e-01,1.732597112655639648e+00,4.930889764337652026e-01,0.000000000000000000e+00
1.000000000000000000e+00,1.000000000000000000e+00,1.000000000000000000e+00,6.500000000000000000e+01,2.671300000000000000e+04,3.295149803161621094e-01,1.822160005569458008e+00,4.986488169417632177e-01,0.000000000000000000e+00
1.000000000000000000e+00,1.000000000000000000e+00,1.000000000000000000e+00,6.600000000000000000e+01,2.677900000000000000e+04,3.073151111602783203e-01,1.783075094223022461e+00,4.817982631683992434e-01,0.000000000000000000e+00
0.000000000000000000e+00,1.000000000000000000e+00,0.000000000000000000e+00,6.900000000000000000e+01,2.684800000000000000e+04,3.387129306793212891e-01,1.920804977416992188e+00,6.026034418851002883e-01,0.000000000000000000e+00
0.000000000000000000e+00,1.000000000000000000e+00,0.000000000000000000e+00,6.300000000000000000e+01,2.691100000000000000e+04,2.584061622619628906e-01,1.626281023025512695e+00,3.791786825581937581e-01,0.000000000000000000e+00
1.000000000000000000e+00,1.000000000000000000e+00,1.000000000000000000e+00,6.400000000000000000e+01,2.697500000000000000e+04,3.628308773040771484e-01,1.611963987350463867e+00,2.579840685722528115e-01,0.000000000000000000e+00
