choice, accuracy, solution,  reward, cumulative_reward, rt,  total_trial_time, iti, cp_with_slow_fast
0.000000000000000000e+00,0.000000000000000000e+00,1.000000000000000000e+00,4.600000000000000000e+01,4.600000000000000000e+01,7.279000282287597656e-01,2.998725891113281250e+01,4.463714568081685319e-01,0.000000000000000000e+00
1.000000000000000000e+00,0.000000000000000000e+00,0.000000000000000000e+00,4.700000000000000000e+01,9.300000000000000000e+01,4.885008335113525391e-01,2.168282985687255859e+00,6.977893747001000513e-01,0.000000000000000000e+00
1.000000000000000000e+00,1.000000000000000000e+00,1.000000000000000000e+00,5.000000000000000000e+01,1.430000000000000000e+02,3.898570537567138672e-01,1.850883007049560547e+00,4.822122646998118212e-01,0.000000000000000000e+00
1.000000000000000000e+00,1.000000000000000000e+00,1.000000000000000000e+00,5.500000000000000000e+01,1.980000000000000000e+02,3.382117748260498047e-01,1.956989049911499023e+00,6.224991496290881443e-01,0.000000000000000000e+00
1.000000000000000000e+00,1.000000000000000000e+00,1.000000000000000000e+00,5.400000000000000000e+01,2.520000000000000000e+02,2.782459259033203125e-01,1.683405160903930664e+00,4.060739557356602414e-01,0.000000000000000000e+00
1.000000000000000000e+00,1.000000000000000000e+00,1.000000000000000000e+00,5.400000000000000000e+01,3.060000000000000000e+02,2.881088256835937500e-01,1.617478847503662109e+00,3.403154471416470206e-01,0.000000000000000000e+00
1.000000000000000000e+00,1.000000000000000000e+00,1.000000000000000000e+00,5.500000000000000000e+01,3.610000000000000000e+02,2.733960151672363281e-01,1.926990032196044922e+00,6.669835552598259998e-01,0.000000000000000000e+00
1.000000000000000000e+00,1.000000000000000000e+00,1.000000000000000000e+00,5.600000000000000000e+01,4.170000000000000000e+02,2.911219596862792969e-01,1.589200019836425781e+00,3.065739133846326347e-01,0.000000000000000000e+00
0.000000000000000000e+00,1.000000000000000000e+00,0.000000000000000000e+00,5.400000000000000000e+01,4.710000000000000000e+02,5.038490295410156250e-01,2.082713127136230469e+00,5.893775011065103264e-01,0.000000000000000000e+00
0.000000000000000000e+00,1.000000000000000000e+00,0.000000000000000000e+00,5.200000000000000000e+01,5.230000000000000000e+02,3.076450824737548828e-01,1.867783069610595703e+00,5.735227525776211976e-01,0.000000000000000000e+00
1.000000000000000000e+00,1.000000000000000000e+00,1.000000000000000000e+00,5.700000000000000000e+01,5.800000000000000000e+02,2.920410633087158203e-01,1.656952857971191406e+00,3.806541259368232399e-01,0.000000000000000000e+00
1.000000000000000000e+00,1.000000000000000000e+00,1.000000000000000000e+00,5.100000000000000000e+01,6.310000000000000000e+02,3.440620899200439453e-01,2.060546159744262695e+00,7.242449739447380797e-01,0.000000000000000000e+00
1.000000000000000000e+00,1.000000000000000000e+00,1.000000000000000000e+00,5.000000000000000000e+01,6.810000000000000000e+02,3.314650058746337891e-01,1.707560062408447266e+00,3.821689026740986983e-01,0.000000000000000000e+00
0.000000000000000000e+00,1.000000000000000000e+00,0.000000000000000000e+00,5.300000000000000000e+01,7.340000000000000000e+02,3.898479938507080078e-01,1.874695062637329102e+00,4.901221909896122386e-01,0.000000000000000000e+00
0.000000000000000000e+00,1.000000000000000000e+00,0.000000000000000000e+00,5.300000000000000000e+01,7.870000000000000000e+02,3.112778663635253906e-01,1.858279943466186523e+00,5.649989126740087020e-01,0.000000000000000000e+00
1.000000000000000000e+00,1.000000000000000000e+00,1.000000000000000000e+00,5.200000000000000000e+01,8.390000000000000000e+02,2.603130340576171875e-01,1.767005920410156250e+00,5.320787598056533341e-01,0.000000000000000000e+00
0.000000000000000000e+00,1.000000000000000000e+00,0.000000000000000000e+00,5.400000000000000000e+01,8.930000000000000000e+02,2.900531291961669922e-01,1.801305055618286133e+00,5.167620993189940837e-01,0.000000000000000000e+00
1.000000000000000000e+00,1.000000000000000000e+00,1.000000000000000000e+00,5.500000000000000000e+01,9.480000000000000000e+02,3.321280479431152344e-01,1.762717008590698242e+00,4.296217772072025154e-01,0.000000000000000000e+00
1.000000000000000000e+00,1.000000000000000000e+00,1.000000000000000000e+00,5.500000000000000000e+01,1.003000000000000000e+03,2.671129703521728516e-01,1.853904962539672852e+00,6.000504433611546506e-01,0.000000000000000000e+00
0.000000000000000000e+00,1.000000000000000000e+00,0.000000000000000000e+00,5.600000000000000000e+01,1.059000000000000000e+03,3.175940513610839844e-01,1.928822994232177734e+00,6.121787115641914578e-01,0.000000000000000000e+00
1.000000000000000000e+00,1.000000000000000000e+00,1.000000000000000000e+00,5.200000000000000000e+01,1.111000000000000000e+03,2.109389305114746094e-01,1.883203983306884766e+00,6.953053643674211859e-01,0.000000000000000000e+00
0.000000000000000000e+00,1.000000000000000000e+00,0.000000000000000000e+00,5.100000000000000000e+01,1.162000000000000000e+03,2.866828441619873047e-01,1.546454191207885742e+00,2.756017259977154854e-01,0.000000000000000000e+00
1.000000000000000000e+00,1.000000000000000000e+00,1.000000000000000000e+00,5.000000000000000000e+01,1.212000000000000000e+03,3.128089904785156250e-01,1.611253023147583008e+00,3.035051365375012744e-01,0.000000000000000000e+00
1.000000000000000000e+00,0.000000000000000000e+00,0.000000000000000000e+00,4.600000000000000000e+01,1.258000000000000000e+03,4.252698421478271484e-01,1.887544870376586914e+00,4.742139715943760603e-01,0.000000000000000000e+00
1.000000000000000000e+00,1.000000000000000000e+00,1.000000000000000000e+00,5.600000000000000000e+01,1.314000000000000000e+03,3.830158710479736328e-01,2.036370038986206055e+00,6.604237203142734325e-01,0.000000000000000000e+00
1.000000000000000000e+00,1.000000000000000000e+00,1.000000000000000000e+00,5.200000000000000000e+01,1.366000000000000000e+03,2.757289409637451172e-01,1.511508941650390625e+00,2.557002876908824884e-01,0.000000000000000000e+00
0.000000000000000000e+00,1.000000000000000000e+00,0.000000000000000000e+00,5.300000000000000000e+01,1.419000000000000000e+03,3.950049877166748047e-01,1.880686998367309570e+00,4.861853906631500855e-01,0.000000000000000000e+00
0.000000000000000000e+00,1.000000000000000000e+00,0.000000000000000000e+00,5.400000000000000000e+01,1.473000000000000000e+03,2.907719612121582031e-01,1.917145967483520508e+00,6.365452828549209574e-01,0.000000000000000000e+00
0.000000000000000000e+00,1.000000000000000000e+00,0.000000000000000000e+00,5.600000000000000000e+01,1.529000000000000000e+03,2.432010173797607422e-01,1.718050003051757812e+00,4.880763003382757592e-01,0.000000000000000000e+00
0.000000000000000000e+00,1.000000000000000000e+00,0.000000000000000000e+00,5.400000000000000000e+01,1.583000000000000000e+03,2.424979209899902344e-01,1.854903936386108398e+00,6.262304491045107557e-01,0.000000000000000000e+00
0.000000000000000000e+00,1.000000000000000000e+00,0.000000000000000000e+00,5.500000000000000000e+01,1.638000000000000000e+03,2.285320758819580078e-01,1.924365997314453125e+00,7.005471694046665476e-01,0.000000000000000000e+00
0.000000000000000000e+00,1.000000000000000000e+00,0.000000000000000000e+00,5.000000000000000000e+01,1.688000000000000000e+03,2.474310398101806641e-01,1.976434946060180664e+00,7.269804429820880820e-01,0.000000000000000000e+00
0.000000000000000000e+00,1.000000000000000000e+00,0.000000000000000000e+00,5.400000000000000000e+01,1.742000000000000000e+03,2.487518787384033203e-01,1.549659013748168945e+00,3.104160558053625785e-01,0.000000000000000000e+00
0.000000000000000000e+00,1.000000000000000000e+00,0.000000000000000000e+00,5.300000000000000000e+01,1.795000000000000000e+03,3.138239383697509766e-01,1.685418128967285156e+00,3.791215803383110039e-01,0.000000000000000000e+00
0.000000000000000000e+00,1.000000000000000000e+00,0.000000000000000000e+00,5.100000000000000000e+01,1.846000000000000000e+03,2.444968223571777344e-01,1.968138933181762695e+00,7.302530455476119453e-01,0.000000000000000000e+00
0.000000000000000000e+00,1.000000000000000000e+00,0.000000000000000000e+00,5.600000000000000000e+01,1.902000000000000000e+03,2.349321842193603516e-01,1.501926183700561523e+00,2.826940280833920571e-01,0.000000000000000000e+00
0.000000000000000000e+00,0.000000000000000000e+00,1.000000000000000000e+00,5.000000000000000000e+01,1.952000000000000000e+03,4.372980594635009766e-01,2.105956077575683594e+00,6.715794832441498441e-01,0.000000000000000000e+00
1.000000000000000000e+00,1.000000000000000000e+00,1.000000000000000000e+00,5.600000000000000000e+01,2.008000000000000000e+03,2.264540195465087891e-01,1.609732866287231445e+00,3.983270659214372400e-01,0.000000000000000000e+00
1.000000000000000000e+00,0.000000000000000000e+00,0.000000000000000000e+00,4.400000000000000000e+01,2.052000000000000000e+03,6.384410858154296875e-01,2.234199047088623047e+00,6.156294996964544186e-01,0.000000000000000000e+00
1.000000000000000000e+00,1.000000000000000000e+00,1.000000000000000000e+00,5.200000000000000000e+01,2.104000000000000000e+03,4.145269393920898438e-01,1.705497980117797852e+00,2.881854791080467604e-01,0.000000000000000000e+00
0.000000000000000000e+00,1.000000000000000000e+00,0.000000000000000000e+00,5.200000000000000000e+01,2.156000000000000000e+03,3.476181030273437500e-01,1.867662191390991211e+00,5.222667557997253684e-01,0.000000000000000000e+00
0.000000000000000000e+00,1.000000000000000000e+00,0.000000000000000000e+00,5.500000000000000000e+01,2.211000000000000000e+03,3.129930496215820312e-01,1.839716911315917969e+00,5.287197992905245947e-01,0.000000000000000000e+00
1.000000000000000000e+00,1.000000000000000000e+00,1.000000000000000000e+00,5.000000000000000000e+01,2.261000000000000000e+03,3.346879482269287109e-01,1.609560966491699219e+00,2.885355342827931047e-01,0.000000000000000000e+00
1.000000000000000000e+00,1.000000000000000000e+00,1.000000000000000000e+00,5.200000000000000000e+01,2.313000000000000000e+03,3.441028594970703125e-01,2.043486833572387695e+00,6.982707243512147333e-01,0.000000000000000000e+00
1.000000000000000000e+00,1.000000000000000000e+00,1.000000000000000000e+00,5.100000000000000000e+01,2.364000000000000000e+03,2.848379611968994141e-01,1.676661968231201172e+00,4.086199278449451633e-01,0.000000000000000000e+00
1.000000000000000000e+00,1.000000000000000000e+00,1.000000000000000000e+00,5.300000000000000000e+01,2.417000000000000000e+03,3.415720462799072266e-01,1.732445001602172852e+00,4.077991417374179917e-01,0.000000000000000000e+00
0.000000000000000000e+00,1.000000000000000000e+00,0.000000000000000000e+00,5.700000000000000000e+01,2.474000000000000000e+03,3.832938671112060547e-01,1.914940118789672852e+00,5.392902166986704993e-01,0.000000000000000000e+00
1.000000000000000000e+00,1.000000000000000000e+00,1.000000000000000000e+00,5.200000000000000000e+01,2.526000000000000000e+03,3.597059249877929688e-01,2.057523012161254883e+00,7.133220869823958532e-01,0.000000000000000000e+00
0.000000000000000000e+00,1.000000000000000000e+00,0.000000000000000000e+00,5.400000000000000000e+01,2.580000000000000000e+03,3.647370338439941406e-01,1.889419078826904297e+00,5.362658518809608754e-01,0.000000000000000000e+00
0.000000000000000000e+00,1.000000000000000000e+00,0.000000000000000000e+00,5.500000000000000000e+01,2.635000000000000000e+03,3.718430995941162109e-01,1.975862979888916016e+00,6.121278575760915608e-01,0.000000000000000000e+00
1.000000000000000000e+00,1.000000000000000000e+00,1.000000000000000000e+00,5.200000000000000000e+01,2.687000000000000000e+03,2.831909656524658203e-01,1.586402893066406250e+00,3.155214803968680037e-01,0.000000000000000000e+00
0.000000000000000000e+00,1.000000000000000000e+00,0.000000000000000000e+00,5.500000000000000000e+01,2.742000000000000000e+03,2.875339984893798828e-01,1.617814064025878906e+00,3.167038645645945394e-01,0.000000000000000000e+00
1.000000000000000000e+00,1.000000000000000000e+00,1.000000000000000000e+00,5.500000000000000000e+01,2.797000000000000000e+03,3.095979690551757812e-01,1.741260051727294922e+00,4.411606523778306976e-01,0.000000000000000000e+00
0.000000000000000000e+00,1.000000000000000000e+00,0.000000000000000000e+00,5.100000000000000000e+01,2.848000000000000000e+03,2.223010063171386719e-01,1.785517930984497070e+00,5.765540521549131769e-01,0.000000000000000000e+00
1.000000000000000000e+00,1.000000000000000000e+00,1.000000000000000000e+00,5.100000000000000000e+01,2.899000000000000000e+03,2.210750579833984375e-01,1.574882030487060547e+00,3.683691715861556193e-01,0.000000000000000000e+00
1.000000000000000000e+00,1.000000000000000000e+00,1.000000000000000000e+00,5.200000000000000000e+01,2.951000000000000000e+03,3.017590045928955078e-01,1.998417139053344727e+00,6.998377051593380749e-01,0.000000000000000000e+00
1.000000000000000000e+00,1.000000000000000000e+00,1.000000000000000000e+00,5.000000000000000000e+01,3.001000000000000000e+03,1.878101825714111328e-01,1.858342885971069336e+00,6.748740214040573893e-01,0.000000000000000000e+00
1.000000000000000000e+00,0.000000000000000000e+00,0.000000000000000000e+00,4.800000000000000000e+01,3.049000000000000000e+03,2.659080028533935547e-01,1.677587032318115234e+00,4.194329471572114110e-01,0.000000000000000000e+00
1.000000000000000000e+00,1.000000000000000000e+00,1.000000000000000000e+00,5.300000000000000000e+01,3.102000000000000000e+03,3.836560249328613281e-01,1.748332023620605469e+00,3.678312447912585048e-01,0.000000000000000000e+00
1.000000000000000000e+00,1.000000000000000000e+00,1.000000000000000000e+00,5.300000000000000000e+01,3.155000000000000000e+03,3.077340126037597656e-01,1.985491037368774414e+00,6.863655330183472403e-01,0.000000000000000000e+00
1.000000000000000000e+00,1.000000000000000000e+00,1.000000000000000000e+00,5.100000000000000000e+01,3.206000000000000000e+03,2.554440498352050781e-01,1.740664958953857422e+00,4.939366266919429926e-01,0.000000000000000000e+00
1.000000000000000000e+00,1.000000000000000000e+00,1.000000000000000000e+00,5.000000000000000000e+01,3.256000000000000000e+03,2.092239856719970703e-01,1.798645019531250000e+00,6.092079460122009626e-01,0.000000000000000000e+00
1.000000000000000000e+00,1.000000000000000000e+00,1.000000000000000000e+00,5.600000000000000000e+01,3.312000000000000000e+03,2.662518024444580078e-01,1.751788854598999023e+00,4.944116299402672166e-01,0.000000000000000000e+00
1.000000000000000000e+00,1.000000000000000000e+00,1.000000000000000000e+00,5.100000000000000000e+01,3.363000000000000000e+03,2.204070091247558594e-01,1.849442005157470703e+00,6.437195976882360560e-01,0.000000000000000000e+00
0.000000000000000000e+00,1.000000000000000000e+00,0.000000000000000000e+00,5.200000000000000000e+01,3.415000000000000000e+03,4.053719043731689453e-01,1.764499902725219727e+00,3.752080412833003198e-01,0.000000000000000000e+00
0.000000000000000000e+00,1.000000000000000000e+00,0.000000000000000000e+00,5.500000000000000000e+01,3.470000000000000000e+03,2.937760353088378906e-01,1.766673088073730469e+00,4.917962430143635877e-01,0.000000000000000000e+00
0.000000000000000000e+00,1.000000000000000000e+00,0.000000000000000000e+00,5.600000000000000000e+01,3.526000000000000000e+03,2.711398601531982422e-01,1.713815927505493164e+00,4.557050117028677572e-01,0.000000000000000000e+00
0.000000000000000000e+00,1.000000000000000000e+00,0.000000000000000000e+00,5.200000000000000000e+01,3.578000000000000000e+03,2.665760517120361328e-01,1.980786085128784180e+00,7.195851512976102482e-01,0.000000000000000000e+00
0.000000000000000000e+00,1.000000000000000000e+00,0.000000000000000000e+00,5.300000000000000000e+01,3.631000000000000000e+03,2.583978176116943359e-01,1.727699995040893555e+00,4.808999358056333384e-01,0.000000000000000000e+00
1.000000000000000000e+00,1.000000000000000000e+00,1.000000000000000000e+00,5.300000000000000000e+01,3.684000000000000000e+03,3.967540264129638672e-01,1.642915964126586914e+00,2.574200756716375493e-01,0.000000000000000000e+00
1.000000000000000000e+00,1.000000000000000000e+00,1.000000000000000000e+00,5.200000000000000000e+01,3.736000000000000000e+03,3.226959705352783203e-01,1.891175985336303711e+00,5.816116600555705229e-01,0.000000000000000000e+00
1.000000000000000000e+00,0.000000000000000000e+00,0.000000000000000000e+00,4.500000000000000000e+01,3.781000000000000000e+03,2.764351367950439453e-01,1.603554010391235352e+00,3.520785150778991679e-01,0.000000000000000000e+00
0.000000000000000000e+00,1.000000000000000000e+00,0.000000000000000000e+00,5.000000000000000000e+01,3.831000000000000000e+03,3.218901157379150391e-01,2.049812078475952148e+00,7.348438063346804938e-01,0.000000000000000000e+00
0.000000000000000000e+00,1.000000000000000000e+00,0.000000000000000000e+00,5.500000000000000000e+01,3.886000000000000000e+03,3.149580955505371094e-01,1.620956182479858398e+00,3.063552402030625954e-01,0.000000000000000000e+00
1.000000000000000000e+00,1.000000000000000000e+00,1.000000000000000000e+00,5.100000000000000000e+01,3.937000000000000000e+03,3.013229370117187500e-01,1.842626810073852539e+00,5.487419717456981649e-01,0.000000000000000000e+00
0.000000000000000000e+00,1.000000000000000000e+00,0.000000000000000000e+00,5.200000000000000000e+01,3.989000000000000000e+03,3.333950042724609375e-01,2.040031909942626953e+00,7.052955644458358542e-01,0.000000000000000000e+00
1.000000000000000000e+00,1.000000000000000000e+00,1.000000000000000000e+00,5.100000000000000000e+01,4.040000000000000000e+03,2.371380329132080078e-01,1.977164983749389648e+00,7.491216702181258125e-01,0.000000000000000000e+00
0.000000000000000000e+00,1.000000000000000000e+00,0.000000000000000000e+00,5.600000000000000000e+01,4.096000000000000000e+03,2.648291587829589844e-01,1.770157814025878906e+00,5.029098810329006852e-01,0.000000000000000000e+00
0.000000000000000000e+00,1.000000000000000000e+00,0.000000000000000000e+00,5.000000000000000000e+01,4.146000000000000000e+03,3.153271675109863281e-01,1.805653810501098633e+00,4.919172019435371079e-01,0.000000000000000000e+00
0.000000000000000000e+00,1.000000000000000000e+00,0.000000000000000000e+00,5.400000000000000000e+01,4.200000000000000000e+03,3.073821067810058594e-01,1.598050832748413086e+00,3.068813571544347085e-01,0.000000000000000000e+00
0.000000000000000000e+00,1.000000000000000000e+00,0.000000000000000000e+00,5.700000000000000000e+01,4.257000000000000000e+03,3.163771629333496094e-01,2.049399137496948242e+00,7.392083502738117096e-01,0.000000000000000000e+00
0.000000000000000000e+00,0.000000000000000000e+00,1.000000000000000000e+00,4.900000000000000000e+01,4.306000000000000000e+03,2.554669380187988281e-01,1.934870004653930664e+00,6.908283970863973167e-01,0.000000000000000000e+00
1.000000000000000000e+00,1.000000000000000000e+00,1.000000000000000000e+00,5.100000000000000000e+01,4.357000000000000000e+03,3.001718521118164062e-01,1.852488040924072266e+00,5.601538163904455914e-01,0.000000000000000000e+00
0.000000000000000000e+00,1.000000000000000000e+00,0.000000000000000000e+00,5.400000000000000000e+01,4.411000000000000000e+03,3.242380619049072266e-01,1.807918071746826172e+00,5.014816569867370788e-01,0.000000000000000000e+00
0.000000000000000000e+00,1.000000000000000000e+00,0.000000000000000000e+00,5.500000000000000000e+01,4.466000000000000000e+03,2.827091217041015625e-01,2.024348020553588867e+00,7.422992421560008491e-01,0.000000000000000000e+00
1.000000000000000000e+00,1.000000000000000000e+00,1.000000000000000000e+00,5.200000000000000000e+01,4.518000000000000000e+03,2.811319828033447266e-01,1.684801101684570312e+00,4.107954007660180040e-01,0.000000000000000000e+00
1.000000000000000000e+00,1.000000000000000000e+00,1.000000000000000000e+00,5.200000000000000000e+01,4.570000000000000000e+03,3.208580017089843750e-01,2.036813020706176758e+00,7.306799875693870128e-01,0.000000000000000000e+00
1.000000000000000000e+00,1.000000000000000000e+00,1.000000000000000000e+00,5.300000000000000000e+01,4.623000000000000000e+03,2.785818576812744141e-01,1.856566905975341797e+00,5.874048655636099348e-01,0.000000000000000000e+00
1.000000000000000000e+00,1.000000000000000000e+00,1.000000000000000000e+00,5.000000000000000000e+01,4.673000000000000000e+03,3.220310211181640625e-01,1.950822830200195312e+00,6.382297986919607258e-01,0.000000000000000000e+00
1.000000000000000000e+00,0.000000000000000000e+00,0.000000000000000000e+00,4.800000000000000000e+01,4.721000000000000000e+03,4.560070037841796875e-01,1.876223087310791016e+00,4.313450692907455086e-01,0.000000000000000000e+00
0.000000000000000000e+00,1.000000000000000000e+00,0.000000000000000000e+00,5.000000000000000000e+01,4.771000000000000000e+03,3.873250484466552734e-01,2.024121999740600586e+00,6.552977738206462455e-01,0.000000000000000000e+00
1.000000000000000000e+00,1.000000000000000000e+00,1.000000000000000000e+00,5.200000000000000000e+01,4.823000000000000000e+03,3.461639881134033203e-01,1.727138996124267578e+00,3.827762737090649736e-01,0.000000000000000000e+00
0.000000000000000000e+00,1.000000000000000000e+00,0.000000000000000000e+00,5.500000000000000000e+01,4.878000000000000000e+03,3.860189914703369141e-01,1.780326843261718750e+00,3.964332412647571524e-01,0.000000000000000000e+00
0.000000000000000000e+00,0.000000000000000000e+00,1.000000000000000000e+00,4.400000000000000000e+01,4.922000000000000000e+03,2.853510379791259766e-01,2.011748790740966797e+00,7.412057391872146628e-01,1.000000000000000000e+00
1.000000000000000000e+00,1.000000000000000000e+00,1.000000000000000000e+00,5.000000000000000000e+01,4.972000000000000000e+03,2.127139568328857422e-01,1.667349815368652344e+00,4.588725067793635870e-01,0.000000000000000000e+00
0.000000000000000000e+00,1.000000000000000000e+00,0.000000000000000000e+00,5.500000000000000000e+01,5.027000000000000000e+03,3.530790805816650391e-01,1.654422044754028320e+00,3.135004938594831425e-01,0.000000000000000000e+00
1.000000000000000000e+00,1.000000000000000000e+00,1.000000000000000000e+00,5.000000000000000000e+01,5.077000000000000000e+03,3.891170024871826172e-01,1.702548027038574219e+00,3.327216106603863577e-01,0.000000000000000000e+00
1.000000000000000000e+00,0.000000000000000000e+00,0.000000000000000000e+00,4.600000000000000000e+01,5.123000000000000000e+03,3.265280723571777344e-01,2.006238222122192383e+00,6.886137249293844409e-01,0.000000000000000000e+00
1.000000000000000000e+00,1.000000000000000000e+00,1.000000000000000000e+00,5.400000000000000000e+01,5.177000000000000000e+03,6.286339759826660156e-01,2.128450870513916016e+00,5.006570075914389406e-01,0.000000000000000000e+00
1.000000000000000000e+00,1.000000000000000000e+00,1.000000000000000000e+00,5.500000000000000000e+01,5.232000000000000000e+03,3.883910179138183594e-01,1.888725996017456055e+00,5.060763593803967453e-01,0.000000000000000000e+00
1.000000000000000000e+00,1.000000000000000000e+00,1.000000000000000000e+00,5.500000000000000000e+01,5.287000000000000000e+03,2.540860176086425781e-01,1.544588088989257812e+00,3.009029731982253986e-01,0.000000000000000000e+00
1.000000000000000000e+00,1.000000000000000000e+00,1.000000000000000000e+00,5.400000000000000000e+01,5.341000000000000000e+03,2.851281166076660156e-01,1.545232057571411133e+00,2.628774277155761507e-01,0.000000000000000000e+00
0.000000000000000000e+00,1.000000000000000000e+00,0.000000000000000000e+00,5.400000000000000000e+01,5.395000000000000000e+03,4.398591518402099609e-01,2.099005937576293945e+00,6.781470037844736787e-01,0.000000000000000000e+00
0.000000000000000000e+00,1.000000000000000000e+00,0.000000000000000000e+00,5.300000000000000000e+01,5.448000000000000000e+03,2.609469890594482422e-01,1.885871887207031250e+00,6.474328829321371881e-01,0.000000000000000000e+00
1.000000000000000000e+00,1.000000000000000000e+00,1.000000000000000000e+00,5.500000000000000000e+01,5.503000000000000000e+03,2.876758575439453125e-01,1.687309980392456055e+00,4.183595023469199869e-01,0.000000000000000000e+00
0.000000000000000000e+00,1.000000000000000000e+00,0.000000000000000000e+00,5.100000000000000000e+01,5.554000000000000000e+03,3.247900009155273438e-01,1.787892103195190430e+00,4.728706539422086186e-01,0.000000000000000000e+00
1.000000000000000000e+00,1.000000000000000000e+00,1.000000000000000000e+00,5.200000000000000000e+01,5.606000000000000000e+03,4.015619754791259766e-01,1.829879045486450195e+00,4.362094153644037187e-01,0.000000000000000000e+00
1.000000000000000000e+00,1.000000000000000000e+00,1.000000000000000000e+00,5.300000000000000000e+01,5.659000000000000000e+03,2.972760200500488281e-01,1.571995019912719727e+00,2.750424283759971278e-01,0.000000000000000000e+00
0.000000000000000000e+00,1.000000000000000000e+00,0.000000000000000000e+00,5.200000000000000000e+01,5.711000000000000000e+03,5.166380405426025391e-01,1.820671081542968750e+00,3.123752344423064153e-01,0.000000000000000000e+00
1.000000000000000000e+00,1.000000000000000000e+00,1.000000000000000000e+00,5.500000000000000000e+01,5.766000000000000000e+03,3.879928588867187500e-01,2.022676944732666016e+00,6.514196855373510786e-01,0.000000000000000000e+00
1.000000000000000000e+00,1.000000000000000000e+00,1.000000000000000000e+00,5.700000000000000000e+01,5.823000000000000000e+03,2.567319869995117188e-01,1.888968944549560547e+00,6.403923866627450057e-01,0.000000000000000000e+00
1.000000000000000000e+00,1.000000000000000000e+00,1.000000000000000000e+00,5.200000000000000000e+01,5.875000000000000000e+03,4.213678836822509766e-01,1.716883182525634766e+00,3.076742468991377488e-01,0.000000000000000000e+00
1.000000000000000000e+00,1.000000000000000000e+00,1.000000000000000000e+00,5.400000000000000000e+01,5.929000000000000000e+03,2.658579349517822266e-01,1.923451900482177734e+00,6.641265243522320727e-01,0.000000000000000000e+00
0.000000000000000000e+00,1.000000000000000000e+00,0.000000000000000000e+00,5.200000000000000000e+01,5.981000000000000000e+03,3.812241554260253906e-01,2.032891988754272461e+00,6.637377910139605763e-01,0.000000000000000000e+00
1.000000000000000000e+00,1.000000000000000000e+00,1.000000000000000000e+00,5.000000000000000000e+01,6.031000000000000000e+03,3.940179347991943359e-01,1.701311826705932617e+00,3.321067915724255082e-01,0.000000000000000000e+00
0.000000000000000000e+00,1.000000000000000000e+00,0.000000000000000000e+00,5.500000000000000000e+01,6.086000000000000000e+03,3.383820056915283203e-01,1.628213167190551758e+00,2.937392375954283041e-01,0.000000000000000000e+00
0.000000000000000000e+00,1.000000000000000000e+00,0.000000000000000000e+00,5.100000000000000000e+01,6.137000000000000000e+03,3.217961788177490234e-01,1.567501068115234375e+00,2.612875758053457842e-01,0.000000000000000000e+00
0.000000000000000000e+00,1.000000000000000000e+00,0.000000000000000000e+00,5.300000000000000000e+01,6.190000000000000000e+03,2.840940952301025391e-01,1.765230894088745117e+00,4.929929911553280752e-01,0.000000000000000000e+00
1.000000000000000000e+00,1.000000000000000000e+00,1.000000000000000000e+00,5.600000000000000000e+01,6.246000000000000000e+03,3.764982223510742188e-01,2.016980171203613281e+00,6.598367774056096424e-01,0.000000000000000000e+00
0.000000000000000000e+00,1.000000000000000000e+00,0.000000000000000000e+00,5.500000000000000000e+01,6.301000000000000000e+03,2.919280529022216797e-01,1.614372014999389648e+00,3.412387042072202448e-01,0.000000000000000000e+00
0.000000000000000000e+00,1.000000000000000000e+00,0.000000000000000000e+00,5.600000000000000000e+01,6.357000000000000000e+03,3.353171348571777344e-01,1.727513790130615234e+00,4.020649447803009702e-01,0.000000000000000000e+00
0.000000000000000000e+00,1.000000000000000000e+00,0.000000000000000000e+00,5.300000000000000000e+01,6.410000000000000000e+03,3.100268840789794922e-01,1.590667009353637695e+00,2.762355563626670563e-01,0.000000000000000000e+00
1.000000000000000000e+00,1.000000000000000000e+00,1.000000000000000000e+00,5.000000000000000000e+01,6.460000000000000000e+03,4.168879985809326172e-01,2.098101854324340820e+00,6.906030149663398010e-01,0.000000000000000000e+00
1.000000000000000000e+00,1.000000000000000000e+00,1.000000000000000000e+00,5.600000000000000000e+01,6.516000000000000000e+03,3.479650020599365234e-01,2.063107013702392578e+00,7.203892066634240976e-01,0.000000000000000000e+00
0.000000000000000000e+00,1.000000000000000000e+00,0.000000000000000000e+00,5.700000000000000000e+01,6.573000000000000000e+03,3.492741584777832031e-01,1.989800930023193359e+00,6.436460365554745877e-01,0.000000000000000000e+00
1.000000000000000000e+00,1.000000000000000000e+00,1.000000000000000000e+00,5.100000000000000000e+01,6.624000000000000000e+03,2.450828552246093750e-01,1.730260848999023438e+00,4.908178682568531404e-01,0.000000000000000000e+00
0.000000000000000000e+00,1.000000000000000000e+00,0.000000000000000000e+00,5.500000000000000000e+01,6.679000000000000000e+03,3.577930927276611328e-01,1.908121824264526367e+00,5.655023241250747290e-01,0.000000000000000000e+00
1.000000000000000000e+00,1.000000000000000000e+00,1.000000000000000000e+00,5.700000000000000000e+01,6.736000000000000000e+03,2.131872177124023438e-01,1.828095912933349609e+00,6.102657786787433203e-01,0.000000000000000000e+00
1.000000000000000000e+00,1.000000000000000000e+00,1.000000000000000000e+00,5.100000000000000000e+01,6.787000000000000000e+03,3.175520896911621094e-01,1.613732099533081055e+00,3.076889676555949471e-01,0.000000000000000000e+00
0.000000000000000000e+00,1.000000000000000000e+00,0.000000000000000000e+00,5.200000000000000000e+01,6.839000000000000000e+03,4.019749164581298828e-01,1.776285886764526367e+00,3.839525337652790471e-01,0.000000000000000000e+00
1.000000000000000000e+00,1.000000000000000000e+00,1.000000000000000000e+00,6.200000000000000000e+01,6.901000000000000000e+03,2.457327842712402344e-01,1.802802085876464844e+00,5.533144569948487135e-01,0.000000000000000000e+00
1.000000000000000000e+00,1.000000000000000000e+00,1.000000000000000000e+00,5.400000000000000000e+01,6.955000000000000000e+03,2.737960815429687500e-01,1.783741950988769531e+00,5.204121854433847449e-01,0.000000000000000000e+00
1.000000000000000000e+00,1.000000000000000000e+00,1.000000000000000000e+00,5.600000000000000000e+01,7.011000000000000000e+03,2.975230216979980469e-01,1.981872797012329102e+00,6.854739481358871345e-01,0.000000000000000000e+00
1.000000000000000000e+00,0.000000000000000000e+00,0.000000000000000000e+00,4.700000000000000000e+01,7.058000000000000000e+03,2.092092037200927734e-01,1.491082191467285156e+00,2.937056174939323139e-01,0.000000000000000000e+00
1.000000000000000000e+00,1.000000000000000000e+00,1.000000000000000000e+00,5.300000000000000000e+01,7.111000000000000000e+03,3.748331069946289062e-01,1.660680055618286133e+00,3.044037687280528037e-01,0.000000000000000000e+00
0.000000000000000000e+00,1.000000000000000000e+00,0.000000000000000000e+00,5.400000000000000000e+01,7.165000000000000000e+03,5.432870388031005859e-01,1.815474987030029297e+00,2.866081554721848779e-01,0.000000000000000000e+00
1.000000000000000000e+00,1.000000000000000000e+00,1.000000000000000000e+00,5.200000000000000000e+01,7.217000000000000000e+03,2.407929897308349609e-01,1.858897924423217773e+00,6.285073286381706037e-01,0.000000000000000000e+00
1.000000000000000000e+00,1.000000000000000000e+00,1.000000000000000000e+00,5.500000000000000000e+01,7.272000000000000000e+03,2.627971172332763672e-01,1.663499116897583008e+00,4.089421380358562730e-01,0.000000000000000000e+00
0.000000000000000000e+00,1.000000000000000000e+00,0.000000000000000000e+00,5.300000000000000000e+01,7.325000000000000000e+03,3.471550941467285156e-01,1.661211967468261719e+00,3.202787655231551511e-01,0.000000000000000000e+00
0.000000000000000000e+00,1.000000000000000000e+00,0.000000000000000000e+00,5.200000000000000000e+01,7.377000000000000000e+03,3.195879459381103516e-01,1.946922063827514648e+00,6.335645410877910333e-01,0.000000000000000000e+00
0.000000000000000000e+00,1.000000000000000000e+00,0.000000000000000000e+00,5.100000000000000000e+01,7.428000000000000000e+03,3.606200218200683594e-01,2.056629896163940430e+00,6.901714128581022401e-01,0.000000000000000000e+00
0.000000000000000000e+00,1.000000000000000000e+00,0.000000000000000000e+00,5.300000000000000000e+01,7.481000000000000000e+03,2.407121658325195312e-01,1.885879993438720703e+00,6.594734058028303147e-01,0.000000000000000000e+00
0.000000000000000000e+00,1.000000000000000000e+00,0.000000000000000000e+00,5.400000000000000000e+01,7.535000000000000000e+03,2.404720783233642578e-01,1.584008216857910156e+00,3.605044768675434441e-01,0.000000000000000000e+00
0.000000000000000000e+00,1.000000000000000000e+00,0.000000000000000000e+00,5.200000000000000000e+01,7.587000000000000000e+03,2.602159976959228516e-01,1.616628885269165039e+00,3.604860326711643026e-01,0.000000000000000000e+00
1.000000000000000000e+00,1.000000000000000000e+00,1.000000000000000000e+00,5.200000000000000000e+01,7.639000000000000000e+03,3.146119117736816406e-01,1.961066007614135742e+00,6.546238445939294159e-01,0.000000000000000000e+00
0.000000000000000000e+00,1.000000000000000000e+00,0.000000000000000000e+00,5.600000000000000000e+01,7.695000000000000000e+03,3.080730438232421875e-01,2.014433145523071289e+00,7.190356491510331294e-01,0.000000000000000000e+00
0.000000000000000000e+00,1.000000000000000000e+00,0.000000000000000000e+00,5.400000000000000000e+01,7.749000000000000000e+03,3.083608150482177734e-01,1.761818885803222656e+00,4.645229048447894193e-01,0.000000000000000000e+00
0.000000000000000000e+00,1.000000000000000000e+00,0.000000000000000000e+00,5.100000000000000000e+01,7.800000000000000000e+03,2.844150066375732422e-01,1.877018213272094727e+00,6.080901423504880832e-01,0.000000000000000000e+00
1.000000000000000000e+00,1.000000000000000000e+00,1.000000000000000000e+00,5.100000000000000000e+01,7.851000000000000000e+03,3.670990467071533203e-01,2.011211872100830078e+00,6.526032811014398360e-01,0.000000000000000000e+00
1.000000000000000000e+00,0.000000000000000000e+00,0.000000000000000000e+00,4.500000000000000000e+01,7.896000000000000000e+03,2.625129222869873047e-01,1.569662094116210938e+00,3.060262616812197134e-01,0.000000000000000000e+00
0.000000000000000000e+00,1.000000000000000000e+00,0.000000000000000000e+00,5.200000000000000000e+01,7.948000000000000000e+03,3.309521675109863281e-01,1.680875062942504883e+00,3.535476443712975425e-01,0.000000000000000000e+00
1.000000000000000000e+00,1.000000000000000000e+00,1.000000000000000000e+00,5.300000000000000000e+01,8.001000000000000000e+03,3.507068157196044922e-01,1.981642961502075195e+00,6.348805331225866322e-01,0.000000000000000000e+00
1.000000000000000000e+00,1.000000000000000000e+00,1.000000000000000000e+00,5.200000000000000000e+01,8.053000000000000000e+03,2.534000873565673828e-01,1.736078977584838867e+00,4.878345379876320997e-01,0.000000000000000000e+00
1.000000000000000000e+00,1.000000000000000000e+00,1.000000000000000000e+00,5.100000000000000000e+01,8.104000000000000000e+03,2.270619869232177734e-01,1.696528911590576172e+00,4.844469496217155835e-01,0.000000000000000000e+00
0.000000000000000000e+00,1.000000000000000000e+00,0.000000000000000000e+00,5.200000000000000000e+01,8.156000000000000000e+03,3.561310768127441406e-01,1.848372936248779297e+00,4.995323954300489033e-01,0.000000000000000000e+00
0.000000000000000000e+00,1.000000000000000000e+00,0.000000000000000000e+00,5.300000000000000000e+01,8.209000000000000000e+03,3.013029098510742188e-01,1.949651002883911133e+00,6.490558228985534583e-01,0.000000000000000000e+00
0.000000000000000000e+00,1.000000000000000000e+00,0.000000000000000000e+00,5.300000000000000000e+01,8.262000000000000000e+03,2.593550682067871094e-01,1.600941896438598633e+00,3.503161204827912600e-01,0.000000000000000000e+00
1.000000000000000000e+00,1.000000000000000000e+00,1.000000000000000000e+00,5.000000000000000000e+01,8.312000000000000000e+03,3.173611164093017578e-01,1.576745033264160156e+00,2.605605140819993171e-01,0.000000000000000000e+00
1.000000000000000000e+00,1.000000000000000000e+00,1.000000000000000000e+00,5.100000000000000000e+01,8.363000000000000000e+03,3.457701206207275391e-01,2.051579952239990234e+00,7.117049509600159585e-01,0.000000000000000000e+00
1.000000000000000000e+00,1.000000000000000000e+00,1.000000000000000000e+00,5.100000000000000000e+01,8.414000000000000000e+03,2.918090820312500000e-01,1.887827873229980469e+00,6.162891058652704146e-01,0.000000000000000000e+00
1.000000000000000000e+00,1.000000000000000000e+00,1.000000000000000000e+00,5.300000000000000000e+01,8.467000000000000000e+03,3.708250522613525391e-01,2.063773155212402344e+00,6.967388703230119607e-01,0.000000000000000000e+00
0.000000000000000000e+00,1.000000000000000000e+00,0.000000000000000000e+00,5.300000000000000000e+01,8.520000000000000000e+03,5.410029888153076172e-01,1.800595998764038086e+00,2.811438956722192573e-01,0.000000000000000000e+00
1.000000000000000000e+00,1.000000000000000000e+00,1.000000000000000000e+00,5.600000000000000000e+01,8.576000000000000000e+03,3.510599136352539062e-01,1.733674049377441406e+00,3.980518980432892762e-01,0.000000000000000000e+00
1.000000000000000000e+00,1.000000000000000000e+00,1.000000000000000000e+00,5.500000000000000000e+01,8.631000000000000000e+03,4.067728519439697266e-01,1.856554031372070312e+00,4.712530177726966252e-01,0.000000000000000000e+00
0.000000000000000000e+00,1.000000000000000000e+00,0.000000000000000000e+00,5.300000000000000000e+01,8.684000000000000000e+03,2.872619628906250000e-01,1.916400194168090820e+00,6.375462247229128909e-01,0.000000000000000000e+00
1.000000000000000000e+00,0.000000000000000000e+00,0.000000000000000000e+00,4.400000000000000000e+01,8.728000000000000000e+03,2.265679836273193359e-01,1.473587036132812500e+00,2.615248292885867798e-01,0.000000000000000000e+00
1.000000000000000000e+00,1.000000000000000000e+00,1.000000000000000000e+00,5.300000000000000000e+01,8.781000000000000000e+03,2.930190563201904297e-01,1.624208927154541016e+00,3.523789457711620221e-01,0.000000000000000000e+00
1.000000000000000000e+00,1.000000000000000000e+00,1.000000000000000000e+00,5.600000000000000000e+01,8.837000000000000000e+03,2.996778488159179688e-01,1.921711921691894531e+00,6.238395415833862812e-01,0.000000000000000000e+00
0.000000000000000000e+00,1.000000000000000000e+00,0.000000000000000000e+00,5.500000000000000000e+01,8.892000000000000000e+03,3.911259174346923828e-01,1.876585960388183594e+00,5.005687451896716489e-01,0.000000000000000000e+00
0.000000000000000000e+00,1.000000000000000000e+00,0.000000000000000000e+00,5.300000000000000000e+01,8.945000000000000000e+03,3.628571033477783203e-01,1.627916097640991211e+00,2.621248459540300169e-01,0.000000000000000000e+00
1.000000000000000000e+00,1.000000000000000000e+00,1.000000000000000000e+00,5.300000000000000000e+01,8.998000000000000000e+03,2.932949066162109375e-01,1.609469890594482422e+00,3.382134118060449168e-01,0.000000000000000000e+00
0.000000000000000000e+00,1.000000000000000000e+00,0.000000000000000000e+00,5.700000000000000000e+01,9.055000000000000000e+03,2.586109638214111328e-01,1.870094060897827148e+00,6.247052527737786409e-01,0.000000000000000000e+00
1.000000000000000000e+00,1.000000000000000000e+00,1.000000000000000000e+00,5.100000000000000000e+01,9.106000000000000000e+03,2.640080451965332031e-01,1.992213010787963867e+00,7.334424899865452652e-01,0.000000000000000000e+00
1.000000000000000000e+00,1.000000000000000000e+00,1.000000000000000000e+00,5.100000000000000000e+01,9.157000000000000000e+03,2.650489807128906250e-01,1.847922801971435547e+00,5.816263646347148430e-01,0.000000000000000000e+00
1.000000000000000000e+00,1.000000000000000000e+00,1.000000000000000000e+00,5.200000000000000000e+01,9.209000000000000000e+03,3.508281707763671875e-01,1.862772941589355469e+00,5.278672474381298496e-01,0.000000000000000000e+00
0.000000000000000000e+00,1.000000000000000000e+00,0.000000000000000000e+00,5.200000000000000000e+01,9.261000000000000000e+03,3.472270965576171875e-01,1.961994886398315430e+00,6.231435079826108669e-01,0.000000000000000000e+00
0.000000000000000000e+00,1.000000000000000000e+00,0.000000000000000000e+00,5.300000000000000000e+01,9.314000000000000000e+03,2.795770168304443359e-01,1.607840061187744141e+00,3.313220188074084138e-01,0.000000000000000000e+00
0.000000000000000000e+00,1.000000000000000000e+00,0.000000000000000000e+00,5.100000000000000000e+01,9.365000000000000000e+03,3.296160697937011719e-01,1.825676918029785156e+00,5.068724987542566618e-01,0.000000000000000000e+00
0.000000000000000000e+00,1.000000000000000000e+00,0.000000000000000000e+00,5.400000000000000000e+01,9.419000000000000000e+03,3.203730583190917969e-01,1.756302833557128906e+00,4.466045881869314393e-01,0.000000000000000000e+00
0.000000000000000000e+00,1.000000000000000000e+00,0.000000000000000000e+00,5.400000000000000000e+01,9.473000000000000000e+03,3.294699192047119141e-01,1.932075023651123047e+00,6.119015792651387731e-01,0.000000000000000000e+00
0.000000000000000000e+00,1.000000000000000000e+00,0.000000000000000000e+00,5.200000000000000000e+01,9.525000000000000000e+03,2.811839580535888672e-01,1.720902204513549805e+00,4.496091673627838348e-01,0.000000000000000000e+00
0.000000000000000000e+00,1.000000000000000000e+00,0.000000000000000000e+00,5.200000000000000000e+01,9.577000000000000000e+03,3.008499145507812500e-01,1.932308912277221680e+00,6.317830260509587070e-01,0.000000000000000000e+00
0.000000000000000000e+00,1.000000000000000000e+00,0.000000000000000000e+00,5.100000000000000000e+01,9.628000000000000000e+03,3.488891124725341797e-01,1.643099069595336914e+00,2.752962435496271176e-01,0.000000000000000000e+00
1.000000000000000000e+00,1.000000000000000000e+00,1.000000000000000000e+00,5.500000000000000000e+01,9.683000000000000000e+03,3.393809795379638672e-01,1.672924041748046875e+00,3.481623563034111912e-01,0.000000000000000000e+00
1.000000000000000000e+00,1.000000000000000000e+00,1.000000000000000000e+00,5.400000000000000000e+01,9.737000000000000000e+03,3.426799774169921875e-01,1.768569946289062500e+00,4.500331551374712746e-01,0.000000000000000000e+00
0.000000000000000000e+00,1.000000000000000000e+00,0.000000000000000000e+00,5.300000000000000000e+01,9.790000000000000000e+03,3.604500293731689453e-01,2.052169084548950195e+00,6.853240475901695161e-01,0.000000000000000000e+00
1.000000000000000000e+00,1.000000000000000000e+00,1.000000000000000000e+00,5.300000000000000000e+01,9.843000000000000000e+03,3.565261363983154297e-01,1.966001987457275391e+00,6.181093649385204225e-01,0.000000000000000000e+00
0.000000000000000000e+00,1.000000000000000000e+00,0.000000000000000000e+00,5.300000000000000000e+01,9.896000000000000000e+03,2.938649654388427734e-01,1.968020915985107422e+00,6.861106545730009110e-01,0.000000000000000000e+00
1.000000000000000000e+00,1.000000000000000000e+00,1.000000000000000000e+00,5.200000000000000000e+01,9.948000000000000000e+03,3.242390155792236328e-01,1.581840991973876953e+00,2.684180120926339952e-01,0.000000000000000000e+00
1.000000000000000000e+00,1.000000000000000000e+00,1.000000000000000000e+00,5.200000000000000000e+01,1.000000000000000000e+04,3.459360599517822266e-01,1.885233163833618164e+00,5.367592109234857745e-01,0.000000000000000000e+00
1.000000000000000000e+00,1.000000000000000000e+00,1.000000000000000000e+00,5.000000000000000000e+01,1.005000000000000000e+04,3.227009773254394531e-01,1.796947002410888672e+00,4.837510263260435539e-01,0.000000000000000000e+00
1.000000000000000000e+00,1.000000000000000000e+00,1.000000000000000000e+00,5.600000000000000000e+01,1.010600000000000000e+04,2.808301448822021484e-01,2.019138097763061523e+00,7.360259534040336504e-01,0.000000000000000000e+00
0.000000000000000000e+00,1.000000000000000000e+00,0.000000000000000000e+00,5.400000000000000000e+01,1.016000000000000000e+04,4.082570075988769531e-01,1.975822925567626953e+00,5.787577368446714665e-01,0.000000000000000000e+00
1.000000000000000000e+00,1.000000000000000000e+00,1.000000000000000000e+00,5.100000000000000000e+01,1.021100000000000000e+04,3.256289958953857422e-01,1.596592187881469727e+00,2.923158254754946728e-01,0.000000000000000000e+00
1.000000000000000000e+00,1.000000000000000000e+00,1.000000000000000000e+00,5.100000000000000000e+01,1.026200000000000000e+04,3.946769237518310547e-01,2.038757085800170898e+00,6.640724451957753516e-01,0.000000000000000000e+00
0.000000000000000000e+00,1.000000000000000000e+00,0.000000000000000000e+00,5.600000000000000000e+01,1.031800000000000000e+04,3.503730297088623047e-01,1.918475866317749023e+00,5.827060006717347251e-01,0.000000000000000000e+00
0.000000000000000000e+00,1.000000000000000000e+00,0.000000000000000000e+00,5.300000000000000000e+01,1.037100000000000000e+04,2.551469802856445312e-01,1.505520105361938477e+00,2.552552833379154174e-01,0.000000000000000000e+00
1.000000000000000000e+00,1.000000000000000000e+00,1.000000000000000000e+00,5.600000000000000000e+01,1.042700000000000000e+04,2.991521358489990234e-01,1.741858005523681641e+00,4.469623930365563824e-01,0.000000000000000000e+00
1.000000000000000000e+00,1.000000000000000000e+00,1.000000000000000000e+00,5.400000000000000000e+01,1.048100000000000000e+04,2.679791450500488281e-01,1.919933080673217773e+00,6.667099930050983669e-01,0.000000000000000000e+00
1.000000000000000000e+00,1.000000000000000000e+00,1.000000000000000000e+00,5.200000000000000000e+01,1.053300000000000000e+04,2.906560897827148438e-01,1.579786062240600586e+00,2.969159904943054484e-01,0.000000000000000000e+00
0.000000000000000000e+00,1.000000000000000000e+00,0.000000000000000000e+00,5.100000000000000000e+01,1.058400000000000000e+04,3.850688934326171875e-01,1.772548913955688477e+00,4.027307231469966498e-01,0.000000000000000000e+00
1.000000000000000000e+00,1.000000000000000000e+00,1.000000000000000000e+00,5.000000000000000000e+01,1.063400000000000000e+04,2.607591152191162109e-01,1.740197896957397461e+00,4.595706864881077824e-01,0.000000000000000000e+00
1.000000000000000000e+00,1.000000000000000000e+00,1.000000000000000000e+00,5.600000000000000000e+01,1.069000000000000000e+04,2.054598331451416016e-01,1.579425096511840820e+00,3.891001735167252673e-01,0.000000000000000000e+00
0.000000000000000000e+00,1.000000000000000000e+00,0.000000000000000000e+00,5.500000000000000000e+01,1.074500000000000000e+04,3.281970024108886719e-01,1.811723947525024414e+00,4.840947353073726256e-01,0.000000000000000000e+00
1.000000000000000000e+00,1.000000000000000000e+00,1.000000000000000000e+00,5.200000000000000000e+01,1.079700000000000000e+04,2.106199264526367188e-01,1.881762027740478516e+00,6.823906795616700993e-01,0.000000000000000000e+00
1.000000000000000000e+00,1.000000000000000000e+00,1.000000000000000000e+00,5.400000000000000000e+01,1.085100000000000000e+04,2.833900451660156250e-01,1.916500091552734375e+00,6.323208462768317162e-01,0.000000000000000000e+00
1.000000000000000000e+00,1.000000000000000000e+00,1.000000000000000000e+00,5.500000000000000000e+01,1.090600000000000000e+04,1.997389793395996094e-01,1.878701925277709961e+00,6.776655481897695399e-01,0.000000000000000000e+00
0.000000000000000000e+00,0.000000000000000000e+00,1.000000000000000000e+00,4.300000000000000000e+01,1.094900000000000000e+04,4.231622219085693359e-01,1.973484992980957031e+00,5.679902006814058213e-01,1.000000000000000000e+00
1.000000000000000000e+00,1.000000000000000000e+00,1.000000000000000000e+00,5.600000000000000000e+01,1.100500000000000000e+04,2.759110927581787109e-01,1.516792058944702148e+00,2.518042382150342817e-01,0.000000000000000000e+00
1.000000000000000000e+00,1.000000000000000000e+00,1.000000000000000000e+00,5.400000000000000000e+01,1.105900000000000000e+04,3.103120326995849609e-01,1.769411087036132812e+00,4.543731538458509189e-01,0.000000000000000000e+00
1.000000000000000000e+00,1.000000000000000000e+00,1.000000000000000000e+00,5.500000000000000000e+01,1.111400000000000000e+04,2.467310428619384766e-01,1.589966058731079102e+00,3.445119592126900110e-01,0.000000000000000000e+00
1.000000000000000000e+00,1.000000000000000000e+00,1.000000000000000000e+00,5.600000000000000000e+01,1.117000000000000000e+04,2.554769515991210938e-01,1.820059061050415039e+00,5.810321985541266887e-01,0.000000000000000000e+00
0.000000000000000000e+00,1.000000000000000000e+00,0.000000000000000000e+00,6.100000000000000000e+01,1.123100000000000000e+04,4.047770500183105469e-01,1.981559038162231445e+00,5.959499841936080067e-01,0.000000000000000000e+00
1.000000000000000000e+00,1.000000000000000000e+00,1.000000000000000000e+00,6.100000000000000000e+01,1.129200000000000000e+04,2.925238609313964844e-01,1.949182033538818359e+00,6.784326620454909085e-01,0.000000000000000000e+00
0.000000000000000000e+00,1.000000000000000000e+00,0.000000000000000000e+00,5.600000000000000000e+01,1.134800000000000000e+04,3.516571521759033203e-01,1.856677055358886719e+00,5.186999831939546057e-01,0.000000000000000000e+00
0.000000000000000000e+00,1.000000000000000000e+00,0.000000000000000000e+00,6.000000000000000000e+01,1.140800000000000000e+04,2.490749359130859375e-01,1.990036010742187500e+00,7.418919050506413981e-01,0.000000000000000000e+00
0.000000000000000000e+00,1.000000000000000000e+00,0.000000000000000000e+00,5.700000000000000000e+01,1.146500000000000000e+04,2.788758277893066406e-01,1.968551158905029297e+00,6.938630688000917424e-01,0.000000000000000000e+00
0.000000000000000000e+00,1.000000000000000000e+00,0.000000000000000000e+00,5.500000000000000000e+01,1.152000000000000000e+04,2.311890125274658203e-01,1.959471940994262695e+00,7.365819538814077916e-01,0.000000000000000000e+00
1.000000000000000000e+00,1.000000000000000000e+00,1.000000000000000000e+00,5.600000000000000000e+01,1.157600000000000000e+04,3.555760383605957031e-01,1.986066102981567383e+00,6.395502796821574965e-01,0.000000000000000000e+00
0.000000000000000000e+00,1.000000000000000000e+00,0.000000000000000000e+00,6.200000000000000000e+01,1.163800000000000000e+04,3.204200267791748047e-01,1.983748912811279297e+00,6.733181946236693749e-01,0.000000000000000000e+00
1.000000000000000000e+00,1.000000000000000000e+00,1.000000000000000000e+00,5.500000000000000000e+01,1.169300000000000000e+04,2.130379676818847656e-01,1.944195032119750977e+00,7.341190802981303332e-01,0.000000000000000000e+00
0.000000000000000000e+00,1.000000000000000000e+00,0.000000000000000000e+00,5.100000000000000000e+01,1.174400000000000000e+04,3.541481494903564453e-01,1.879248857498168945e+00,5.303050206908921371e-01,0.000000000000000000e+00
0.000000000000000000e+00,1.000000000000000000e+00,0.000000000000000000e+00,6.600000000000000000e+01,1.181000000000000000e+04,3.305070400238037109e-01,1.923356056213378906e+00,6.036184215066764391e-01,0.000000000000000000e+00
1.000000000000000000e+00,1.000000000000000000e+00,1.000000000000000000e+00,5.600000000000000000e+01,1.186600000000000000e+04,5.032610893249511719e-01,1.770256042480468750e+00,2.742738412024240402e-01,0.000000000000000000e+00
1.000000000000000000e+00,1.000000000000000000e+00,1.000000000000000000e+00,6.100000000000000000e+01,1.192700000000000000e+04,3.525691032409667969e-01,1.639220952987670898e+00,2.968380562689756363e-01,0.000000000000000000e+00
1.000000000000000000e+00,1.000000000000000000e+00,1.000000000000000000e+00,5.600000000000000000e+01,1.198300000000000000e+04,3.263919353485107422e-01,1.704837799072265625e+00,4.016228201131193942e-01,0.000000000000000000e+00
1.000000000000000000e+00,1.000000000000000000e+00,1.000000000000000000e+00,5.900000000000000000e+01,1.204200000000000000e+04,2.916870117187500000e-01,1.967202186584472656e+00,6.852297042089218193e-01,0.000000000000000000e+00
1.000000000000000000e+00,1.000000000000000000e+00,1.000000000000000000e+00,6.000000000000000000e+01,1.210200000000000000e+04,2.610781192779541016e-01,1.760561943054199219e+00,4.960163766786216955e-01,0.000000000000000000e+00
1.000000000000000000e+00,1.000000000000000000e+00,1.000000000000000000e+00,5.500000000000000000e+01,1.215700000000000000e+04,2.622539997100830078e-01,1.582186937332153320e+00,3.284071763774284447e-01,0.000000000000000000e+00
1.000000000000000000e+00,1.000000000000000000e+00,1.000000000000000000e+00,6.000000000000000000e+01,1.221700000000000000e+04,2.709479331970214844e-01,1.861325025558471680e+00,6.061901686666473221e-01,0.000000000000000000e+00
0.000000000000000000e+00,1.000000000000000000e+00,0.000000000000000000e+00,5.400000000000000000e+01,1.227100000000000000e+04,3.853330612182617188e-01,1.989063024520874023e+00,6.119432183641380085e-01,0.000000000000000000e+00
1.000000000000000000e+00,1.000000000000000000e+00,1.000000000000000000e+00,5.700000000000000000e+01,1.232800000000000000e+04,2.950689792633056641e-01,1.771355152130126953e+00,4.834475546198976348e-01,0.000000000000000000e+00
1.000000000000000000e+00,1.000000000000000000e+00,1.000000000000000000e+00,5.500000000000000000e+01,1.238300000000000000e+04,2.748491764068603516e-01,1.732920885086059570e+00,4.664241139948153703e-01,0.000000000000000000e+00
1.000000000000000000e+00,0.000000000000000000e+00,0.000000000000000000e+00,4.500000000000000000e+01,1.242800000000000000e+04,1.954019069671630859e-01,1.573270082473754883e+00,3.731841450482269451e-01,0.000000000000000000e+00
1.000000000000000000e+00,1.000000000000000000e+00,1.000000000000000000e+00,5.700000000000000000e+01,1.248500000000000000e+04,4.248480796813964844e-01,1.700350999832153320e+00,2.903298298432915314e-01,0.000000000000000000e+00
1.000000000000000000e+00,1.000000000000000000e+00,1.000000000000000000e+00,5.500000000000000000e+01,1.254000000000000000e+04,4.309878349304199219e-01,1.760638952255249023e+00,3.342972261665570488e-01,0.000000000000000000e+00
1.000000000000000000e+00,1.000000000000000000e+00,1.000000000000000000e+00,5.600000000000000000e+01,1.259600000000000000e+04,2.492811679840087891e-01,1.766010999679565430e+00,5.168336034494351861e-01,0.000000000000000000e+00
1.000000000000000000e+00,1.000000000000000000e+00,1.000000000000000000e+00,5.700000000000000000e+01,1.265300000000000000e+04,2.417061328887939453e-01,1.557050943374633789e+00,3.241234502292406616e-01,0.000000000000000000e+00
1.000000000000000000e+00,1.000000000000000000e+00,1.000000000000000000e+00,5.600000000000000000e+01,1.270900000000000000e+04,2.767419815063476562e-01,1.742306947708129883e+00,4.829734909808130472e-01,0.000000000000000000e+00
0.000000000000000000e+00,1.000000000000000000e+00,0.000000000000000000e+00,5.200000000000000000e+01,1.276100000000000000e+04,3.567938804626464844e-01,1.687650918960571289e+00,3.374909474183699909e-01,0.000000000000000000e+00
0.000000000000000000e+00,1.000000000000000000e+00,0.000000000000000000e+00,5.700000000000000000e+01,1.281800000000000000e+04,3.595621585845947266e-01,1.835106134414672852e+00,4.891628787910509701e-01,0.000000000000000000e+00
0.000000000000000000e+00,1.000000000000000000e+00,0.000000000000000000e+00,5.600000000000000000e+01,1.287400000000000000e+04,2.912700176239013672e-01,1.637643098831176758e+00,3.602789068448294385e-01,0.000000000000000000e+00
1.000000000000000000e+00,1.000000000000000000e+00,1.000000000000000000e+00,5.900000000000000000e+01,1.293300000000000000e+04,3.299529552459716797e-01,1.856119871139526367e+00,5.329361090075033225e-01,0.000000000000000000e+00
1.000000000000000000e+00,1.000000000000000000e+00,1.000000000000000000e+00,5.500000000000000000e+01,1.298800000000000000e+04,3.894069194793701172e-01,1.928007125854492188e+00,5.443066204478013148e-01,0.000000000000000000e+00
0.000000000000000000e+00,1.000000000000000000e+00,0.000000000000000000e+00,5.400000000000000000e+01,1.304200000000000000e+04,3.447408676147460938e-01,1.604734897613525391e+00,2.660522671360597835e-01,0.000000000000000000e+00
1.000000000000000000e+00,1.000000000000000000e+00,1.000000000000000000e+00,5.500000000000000000e+01,1.309700000000000000e+04,3.222169876098632812e-01,1.827660083770751953e+00,5.101646990924388891e-01,0.000000000000000000e+00
1.000000000000000000e+00,1.000000000000000000e+00,1.000000000000000000e+00,5.400000000000000000e+01,1.315100000000000000e+04,3.025679588317871094e-01,1.719773054122924805e+00,4.300624613010625708e-01,0.000000000000000000e+00
1.000000000000000000e+00,1.000000000000000000e+00,1.000000000000000000e+00,5.400000000000000000e+01,1.320500000000000000e+04,2.501289844512939453e-01,1.672955036163330078e+00,4.363776881601842406e-01,0.000000000000000000e+00
0.000000000000000000e+00,1.000000000000000000e+00,0.000000000000000000e+00,5.600000000000000000e+01,1.326100000000000000e+04,3.296551704406738281e-01,2.033298015594482422e+00,7.027976027183315821e-01,0.000000000000000000e+00
1.000000000000000000e+00,1.000000000000000000e+00,1.000000000000000000e+00,5.400000000000000000e+01,1.331500000000000000e+04,2.394330501556396484e-01,1.728752136230468750e+00,4.984653723594597574e-01,0.000000000000000000e+00
0.000000000000000000e+00,1.000000000000000000e+00,0.000000000000000000e+00,5.700000000000000000e+01,1.337200000000000000e+04,2.987890243530273438e-01,1.930914878845214844e+00,6.459498996752096600e-01,0.000000000000000000e+00
0.000000000000000000e+00,1.000000000000000000e+00,0.000000000000000000e+00,5.600000000000000000e+01,1.342800000000000000e+04,3.385529518127441406e-01,1.951419115066528320e+00,6.307326255752163657e-01,0.000000000000000000e+00
1.000000000000000000e+00,1.000000000000000000e+00,1.000000000000000000e+00,6.000000000000000000e+01,1.348800000000000000e+04,2.476980686187744141e-01,1.853955030441284180e+00,6.180860090711153276e-01,0.000000000000000000e+00
0.000000000000000000e+00,1.000000000000000000e+00,0.000000000000000000e+00,6.600000000000000000e+01,1.355400000000000000e+04,3.500900268554687500e-01,1.623190879821777344e+00,2.750285057883540829e-01,0.000000000000000000e+00
1.000000000000000000e+00,1.000000000000000000e+00,1.000000000000000000e+00,5.500000000000000000e+01,1.360900000000000000e+04,3.144650459289550781e-01,1.970514059066772461e+00,6.618755538438578778e-01,0.000000000000000000e+00
1.000000000000000000e+00,1.000000000000000000e+00,1.000000000000000000e+00,5.400000000000000000e+01,1.366300000000000000e+04,3.248150348663330078e-01,1.769788980484008789e+00,4.651886038860706396e-01,0.000000000000000000e+00
1.000000000000000000e+00,1.000000000000000000e+00,1.000000000000000000e+00,5.400000000000000000e+01,1.371700000000000000e+04,3.132879734039306641e-01,1.943122863769531250e+00,6.415376709842964820e-01,0.000000000000000000e+00
1.000000000000000000e+00,1.000000000000000000e+00,1.000000000000000000e+00,6.400000000000000000e+01,1.378100000000000000e+04,2.622869014739990234e-01,1.641592025756835938e+00,3.834401657893787285e-01,0.000000000000000000e+00
0.000000000000000000e+00,1.000000000000000000e+00,0.000000000000000000e+00,5.400000000000000000e+01,1.383500000000000000e+04,3.413648605346679688e-01,2.010435104370117188e+00,6.769323069470283283e-01,0.000000000000000000e+00
0.000000000000000000e+00,1.000000000000000000e+00,0.000000000000000000e+00,5.700000000000000000e+01,1.389200000000000000e+04,3.204340934753417969e-01,1.581357955932617188e+00,2.754147397226548999e-01,0.000000000000000000e+00
0.000000000000000000e+00,1.000000000000000000e+00,0.000000000000000000e+00,5.400000000000000000e+01,1.394600000000000000e+04,3.431899547576904297e-01,1.846523046493530273e+00,5.217590015339437226e-01,0.000000000000000000e+00
0.000000000000000000e+00,1.000000000000000000e+00,0.000000000000000000e+00,5.300000000000000000e+01,1.399900000000000000e+04,2.512300014495849609e-01,1.954079866409301758e+00,7.090050146321182911e-01,0.000000000000000000e+00
0.000000000000000000e+00,0.000000000000000000e+00,1.000000000000000000e+00,4.100000000000000000e+01,1.404000000000000000e+04,4.362430572509765625e-01,2.154177904129028320e+00,7.298925758468468583e-01,0.000000000000000000e+00
1.000000000000000000e+00,1.000000000000000000e+00,1.000000000000000000e+00,6.100000000000000000e+01,1.410100000000000000e+04,3.493781089782714844e-01,1.778964042663574219e+00,4.425482871775630045e-01,0.000000000000000000e+00
0.000000000000000000e+00,1.000000000000000000e+00,0.000000000000000000e+00,5.000000000000000000e+01,1.415100000000000000e+04,4.900169372558593750e-01,1.899116992950439453e+00,4.250576351953862519e-01,0.000000000000000000e+00
0.000000000000000000e+00,1.000000000000000000e+00,0.000000000000000000e+00,5.500000000000000000e+01,1.420600000000000000e+04,3.012351989746093750e-01,1.817451953887939453e+00,5.257851859739172129e-01,0.000000000000000000e+00
1.000000000000000000e+00,1.000000000000000000e+00,1.000000000000000000e+00,5.900000000000000000e+01,1.426500000000000000e+04,3.404860496520996094e-01,1.617208003997802734e+00,2.932703710512559736e-01,0.000000000000000000e+00
1.000000000000000000e+00,0.000000000000000000e+00,0.000000000000000000e+00,4.700000000000000000e+01,1.431200000000000000e+04,2.269358634948730469e-01,1.726638078689575195e+00,5.197218132670666790e-01,0.000000000000000000e+00
1.000000000000000000e+00,1.000000000000000000e+00,1.000000000000000000e+00,5.900000000000000000e+01,1.437100000000000000e+04,3.507158756256103516e-01,1.631241083145141602e+00,2.845724514374584069e-01,0.000000000000000000e+00
1.000000000000000000e+00,1.000000000000000000e+00,1.000000000000000000e+00,5.700000000000000000e+01,1.442800000000000000e+04,3.714249134063720703e-01,2.086847066879272461e+00,7.209976266425018876e-01,0.000000000000000000e+00
1.000000000000000000e+00,1.000000000000000000e+00,1.000000000000000000e+00,5.600000000000000000e+01,1.448400000000000000e+04,2.821500301361083984e-01,1.965112924575805664e+00,6.862702591614605607e-01,0.000000000000000000e+00
1.000000000000000000e+00,1.000000000000000000e+00,1.000000000000000000e+00,5.600000000000000000e+01,1.454000000000000000e+04,3.085980415344238281e-01,1.630353212356567383e+00,3.336412578630454928e-01,0.000000000000000000e+00
0.000000000000000000e+00,1.000000000000000000e+00,0.000000000000000000e+00,5.300000000000000000e+01,1.459300000000000000e+04,3.773000240325927734e-01,1.920241832733154297e+00,5.536924705585108963e-01,0.000000000000000000e+00
1.000000000000000000e+00,1.000000000000000000e+00,1.000000000000000000e+00,6.500000000000000000e+01,1.465800000000000000e+04,2.806088924407958984e-01,1.645825147628784180e+00,3.664269227808329976e-01,0.000000000000000000e+00
1.000000000000000000e+00,1.000000000000000000e+00,1.000000000000000000e+00,6.200000000000000000e+01,1.472000000000000000e+04,2.967739105224609375e-01,1.917278051376342773e+00,6.168367495547502077e-01,0.000000000000000000e+00
0.000000000000000000e+00,1.000000000000000000e+00,0.000000000000000000e+00,5.600000000000000000e+01,1.477600000000000000e+04,3.291969299316406250e-01,1.759845018386840820e+00,4.268957918527169215e-01,0.000000000000000000e+00
1.000000000000000000e+00,1.000000000000000000e+00,1.000000000000000000e+00,5.600000000000000000e+01,1.483200000000000000e+04,2.751889228820800781e-01,1.756101846694946289e+00,4.996537597755155158e-01,0.000000000000000000e+00
1.000000000000000000e+00,1.000000000000000000e+00,1.000000000000000000e+00,5.500000000000000000e+01,1.488700000000000000e+04,2.366538047790527344e-01,1.910014152526855469e+00,6.762286017080088030e-01,0.000000000000000000e+00
0.000000000000000000e+00,1.000000000000000000e+00,0.000000000000000000e+00,5.400000000000000000e+01,1.494100000000000000e+04,3.477549552917480469e-01,1.641134977340698242e+00,3.010770045133186468e-01,0.000000000000000000e+00
1.000000000000000000e+00,1.000000000000000000e+00,1.000000000000000000e+00,5.700000000000000000e+01,1.499800000000000000e+04,3.498461246490478516e-01,2.085134029388427734e+00,7.358530053946404914e-01,0.000000000000000000e+00
0.000000000000000000e+00,1.000000000000000000e+00,0.000000000000000000e+00,5.400000000000000000e+01,1.505200000000000000e+04,3.425419330596923828e-01,1.848072052001953125e+00,5.174947167502284007e-01,0.000000000000000000e+00
1.000000000000000000e+00,1.000000000000000000e+00,1.000000000000000000e+00,5.600000000000000000e+01,1.510800000000000000e+04,2.785511016845703125e-01,1.680318117141723633e+00,3.979838313629961988e-01,0.000000000000000000e+00
0.000000000000000000e+00,1.000000000000000000e+00,0.000000000000000000e+00,5.900000000000000000e+01,1.516700000000000000e+04,3.359320163726806641e-01,1.724052906036376953e+00,4.054011849741437912e-01,0.000000000000000000e+00
0.000000000000000000e+00,1.000000000000000000e+00,0.000000000000000000e+00,5.600000000000000000e+01,1.522300000000000000e+04,3.257470130920410156e-01,1.790071964263916016e+00,4.787796963628108138e-01,0.000000000000000000e+00
0.000000000000000000e+00,1.000000000000000000e+00,0.000000000000000000e+00,5.500000000000000000e+01,1.527800000000000000e+04,3.374698162078857422e-01,1.648757934570312500e+00,3.277401587644422909e-01,0.000000000000000000e+00
1.000000000000000000e+00,1.000000000000000000e+00,1.000000000000000000e+00,5.600000000000000000e+01,1.533400000000000000e+04,3.354420661926269531e-01,1.656413078308105469e+00,3.341864847053864218e-01,0.000000000000000000e+00
0.000000000000000000e+00,1.000000000000000000e+00,0.000000000000000000e+00,5.600000000000000000e+01,1.539000000000000000e+04,3.098680973052978516e-01,2.008646011352539062e+00,7.091642155803199454e-01,0.000000000000000000e+00
1.000000000000000000e+00,1.000000000000000000e+00,1.000000000000000000e+00,5.900000000000000000e+01,1.544900000000000000e+04,2.109990119934082031e-01,1.707266092300415039e+00,5.000094430137165258e-01,0.000000000000000000e+00
0.000000000000000000e+00,1.000000000000000000e+00,0.000000000000000000e+00,5.300000000000000000e+01,1.550200000000000000e+04,2.733299732208251953e-01,1.656831979751586914e+00,3.903422587214750439e-01,0.000000000000000000e+00
1.000000000000000000e+00,1.000000000000000000e+00,1.000000000000000000e+00,5.400000000000000000e+01,1.555600000000000000e+04,2.404479980468750000e-01,1.911427021026611328e+00,6.848229529082645595e-01,0.000000000000000000e+00
0.000000000000000000e+00,1.000000000000000000e+00,0.000000000000000000e+00,6.100000000000000000e+01,1.561700000000000000e+04,2.796800136566162109e-01,1.832312107086181641e+00,5.506650189706293608e-01,0.000000000000000000e+00
1.000000000000000000e+00,1.000000000000000000e+00,1.000000000000000000e+00,5.600000000000000000e+01,1.567300000000000000e+04,2.914769649505615234e-01,1.897238969802856445e+00,6.145629147734494868e-01,0.000000000000000000e+00
0.000000000000000000e+00,1.000000000000000000e+00,0.000000000000000000e+00,5.300000000000000000e+01,1.572600000000000000e+04,3.421590328216552734e-01,1.694173097610473633e+00,3.756879264863368095e-01,0.000000000000000000e+00
0.000000000000000000e+00,1.000000000000000000e+00,0.000000000000000000e+00,6.000000000000000000e+01,1.578600000000000000e+04,3.492910861968994141e-01,1.653162002563476562e+00,3.122951236393529673e-01,0.000000000000000000e+00
1.000000000000000000e+00,1.000000000000000000e+00,1.000000000000000000e+00,6.000000000000000000e+01,1.584600000000000000e+04,3.133330345153808594e-01,1.647475957870483398e+00,3.431066747141219841e-01,0.000000000000000000e+00
1.000000000000000000e+00,1.000000000000000000e+00,1.000000000000000000e+00,5.600000000000000000e+01,1.590200000000000000e+04,2.594289779663085938e-01,1.844810962677001953e+00,6.043575839862918020e-01,0.000000000000000000e+00
1.000000000000000000e+00,1.000000000000000000e+00,1.000000000000000000e+00,5.900000000000000000e+01,1.596100000000000000e+04,2.325019836425781250e-01,1.834673166275024414e+00,6.057011609823350629e-01,0.000000000000000000e+00
1.000000000000000000e+00,1.000000000000000000e+00,1.000000000000000000e+00,5.600000000000000000e+01,1.601700000000000000e+04,2.672691345214843750e-01,1.788902997970581055e+00,5.280883444179720332e-01,0.000000000000000000e+00
1.000000000000000000e+00,0.000000000000000000e+00,0.000000000000000000e+00,4.800000000000000000e+01,1.606500000000000000e+04,2.889928817749023438e-01,1.753190040588378906e+00,4.813933340408957373e-01,1.000000000000000000e+00
0.000000000000000000e+00,0.000000000000000000e+00,1.000000000000000000e+00,4.900000000000000000e+01,1.611400000000000000e+04,3.998689651489257812e-01,1.827564954757690430e+00,4.423833337648082065e-01,0.000000000000000000e+00
1.000000000000000000e+00,0.000000000000000000e+00,0.000000000000000000e+00,4.700000000000000000e+01,1.616100000000000000e+04,2.416799068450927734e-01,1.543843984603881836e+00,3.197155283158061856e-01,0.000000000000000000e+00
0.000000000000000000e+00,0.000000000000000000e+00,1.000000000000000000e+00,4.900000000000000000e+01,1.621000000000000000e+04,2.967429161071777344e-01,1.805022954940795898e+00,5.079194985839126097e-01,0.000000000000000000e+00
0.000000000000000000e+00,1.000000000000000000e+00,0.000000000000000000e+00,5.300000000000000000e+01,1.626300000000000000e+04,3.788619041442871094e-01,1.685034990310668945e+00,3.098853304864176428e-01,0.000000000000000000e+00
1.000000000000000000e+00,1.000000000000000000e+00,1.000000000000000000e+00,5.000000000000000000e+01,1.631300000000000000e+04,2.666058540344238281e-01,1.963178157806396484e+00,7.060504349495113630e-01,0.000000000000000000e+00
1.000000000000000000e+00,1.000000000000000000e+00,1.000000000000000000e+00,5.100000000000000000e+01,1.636400000000000000e+04,3.429620265960693359e-01,1.712957859039306641e+00,3.860300542426055581e-01,0.000000000000000000e+00
1.000000000000000000e+00,1.000000000000000000e+00,1.000000000000000000e+00,5.100000000000000000e+01,1.641500000000000000e+04,2.853300571441650391e-01,1.682859182357788086e+00,4.022426152407141964e-01,0.000000000000000000e+00
1.000000000000000000e+00,1.000000000000000000e+00,1.000000000000000000e+00,5.200000000000000000e+01,1.646700000000000000e+04,3.111431598663330078e-01,1.713611841201782227e+00,3.992381069680563943e-01,0.000000000000000000e+00
0.000000000000000000e+00,1.000000000000000000e+00,0.000000000000000000e+00,5.400000000000000000e+01,1.652100000000000000e+04,3.614900112152099609e-01,1.738260984420776367e+00,3.708897492782440297e-01,0.000000000000000000e+00
1.000000000000000000e+00,1.000000000000000000e+00,1.000000000000000000e+00,5.000000000000000000e+01,1.657100000000000000e+04,5.931251049041748047e-01,1.962229013442993164e+00,3.831616607465530011e-01,0.000000000000000000e+00
1.000000000000000000e+00,1.000000000000000000e+00,1.000000000000000000e+00,5.300000000000000000e+01,1.662400000000000000e+04,3.045618534088134766e-01,1.951789855957031250e+00,6.513974126245334340e-01,0.000000000000000000e+00
1.000000000000000000e+00,1.000000000000000000e+00,1.000000000000000000e+00,5.100000000000000000e+01,1.667500000000000000e+04,2.706968784332275391e-01,2.008252859115600586e+00,7.429239402771059542e-01,0.000000000000000000e+00
1.000000000000000000e+00,1.000000000000000000e+00,1.000000000000000000e+00,5.600000000000000000e+01,1.673100000000000000e+04,2.497849464416503906e-01,1.842925071716308594e+00,6.027143672365069538e-01,0.000000000000000000e+00
1.000000000000000000e+00,1.000000000000000000e+00,1.000000000000000000e+00,5.600000000000000000e+01,1.678700000000000000e+04,2.548830509185791016e-01,1.692190170288085938e+00,4.451046685287334825e-01,0.000000000000000000e+00
1.000000000000000000e+00,1.000000000000000000e+00,1.000000000000000000e+00,5.500000000000000000e+01,1.684200000000000000e+04,2.515711784362792969e-01,1.897819042205810547e+00,6.593852527937344998e-01,0.000000000000000000e+00
0.000000000000000000e+00,1.000000000000000000e+00,0.000000000000000000e+00,5.600000000000000000e+01,1.689800000000000000e+04,3.626110553741455078e-01,1.870676040649414062e+00,5.136230482917163442e-01,0.000000000000000000e+00
1.000000000000000000e+00,1.000000000000000000e+00,1.000000000000000000e+00,5.100000000000000000e+01,1.694900000000000000e+04,2.490100860595703125e-01,1.753310918807983398e+00,5.169793411840226671e-01,0.000000000000000000e+00
1.000000000000000000e+00,1.000000000000000000e+00,1.000000000000000000e+00,5.500000000000000000e+01,1.700400000000000000e+04,2.794110774993896484e-01,1.693758964538574219e+00,4.108955849503521107e-01,0.000000000000000000e+00
1.000000000000000000e+00,1.000000000000000000e+00,1.000000000000000000e+00,5.200000000000000000e+01,1.705600000000000000e+04,3.341598510742187500e-01,1.638843059539794922e+00,3.165466091689749795e-01,0.000000000000000000e+00
0.000000000000000000e+00,1.000000000000000000e+00,0.000000000000000000e+00,5.900000000000000000e+01,1.711500000000000000e+04,3.361988067626953125e-01,1.651483058929443359e+00,3.180766100178979428e-01,0.000000000000000000e+00
0.000000000000000000e+00,1.000000000000000000e+00,0.000000000000000000e+00,5.200000000000000000e+01,1.716700000000000000e+04,2.722580432891845703e-01,1.782305955886840820e+00,5.168721161919249685e-01,0.000000000000000000e+00
1.000000000000000000e+00,1.000000000000000000e+00,1.000000000000000000e+00,5.000000000000000000e+01,1.721700000000000000e+04,3.939580917358398438e-01,1.869285821914672852e+00,4.696023716748259913e-01,0.000000000000000000e+00
0.000000000000000000e+00,1.000000000000000000e+00,0.000000000000000000e+00,5.200000000000000000e+01,1.726900000000000000e+04,3.013319969177246094e-01,1.776515960693359375e+00,4.794748155847045612e-01,0.000000000000000000e+00
1.000000000000000000e+00,1.000000000000000000e+00,1.000000000000000000e+00,5.500000000000000000e+01,1.732400000000000000e+04,2.558188438415527344e-01,1.934826850891113281e+00,6.974864349952182296e-01,0.000000000000000000e+00
0.000000000000000000e+00,0.000000000000000000e+00,1.000000000000000000e+00,4.800000000000000000e+01,1.737200000000000000e+04,2.294349670410156250e-01,1.816962957382202148e+00,5.979282202459840212e-01,0.000000000000000000e+00
0.000000000000000000e+00,1.000000000000000000e+00,0.000000000000000000e+00,5.500000000000000000e+01,1.742700000000000000e+04,4.078879356384277344e-01,1.734597206115722656e+00,3.494694165461221247e-01,0.000000000000000000e+00
0.000000000000000000e+00,1.000000000000000000e+00,0.000000000000000000e+00,5.200000000000000000e+01,1.747900000000000000e+04,7.779729366302490234e-01,2.399416923522949219e+00,6.320036585002393181e-01,0.000000000000000000e+00
0.000000000000000000e+00,1.000000000000000000e+00,0.000000000000000000e+00,5.400000000000000000e+01,1.753300000000000000e+04,3.890769481658935547e-01,1.838764190673828125e+00,4.543668038492783001e-01,0.000000000000000000e+00
0.000000000000000000e+00,1.000000000000000000e+00,0.000000000000000000e+00,5.200000000000000000e+01,1.758500000000000000e+04,3.227438926696777344e-01,2.009274005889892578e+00,6.967419308076240325e-01,0.000000000000000000e+00
0.000000000000000000e+00,1.000000000000000000e+00,0.000000000000000000e+00,5.600000000000000000e+01,1.764100000000000000e+04,3.168699741363525391e-01,1.658713817596435547e+00,3.558304853313434823e-01,0.000000000000000000e+00
1.000000000000000000e+00,1.000000000000000000e+00,1.000000000000000000e+00,5.300000000000000000e+01,1.769400000000000000e+04,3.562300205230712891e-01,2.057920217514038086e+00,7.134565561594433669e-01,0.000000000000000000e+00
0.000000000000000000e+00,0.000000000000000000e+00,1.000000000000000000e+00,4.400000000000000000e+01,1.773800000000000000e+04,3.262839317321777344e-01,1.728939056396484375e+00,4.260459400863367829e-01,0.000000000000000000e+00
1.000000000000000000e+00,1.000000000000000000e+00,1.000000000000000000e+00,5.100000000000000000e+01,1.778900000000000000e+04,2.889449596405029297e-01,1.896934986114501953e+00,6.228757357357377344e-01,0.000000000000000000e+00
0.000000000000000000e+00,1.000000000000000000e+00,0.000000000000000000e+00,5.100000000000000000e+01,1.784000000000000000e+04,3.570179939270019531e-01,2.078697919845581055e+00,7.347829279830758731e-01,0.000000000000000000e+00
0.000000000000000000e+00,1.000000000000000000e+00,0.000000000000000000e+00,5.100000000000000000e+01,1.789100000000000000e+04,3.097460269927978516e-01,1.721064090728759766e+00,4.229031429255248886e-01,0.000000000000000000e+00
0.000000000000000000e+00,1.000000000000000000e+00,0.000000000000000000e+00,5.300000000000000000e+01,1.794400000000000000e+04,2.871391773223876953e-01,2.021281003952026367e+00,7.439144786667837295e-01,0.000000000000000000e+00
0.000000000000000000e+00,1.000000000000000000e+00,0.000000000000000000e+00,5.200000000000000000e+01,1.799600000000000000e+04,2.585642337799072266e-01,1.980697870254516602e+00,7.413190515367285016e-01,0.000000000000000000e+00
0.000000000000000000e+00,1.000000000000000000e+00,0.000000000000000000e+00,5.200000000000000000e+01,1.804800000000000000e+04,2.432501316070556641e-01,1.857665061950683594e+00,6.324801203599386135e-01,0.000000000000000000e+00
0.000000000000000000e+00,1.000000000000000000e+00,0.000000000000000000e+00,5.000000000000000000e+01,1.809800000000000000e+04,2.447099685668945312e-01,1.968075037002563477e+00,7.171904872071044323e-01,0.000000000000000000e+00
0.000000000000000000e+00,1.000000000000000000e+00,0.000000000000000000e+00,5.200000000000000000e+01,1.815000000000000000e+04,2.620902061462402344e-01,1.551168918609619141e+00,2.855016482840839198e-01,0.000000000000000000e+00
1.000000000000000000e+00,1.000000000000000000e+00,1.000000000000000000e+00,5.100000000000000000e+01,1.820100000000000000e+04,3.711731433868408203e-01,1.713620901107788086e+00,3.491023008558915564e-01,0.000000000000000000e+00
0.000000000000000000e+00,1.000000000000000000e+00,0.000000000000000000e+00,5.100000000000000000e+01,1.825200000000000000e+04,3.076250553131103516e-01,1.654130935668945312e+00,3.532723574200435368e-01,0.000000000000000000e+00
1.000000000000000000e+00,1.000000000000000000e+00,1.000000000000000000e+00,5.400000000000000000e+01,1.830600000000000000e+04,3.145768642425537109e-01,1.990120887756347656e+00,6.764424017941009781e-01,0.000000000000000000e+00
1.000000000000000000e+00,1.000000000000000000e+00,1.000000000000000000e+00,5.200000000000000000e+01,1.835800000000000000e+04,3.253228664398193359e-01,1.586191177368164062e+00,2.797797842397434787e-01,0.000000000000000000e+00
1.000000000000000000e+00,1.000000000000000000e+00,1.000000000000000000e+00,5.100000000000000000e+01,1.840900000000000000e+04,3.091218471527099609e-01,1.711475849151611328e+00,4.244789311555558498e-01,0.000000000000000000e+00
1.000000000000000000e+00,1.000000000000000000e+00,1.000000000000000000e+00,5.600000000000000000e+01,1.846500000000000000e+04,2.274630069732666016e-01,1.706866025924682617e+00,4.813151960981375543e-01,0.000000000000000000e+00
0.000000000000000000e+00,1.000000000000000000e+00,0.000000000000000000e+00,5.200000000000000000e+01,1.851700000000000000e+04,3.354849815368652344e-01,1.896804094314575195e+00,5.780748383550247116e-01,0.000000000000000000e+00
1.000000000000000000e+00,1.000000000000000000e+00,1.000000000000000000e+00,5.500000000000000000e+01,1.857200000000000000e+04,2.386941909790039062e-01,1.572449922561645508e+00,3.508301383804963147e-01,0.000000000000000000e+00
1.000000000000000000e+00,1.000000000000000000e+00,1.000000000000000000e+00,5.000000000000000000e+01,1.862200000000000000e+04,2.814190387725830078e-01,1.744367837905883789e+00,4.617714647849879839e-01,0.000000000000000000e+00
1.000000000000000000e+00,1.000000000000000000e+00,1.000000000000000000e+00,5.000000000000000000e+01,1.867200000000000000e+04,2.461118698120117188e-01,1.790550947189331055e+00,5.522938121104030706e-01,0.000000000000000000e+00
0.000000000000000000e+00,1.000000000000000000e+00,0.000000000000000000e+00,5.300000000000000000e+01,1.872500000000000000e+04,3.731760978698730469e-01,1.627771854400634766e+00,2.637172866320529052e-01,0.000000000000000000e+00
0.000000000000000000e+00,1.000000000000000000e+00,0.000000000000000000e+00,5.300000000000000000e+01,1.877800000000000000e+04,3.025410175323486328e-01,1.798269033432006836e+00,5.117988314750108181e-01,0.000000000000000000e+00
1.000000000000000000e+00,1.000000000000000000e+00,1.000000000000000000e+00,5.100000000000000000e+01,1.882900000000000000e+04,3.397359848022460938e-01,1.754819869995117188e+00,4.333203285232926083e-01,0.000000000000000000e+00
0.000000000000000000e+00,1.000000000000000000e+00,0.000000000000000000e+00,5.100000000000000000e+01,1.888000000000000000e+04,3.600721359252929688e-01,2.021770000457763672e+00,6.716500946216219514e-01,0.000000000000000000e+00
1.000000000000000000e+00,1.000000000000000000e+00,1.000000000000000000e+00,5.400000000000000000e+01,1.893400000000000000e+04,2.584028244018554688e-01,1.627884149551391602e+00,3.832081698097737354e-01,0.000000000000000000e+00
0.000000000000000000e+00,1.000000000000000000e+00,0.000000000000000000e+00,5.100000000000000000e+01,1.898500000000000000e+04,3.460829257965087891e-01,1.683919906616210938e+00,3.338854362693693956e-01,0.000000000000000000e+00
0.000000000000000000e+00,1.000000000000000000e+00,0.000000000000000000e+00,5.100000000000000000e+01,1.903600000000000000e+04,3.408608436584472656e-01,1.799682855606079102e+00,4.668008180932337048e-01,0.000000000000000000e+00
0.000000000000000000e+00,1.000000000000000000e+00,0.000000000000000000e+00,5.000000000000000000e+01,1.908600000000000000e+04,3.019630908966064453e-01,2.033239126205444336e+00,7.331477850587901912e-01,0.000000000000000000e+00
1.000000000000000000e+00,1.000000000000000000e+00,1.000000000000000000e+00,5.300000000000000000e+01,1.913900000000000000e+04,3.555619716644287109e-01,2.095850944519042969e+00,7.456873268995805049e-01,0.000000000000000000e+00
1.000000000000000000e+00,1.000000000000000000e+00,1.000000000000000000e+00,5.600000000000000000e+01,1.919500000000000000e+04,3.204200267791748047e-01,1.815962791442871094e+00,5.119355403992480458e-01,0.000000000000000000e+00
1.000000000000000000e+00,1.000000000000000000e+00,1.000000000000000000e+00,5.200000000000000000e+01,1.924700000000000000e+04,2.578489780426025391e-01,1.585963964462280273e+00,3.481141688938753642e-01,0.000000000000000000e+00
1.000000000000000000e+00,1.000000000000000000e+00,1.000000000000000000e+00,5.500000000000000000e+01,1.930200000000000000e+04,3.675069808959960938e-01,2.070867061614990234e+00,7.186489266975704115e-01,0.000000000000000000e+00
1.000000000000000000e+00,1.000000000000000000e+00,1.000000000000000000e+00,5.200000000000000000e+01,1.935400000000000000e+04,3.052680492401123047e-01,1.701315879821777344e+00,4.036734457196278214e-01,0.000000000000000000e+00
1.000000000000000000e+00,1.000000000000000000e+00,1.000000000000000000e+00,5.600000000000000000e+01,1.941000000000000000e+04,2.923169136047363281e-01,1.679086923599243164e+00,3.994851576803413185e-01,0.000000000000000000e+00
0.000000000000000000e+00,1.000000000000000000e+00,0.000000000000000000e+00,5.500000000000000000e+01,1.946500000000000000e+04,4.080519676208496094e-01,1.696109056472778320e+00,2.957552283725388143e-01,0.000000000000000000e+00
0.000000000000000000e+00,1.000000000000000000e+00,0.000000000000000000e+00,5.100000000000000000e+01,1.951600000000000000e+04,2.927579879760742188e-01,1.616136074066162109e+00,3.451903059089178605e-01,0.000000000000000000e+00
1.000000000000000000e+00,1.000000000000000000e+00,1.000000000000000000e+00,5.100000000000000000e+01,1.956700000000000000e+04,3.091769218444824219e-01,1.594362020492553711e+00,3.063060318070220944e-01,0.000000000000000000e+00
1.000000000000000000e+00,1.000000000000000000e+00,1.000000000000000000e+00,5.000000000000000000e+01,1.961700000000000000e+04,2.992150783538818359e-01,1.897012948989868164e+00,6.030629228835420186e-01,0.000000000000000000e+00
1.000000000000000000e+00,1.000000000000000000e+00,1.000000000000000000e+00,5.100000000000000000e+01,1.966800000000000000e+04,2.512469291687011719e-01,1.505144119262695312e+00,2.586011068477802599e-01,0.000000000000000000e+00
1.000000000000000000e+00,1.000000000000000000e+00,1.000000000000000000e+00,5.600000000000000000e+01,1.972400000000000000e+04,3.093271255493164062e-01,1.735632896423339844e+00,4.440861394609383894e-01,0.000000000000000000e+00
0.000000000000000000e+00,1.000000000000000000e+00,0.000000000000000000e+00,5.300000000000000000e+01,1.977700000000000000e+04,3.020570278167724609e-01,2.009217977523803711e+00,7.197494346809673038e-01,0.000000000000000000e+00
0.000000000000000000e+00,1.000000000000000000e+00,0.000000000000000000e+00,5.200000000000000000e+01,1.982900000000000000e+04,3.553838729858398438e-01,1.606935977935791016e+00,2.605259896366896033e-01,0.000000000000000000e+00
1.000000000000000000e+00,1.000000000000000000e+00,1.000000000000000000e+00,5.200000000000000000e+01,1.988100000000000000e+04,3.205680847167968750e-01,1.940521955490112305e+00,6.340628670713571724e-01,0.000000000000000000e+00
1.000000000000000000e+00,1.000000000000000000e+00,1.000000000000000000e+00,5.600000000000000000e+01,1.993700000000000000e+04,4.406311511993408203e-01,1.715597152709960938e+00,2.833959799555560433e-01,0.000000000000000000e+00
0.000000000000000000e+00,1.000000000000000000e+00,0.000000000000000000e+00,5.600000000000000000e+01,1.999300000000000000e+04,3.640160560607910156e-01,2.096158027648925781e+00,7.291545400223715667e-01,0.000000000000000000e+00
1.000000000000000000e+00,1.000000000000000000e+00,1.000000000000000000e+00,5.200000000000000000e+01,2.004500000000000000e+04,2.397730350494384766e-01,1.804548978805541992e+00,5.838250130944924177e-01,0.000000000000000000e+00
0.000000000000000000e+00,1.000000000000000000e+00,0.000000000000000000e+00,5.200000000000000000e+01,2.009700000000000000e+04,2.612440586090087891e-01,1.722393035888671875e+00,4.731071314316620535e-01,0.000000000000000000e+00
0.000000000000000000e+00,1.000000000000000000e+00,0.000000000000000000e+00,5.600000000000000000e+01,2.015300000000000000e+04,4.025268554687500000e-01,1.818910121917724609e+00,4.254661171737931236e-01,0.000000000000000000e+00
0.000000000000000000e+00,1.000000000000000000e+00,0.000000000000000000e+00,5.600000000000000000e+01,2.020900000000000000e+04,2.950229644775390625e-01,1.999619960784912109e+00,7.081909902004248636e-01,0.000000000000000000e+00
1.000000000000000000e+00,1.000000000000000000e+00,1.000000000000000000e+00,5.200000000000000000e+01,2.026100000000000000e+04,3.259119987487792969e-01,2.028944015502929688e+00,7.204958575765916251e-01,0.000000000000000000e+00
1.000000000000000000e+00,1.000000000000000000e+00,1.000000000000000000e+00,5.200000000000000000e+01,2.031300000000000000e+04,3.586859703063964844e-01,1.899044990539550781e+00,5.530627999089222646e-01,0.000000000000000000e+00
1.000000000000000000e+00,1.000000000000000000e+00,1.000000000000000000e+00,5.400000000000000000e+01,2.036700000000000000e+04,2.477788925170898438e-01,1.995465040206909180e+00,7.484231685911924004e-01,0.000000000000000000e+00
1.000000000000000000e+00,1.000000000000000000e+00,1.000000000000000000e+00,5.200000000000000000e+01,2.041900000000000000e+04,2.718100547790527344e-01,1.969660043716430664e+00,7.014774607117665317e-01,0.000000000000000000e+00
0.000000000000000000e+00,1.000000000000000000e+00,0.000000000000000000e+00,5.400000000000000000e+01,2.047300000000000000e+04,3.743119239807128906e-01,1.723268985748291016e+00,3.585185715352725566e-01,0.000000000000000000e+00
1.000000000000000000e+00,1.000000000000000000e+00,1.000000000000000000e+00,5.200000000000000000e+01,2.052500000000000000e+04,3.486249446868896484e-01,1.989538192749023438e+00,6.478052647898551175e-01,0.000000000000000000e+00
0.000000000000000000e+00,1.000000000000000000e+00,0.000000000000000000e+00,5.100000000000000000e+01,2.057600000000000000e+04,3.443429470062255859e-01,1.960119009017944336e+00,6.246704372108428105e-01,0.000000000000000000e+00
1.000000000000000000e+00,1.000000000000000000e+00,1.000000000000000000e+00,5.000000000000000000e+01,2.062600000000000000e+04,2.947590351104736328e-01,1.578970909118652344e+00,2.873610234192068846e-01,0.000000000000000000e+00
1.000000000000000000e+00,1.000000000000000000e+00,1.000000000000000000e+00,5.200000000000000000e+01,2.067800000000000000e+04,3.625771999359130859e-01,1.905328989028930664e+00,5.424820503311047482e-01,0.000000000000000000e+00
1.000000000000000000e+00,1.000000000000000000e+00,1.000000000000000000e+00,5.600000000000000000e+01,2.073400000000000000e+04,3.156118392944335938e-01,1.856790781021118164e+00,5.492808349826631131e-01,0.000000000000000000e+00
0.000000000000000000e+00,1.000000000000000000e+00,0.000000000000000000e+00,5.200000000000000000e+01,2.078600000000000000e+04,2.989931106567382812e-01,1.811414957046508789e+00,5.107968420507952301e-01,0.000000000000000000e+00
0.000000000000000000e+00,1.000000000000000000e+00,0.000000000000000000e+00,5.000000000000000000e+01,2.083600000000000000e+04,3.010029792785644531e-01,1.688815116882324219e+00,3.997879950287066553e-01,0.000000000000000000e+00
1.000000000000000000e+00,1.000000000000000000e+00,1.000000000000000000e+00,5.600000000000000000e+01,2.089200000000000000e+04,3.700609207153320312e-01,1.804584980010986328e+00,4.377007495811253146e-01,0.000000000000000000e+00
1.000000000000000000e+00,1.000000000000000000e+00,1.000000000000000000e+00,5.000000000000000000e+01,2.094200000000000000e+04,2.811489105224609375e-01,1.687716960906982422e+00,4.088239143764100803e-01,0.000000000000000000e+00
0.000000000000000000e+00,1.000000000000000000e+00,0.000000000000000000e+00,5.600000000000000000e+01,2.099800000000000000e+04,3.487880229949951172e-01,2.003263950347900391e+00,6.618675807018057355e-01,0.000000000000000000e+00
1.000000000000000000e+00,1.000000000000000000e+00,1.000000000000000000e+00,5.000000000000000000e+01,2.104800000000000000e+04,2.189400196075439453e-01,1.931138038635253906e+00,7.263212964962207918e-01,0.000000000000000000e+00
0.000000000000000000e+00,1.000000000000000000e+00,0.000000000000000000e+00,5.300000000000000000e+01,2.110100000000000000e+04,2.856299877166748047e-01,1.721621990203857422e+00,4.483083359982953930e-01,0.000000000000000000e+00
1.000000000000000000e+00,1.000000000000000000e+00,1.000000000000000000e+00,5.300000000000000000e+01,2.115400000000000000e+04,2.710311412811279297e-01,1.699327230453491211e+00,4.476594059621626931e-01,0.000000000000000000e+00
0.000000000000000000e+00,1.000000000000000000e+00,0.000000000000000000e+00,5.300000000000000000e+01,2.120700000000000000e+04,2.831919193267822266e-01,1.582536935806274414e+00,3.137077177606956702e-01,0.000000000000000000e+00
0.000000000000000000e+00,1.000000000000000000e+00,0.000000000000000000e+00,5.400000000000000000e+01,2.126100000000000000e+04,4.529190063476562500e-01,1.760242938995361328e+00,3.239856415552097579e-01,0.000000000000000000e+00
1.000000000000000000e+00,1.000000000000000000e+00,1.000000000000000000e+00,5.100000000000000000e+01,2.131200000000000000e+04,2.612040042877197266e-01,1.824882984161376953e+00,5.653195855961061778e-01,0.000000000000000000e+00
0.000000000000000000e+00,1.000000000000000000e+00,0.000000000000000000e+00,5.100000000000000000e+01,2.136300000000000000e+04,2.549359798431396484e-01,1.711568832397460938e+00,4.603983468204504992e-01,0.000000000000000000e+00
1.000000000000000000e+00,1.000000000000000000e+00,1.000000000000000000e+00,5.300000000000000000e+01,2.141600000000000000e+04,2.279977798461914062e-01,1.828672885894775391e+00,6.222964503326207097e-01,0.000000000000000000e+00
1.000000000000000000e+00,0.000000000000000000e+00,0.000000000000000000e+00,4.900000000000000000e+01,2.146500000000000000e+04,2.767779827117919922e-01,1.891639947891235352e+00,6.306260369539156141e-01,0.000000000000000000e+00
1.000000000000000000e+00,1.000000000000000000e+00,1.000000000000000000e+00,5.600000000000000000e+01,2.152100000000000000e+04,3.655340671539306641e-01,1.928795814514160156e+00,5.761641224048965615e-01,0.000000000000000000e+00
0.000000000000000000e+00,1.000000000000000000e+00,0.000000000000000000e+00,5.600000000000000000e+01,2.157700000000000000e+04,3.772380352020263672e-01,2.003920078277587891e+00,6.467662105818805518e-01,0.000000000000000000e+00
1.000000000000000000e+00,1.000000000000000000e+00,1.000000000000000000e+00,5.000000000000000000e+01,2.162700000000000000e+04,3.033151626586914062e-01,1.729892969131469727e+00,4.435755429989413634e-01,0.000000000000000000e+00
1.000000000000000000e+00,1.000000000000000000e+00,1.000000000000000000e+00,5.200000000000000000e+01,2.167900000000000000e+04,2.999830245971679688e-01,1.787678003311157227e+00,4.979016740743263392e-01,0.000000000000000000e+00
0.000000000000000000e+00,0.000000000000000000e+00,1.000000000000000000e+00,4.500000000000000000e+01,2.172400000000000000e+04,3.497469425201416016e-01,2.063621997833251953e+00,7.279873309484992117e-01,1.000000000000000000e+00
0.000000000000000000e+00,1.000000000000000000e+00,0.000000000000000000e+00,5.600000000000000000e+01,2.178000000000000000e+04,3.881299495697021484e-01,2.031357049942016602e+00,6.594703055456943019e-01,0.000000000000000000e+00
0.000000000000000000e+00,1.000000000000000000e+00,0.000000000000000000e+00,5.400000000000000000e+01,2.183400000000000000e+04,3.399448394775390625e-01,1.771800994873046875e+00,4.482388323681088527e-01,0.000000000000000000e+00
1.000000000000000000e+00,1.000000000000000000e+00,1.000000000000000000e+00,5.000000000000000000e+01,2.188400000000000000e+04,3.022439479827880859e-01,1.856739997863769531e+00,5.715625291678050335e-01,0.000000000000000000e+00
1.000000000000000000e+00,1.000000000000000000e+00,1.000000000000000000e+00,5.100000000000000000e+01,2.193500000000000000e+04,2.596240043640136719e-01,1.812672138214111328e+00,5.675870371522603319e-01,0.000000000000000000e+00
1.000000000000000000e+00,1.000000000000000000e+00,1.000000000000000000e+00,5.300000000000000000e+01,2.198800000000000000e+04,2.661490440368652344e-01,1.748661994934082031e+00,4.830767911901112655e-01,0.000000000000000000e+00
1.000000000000000000e+00,1.000000000000000000e+00,1.000000000000000000e+00,5.300000000000000000e+01,2.204100000000000000e+04,2.411370277404785156e-01,1.842343807220458984e+00,6.086614509648817783e-01,0.000000000000000000e+00
1.000000000000000000e+00,1.000000000000000000e+00,1.000000000000000000e+00,5.600000000000000000e+01,2.209700000000000000e+04,2.318279743194580078e-01,1.760926961898803711e+00,5.363870121056215634e-01,0.000000000000000000e+00
1.000000000000000000e+00,1.000000000000000000e+00,1.000000000000000000e+00,5.200000000000000000e+01,2.214900000000000000e+04,2.722740173339843750e-01,1.942457914352416992e+00,6.787412395456242642e-01,0.000000000000000000e+00
1.000000000000000000e+00,0.000000000000000000e+00,0.000000000000000000e+00,5.000000000000000000e+01,2.219900000000000000e+04,1.859791278839111328e-01,1.664982080459594727e+00,4.939604191107577758e-01,0.000000000000000000e+00
0.000000000000000000e+00,1.000000000000000000e+00,0.000000000000000000e+00,5.400000000000000000e+01,2.225300000000000000e+04,5.813601016998291016e-01,1.849287986755371094e+00,2.768618939640781762e-01,0.000000000000000000e+00
0.000000000000000000e+00,1.000000000000000000e+00,0.000000000000000000e+00,5.100000000000000000e+01,2.230400000000000000e+04,3.154189586639404297e-01,2.022261142730712891e+00,7.153950527066963438e-01,0.000000000000000000e+00
0.000000000000000000e+00,1.000000000000000000e+00,0.000000000000000000e+00,5.000000000000000000e+01,2.235400000000000000e+04,2.191209793090820312e-01,1.955916881561279297e+00,7.380093462132779614e-01,0.000000000000000000e+00
1.000000000000000000e+00,1.000000000000000000e+00,1.000000000000000000e+00,5.000000000000000000e+01,2.240400000000000000e+04,3.192770481109619141e-01,1.729154109954833984e+00,4.175206835847725673e-01,0.000000000000000000e+00
1.000000000000000000e+00,1.000000000000000000e+00,1.000000000000000000e+00,5.700000000000000000e+01,2.246100000000000000e+04,3.110039234161376953e-01,1.607665061950683594e+00,2.920313008865970672e-01,0.000000000000000000e+00
0.000000000000000000e+00,1.000000000000000000e+00,0.000000000000000000e+00,5.100000000000000000e+01,2.251200000000000000e+04,3.229949474334716797e-01,1.827953815460205078e+00,5.198144982630130695e-01,0.000000000000000000e+00
0.000000000000000000e+00,1.000000000000000000e+00,0.000000000000000000e+00,5.300000000000000000e+01,2.256500000000000000e+04,3.778049945831298828e-01,1.882824182510375977e+00,5.027040341466415541e-01,0.000000000000000000e+00
0.000000000000000000e+00,1.000000000000000000e+00,0.000000000000000000e+00,5.100000000000000000e+01,2.261600000000000000e+04,2.875328063964843750e-01,1.591180086135864258e+00,3.107849614278857531e-01,0.000000000000000000e+00
1.000000000000000000e+00,1.000000000000000000e+00,1.000000000000000000e+00,5.400000000000000000e+01,2.267000000000000000e+04,4.183030128479003906e-01,1.789392948150634766e+00,3.834742301287682453e-01,0.000000000000000000e+00
1.000000000000000000e+00,1.000000000000000000e+00,1.000000000000000000e+00,5.100000000000000000e+01,2.272100000000000000e+04,2.982821464538574219e-01,1.882327079772949219e+00,5.823121960169070910e-01,0.000000000000000000e+00
1.000000000000000000e+00,1.000000000000000000e+00,1.000000000000000000e+00,5.100000000000000000e+01,2.277200000000000000e+04,2.229459285736083984e-01,1.927926063537597656e+00,7.101566883093407556e-01,0.000000000000000000e+00
1.000000000000000000e+00,1.000000000000000000e+00,1.000000000000000000e+00,5.200000000000000000e+01,2.282400000000000000e+04,2.333188056945800781e-01,1.685921907424926758e+00,4.630323196369421912e-01,0.000000000000000000e+00
1.000000000000000000e+00,1.000000000000000000e+00,1.000000000000000000e+00,5.300000000000000000e+01,2.287700000000000000e+04,2.830691337585449219e-01,1.666706085205078125e+00,3.965086619689040526e-01,0.000000000000000000e+00
1.000000000000000000e+00,1.000000000000000000e+00,1.000000000000000000e+00,5.200000000000000000e+01,2.292900000000000000e+04,2.405178546905517578e-01,1.652867078781127930e+00,4.326903770137842664e-01,0.000000000000000000e+00
1.000000000000000000e+00,0.000000000000000000e+00,0.000000000000000000e+00,4.900000000000000000e+01,2.297800000000000000e+04,1.909291744232177734e-01,1.732461929321289062e+00,5.484235698339976484e-01,0.000000000000000000e+00
1.000000000000000000e+00,1.000000000000000000e+00,1.000000000000000000e+00,5.500000000000000000e+01,2.303300000000000000e+04,3.521778583526611328e-01,2.083842039108276367e+00,7.487865844716008468e-01,0.000000000000000000e+00
0.000000000000000000e+00,1.000000000000000000e+00,0.000000000000000000e+00,5.400000000000000000e+01,2.308700000000000000e+04,3.364100456237792969e-01,1.892940044403076172e+00,5.586136678244206788e-01,0.000000000000000000e+00
0.000000000000000000e+00,1.000000000000000000e+00,0.000000000000000000e+00,5.300000000000000000e+01,2.314000000000000000e+04,3.051598072052001953e-01,1.913513183593750000e+00,6.221428343880351930e-01,0.000000000000000000e+00
1.000000000000000000e+00,1.000000000000000000e+00,1.000000000000000000e+00,5.600000000000000000e+01,2.319600000000000000e+04,3.455228805541992188e-01,1.661126852035522461e+00,3.169815375560936510e-01,0.000000000000000000e+00
0.000000000000000000e+00,1.000000000000000000e+00,0.000000000000000000e+00,5.100000000000000000e+01,2.324700000000000000e+04,3.809680938720703125e-01,2.053461074829101562e+00,6.701210057790722985e-01,0.000000000000000000e+00
1.000000000000000000e+00,1.000000000000000000e+00,1.000000000000000000e+00,5.300000000000000000e+01,2.330000000000000000e+04,2.780239582061767578e-01,2.018861055374145508e+00,7.389636999840643039e-01,0.000000000000000000e+00
0.000000000000000000e+00,1.000000000000000000e+00,0.000000000000000000e+00,5.500000000000000000e+01,2.335500000000000000e+04,3.554310798645019531e-01,1.878699064254760742e+00,5.346056612152648713e-01,0.000000000000000000e+00
0.000000000000000000e+00,1.000000000000000000e+00,0.000000000000000000e+00,5.100000000000000000e+01,2.340600000000000000e+04,3.211338520050048828e-01,2.008378028869628906e+00,6.928600514726350745e-01,0.000000000000000000e+00
1.000000000000000000e+00,1.000000000000000000e+00,1.000000000000000000e+00,5.500000000000000000e+01,2.346100000000000000e+04,2.432720661163330078e-01,1.482409954071044922e+00,2.591107152044771489e-01,0.000000000000000000e+00
0.000000000000000000e+00,1.000000000000000000e+00,0.000000000000000000e+00,5.000000000000000000e+01,2.351100000000000000e+04,3.859398365020751953e-01,1.897782087326049805e+00,5.232960214698904045e-01,0.000000000000000000e+00
0.000000000000000000e+00,1.000000000000000000e+00,0.000000000000000000e+00,5.700000000000000000e+01,2.356800000000000000e+04,3.169369697570800781e-01,1.560432910919189453e+00,2.507452329833944060e-01,0.000000000000000000e+00
1.000000000000000000e+00,1.000000000000000000e+00,1.000000000000000000e+00,5.000000000000000000e+01,2.361800000000000000e+04,3.592801094055175781e-01,1.706365108489990234e+00,3.570369627757380426e-01,0.000000000000000000e+00
