choice, accuracy, solution,  reward, cumulative_reward, rt,  total_trial_time, iti, cp_with_slow_fast, high_val_cue
0.000000000000000000e+00,0.000000000000000000e+00,1.000000000000000000e+00,3.400000000000000000e+01,3.400000000000000000e+01,6.679110527038574219e-01,2.338732957839965820e+00,6.734682034702401676e-01,0.000000000000000000e+00,1.120000000000000000e+02
1.000000000000000000e+00,1.000000000000000000e+00,1.000000000000000000e+00,5.900000000000000000e+01,9.300000000000000000e+01,3.266379833221435547e-01,2.076481103897094727e+00,7.499372946202634838e-01,0.000000000000000000e+00,1.120000000000000000e+02
0.000000000000000000e+00,1.000000000000000000e+00,0.000000000000000000e+00,6.600000000000000000e+01,1.590000000000000000e+02,2.993469238281250000e-01,1.779777050018310547e+00,4.799940191256030220e-01,0.000000000000000000e+00,1.120000000000000000e+02
0.000000000000000000e+00,1.000000000000000000e+00,0.000000000000000000e+00,5.500000000000000000e+01,2.140000000000000000e+02,3.099110126495361328e-01,1.658686876296997070e+00,3.555277237150144543e-01,0.000000000000000000e+00,1.120000000000000000e+02
1.000000000000000000e+00,1.000000000000000000e+00,1.000000000000000000e+00,5.700000000000000000e+01,2.710000000000000000e+02,3.210780620574951172e-01,2.045269966125488281e+00,7.337193749059154335e-01,0.000000000000000000e+00,1.120000000000000000e+02
1.000000000000000000e+00,1.000000000000000000e+00,1.000000000000000000e+00,6.000000000000000000e+01,3.310000000000000000e+02,3.211090564727783203e-01,1.841453075408935547e+00,5.254528612132012277e-01,0.000000000000000000e+00,1.120000000000000000e+02
0.000000000000000000e+00,1.000000000000000000e+00,0.000000000000000000e+00,6.300000000000000000e+01,3.940000000000000000e+02,3.538448810577392578e-01,2.004247903823852539e+00,6.629079521051988166e-01,0.000000000000000000e+00,1.120000000000000000e+02
0.000000000000000000e+00,1.000000000000000000e+00,0.000000000000000000e+00,6.000000000000000000e+01,4.540000000000000000e+02,3.419148921966552734e-01,1.615952014923095703e+00,2.959783331074540280e-01,0.000000000000000000e+00,1.120000000000000000e+02
1.000000000000000000e+00,1.000000000000000000e+00,1.000000000000000000e+00,6.000000000000000000e+01,5.140000000000000000e+02,3.424031734466552734e-01,1.807107925415039062e+00,4.862230710961716884e-01,0.000000000000000000e+00,1.120000000000000000e+02
0.000000000000000000e+00,1.000000000000000000e+00,0.000000000000000000e+00,6.100000000000000000e+01,5.750000000000000000e+02,3.087821006774902344e-01,1.945599079132080078e+00,6.483496578983125591e-01,0.000000000000000000e+00,1.120000000000000000e+02
1.000000000000000000e+00,1.000000000000000000e+00,1.000000000000000000e+00,6.500000000000000000e+01,6.400000000000000000e+02,3.955011367797851562e-01,2.039105892181396484e+00,6.543761477421575767e-01,0.000000000000000000e+00,1.120000000000000000e+02
0.000000000000000000e+00,1.000000000000000000e+00,0.000000000000000000e+00,6.100000000000000000e+01,7.010000000000000000e+02,2.944231033325195312e-01,1.929711103439331055e+00,6.505492210741216086e-01,0.000000000000000000e+00,1.120000000000000000e+02
1.000000000000000000e+00,1.000000000000000000e+00,1.000000000000000000e+00,5.700000000000000000e+01,7.580000000000000000e+02,3.142681121826171875e-01,1.616693019866943359e+00,3.009553834797365490e-01,0.000000000000000000e+00,1.120000000000000000e+02
1.000000000000000000e+00,1.000000000000000000e+00,1.000000000000000000e+00,5.700000000000000000e+01,8.150000000000000000e+02,3.703789710998535156e-01,1.744193077087402344e+00,3.784459379239206722e-01,0.000000000000000000e+00,1.120000000000000000e+02
0.000000000000000000e+00,1.000000000000000000e+00,0.000000000000000000e+00,6.400000000000000000e+01,8.790000000000000000e+02,3.364229202270507812e-01,2.024263858795166016e+00,7.024158276920412503e-01,0.000000000000000000e+00,1.120000000000000000e+02
1.000000000000000000e+00,1.000000000000000000e+00,1.000000000000000000e+00,6.300000000000000000e+01,9.420000000000000000e+02,3.400938510894775391e-01,1.875308990478515625e+00,5.445637019401383672e-01,0.000000000000000000e+00,1.120000000000000000e+02
1.000000000000000000e+00,1.000000000000000000e+00,1.000000000000000000e+00,6.100000000000000000e+01,1.003000000000000000e+03,3.435518741607666016e-01,2.035214900970458984e+00,6.963440635320463645e-01,0.000000000000000000e+00,1.120000000000000000e+02
0.000000000000000000e+00,1.000000000000000000e+00,0.000000000000000000e+00,6.700000000000000000e+01,1.070000000000000000e+03,3.402349948883056641e-01,2.053281784057617188e+00,7.329724477929788762e-01,0.000000000000000000e+00,1.120000000000000000e+02
0.000000000000000000e+00,1.000000000000000000e+00,0.000000000000000000e+00,6.700000000000000000e+01,1.137000000000000000e+03,2.917590141296386719e-01,1.748311042785644531e+00,4.649073024966320911e-01,0.000000000000000000e+00,1.120000000000000000e+02
1.000000000000000000e+00,1.000000000000000000e+00,1.000000000000000000e+00,6.400000000000000000e+01,1.201000000000000000e+03,3.814079761505126953e-01,1.920457124710083008e+00,5.519525846086290599e-01,0.000000000000000000e+00,1.120000000000000000e+02
0.000000000000000000e+00,1.000000000000000000e+00,0.000000000000000000e+00,6.000000000000000000e+01,1.261000000000000000e+03,3.621211051940917969e-01,2.095524072647094727e+00,7.307029680071943645e-01,0.000000000000000000e+00,1.120000000000000000e+02
0.000000000000000000e+00,1.000000000000000000e+00,0.000000000000000000e+00,6.000000000000000000e+01,1.321000000000000000e+03,3.609161376953125000e-01,2.062372922897338867e+00,7.263719889640802840e-01,0.000000000000000000e+00,1.120000000000000000e+02
1.000000000000000000e+00,1.000000000000000000e+00,1.000000000000000000e+00,6.200000000000000000e+01,1.383000000000000000e+03,3.423080444335937500e-01,2.056380987167358398e+00,7.328628210180411218e-01,0.000000000000000000e+00,1.120000000000000000e+02
0.000000000000000000e+00,1.000000000000000000e+00,0.000000000000000000e+00,5.600000000000000000e+01,1.439000000000000000e+03,3.056390285491943359e-01,1.830792903900146484e+00,5.305147337545321751e-01,0.000000000000000000e+00,1.120000000000000000e+02
0.000000000000000000e+00,1.000000000000000000e+00,0.000000000000000000e+00,5.700000000000000000e+01,1.496000000000000000e+03,3.400568962097167969e-01,1.674007177352905273e+00,3.547302405829580452e-01,0.000000000000000000e+00,1.120000000000000000e+02
1.000000000000000000e+00,1.000000000000000000e+00,1.000000000000000000e+00,6.000000000000000000e+01,1.556000000000000000e+03,3.037791252136230469e-01,1.561820983886718750e+00,2.666954337180998946e-01,0.000000000000000000e+00,1.120000000000000000e+02
0.000000000000000000e+00,1.000000000000000000e+00,0.000000000000000000e+00,5.600000000000000000e+01,1.612000000000000000e+03,3.391258716583251953e-01,1.695918083190917969e+00,3.625532794935374947e-01,0.000000000000000000e+00,1.120000000000000000e+02
0.000000000000000000e+00,1.000000000000000000e+00,0.000000000000000000e+00,6.100000000000000000e+01,1.673000000000000000e+03,3.728859424591064453e-01,1.687644004821777344e+00,3.335908767828853483e-01,0.000000000000000000e+00,1.120000000000000000e+02
0.000000000000000000e+00,0.000000000000000000e+00,1.000000000000000000e+00,3.600000000000000000e+01,1.709000000000000000e+03,2.708830833435058594e-01,1.898233890533447266e+00,6.315606278073431223e-01,0.000000000000000000e+00,1.120000000000000000e+02
0.000000000000000000e+00,1.000000000000000000e+00,0.000000000000000000e+00,6.100000000000000000e+01,1.770000000000000000e+03,3.837060928344726562e-01,1.640730857849121094e+00,2.726617717754190040e-01,0.000000000000000000e+00,1.120000000000000000e+02
0.000000000000000000e+00,1.000000000000000000e+00,0.000000000000000000e+00,5.700000000000000000e+01,1.827000000000000000e+03,3.037140369415283203e-01,1.900485992431640625e+00,6.061583087896591504e-01,0.000000000000000000e+00,1.120000000000000000e+02
1.000000000000000000e+00,1.000000000000000000e+00,1.000000000000000000e+00,6.000000000000000000e+01,1.887000000000000000e+03,2.857937812805175781e-01,1.727898836135864258e+00,4.509121963581603776e-01,0.000000000000000000e+00,1.120000000000000000e+02
0.000000000000000000e+00,1.000000000000000000e+00,0.000000000000000000e+00,6.200000000000000000e+01,1.949000000000000000e+03,2.934978008270263672e-01,1.899341106414794922e+00,6.168397920538877255e-01,0.000000000000000000e+00,1.120000000000000000e+02
1.000000000000000000e+00,1.000000000000000000e+00,1.000000000000000000e+00,5.600000000000000000e+01,2.005000000000000000e+03,3.295998573303222656e-01,1.912377119064331055e+00,5.792186472889045978e-01,0.000000000000000000e+00,1.120000000000000000e+02
1.000000000000000000e+00,1.000000000000000000e+00,1.000000000000000000e+00,5.700000000000000000e+01,2.062000000000000000e+03,2.976419925689697266e-01,1.561567068099975586e+00,2.744968509344126173e-01,0.000000000000000000e+00,1.120000000000000000e+02
1.000000000000000000e+00,1.000000000000000000e+00,1.000000000000000000e+00,6.600000000000000000e+01,2.128000000000000000e+03,3.139460086822509766e-01,1.904942989349365234e+00,5.958097609065382549e-01,0.000000000000000000e+00,1.120000000000000000e+02
1.000000000000000000e+00,1.000000000000000000e+00,1.000000000000000000e+00,5.900000000000000000e+01,2.187000000000000000e+03,2.769908905029296875e-01,1.745270967483520508e+00,4.912212317708187781e-01,0.000000000000000000e+00,1.120000000000000000e+02
1.000000000000000000e+00,1.000000000000000000e+00,1.000000000000000000e+00,6.000000000000000000e+01,2.247000000000000000e+03,2.580659389495849609e-01,1.664984941482543945e+00,4.229517358449269571e-01,0.000000000000000000e+00,1.120000000000000000e+02
0.000000000000000000e+00,1.000000000000000000e+00,0.000000000000000000e+00,5.900000000000000000e+01,2.306000000000000000e+03,2.925031185150146484e-01,1.693387985229492188e+00,4.163928444865741541e-01,0.000000000000000000e+00,1.120000000000000000e+02
1.000000000000000000e+00,1.000000000000000000e+00,1.000000000000000000e+00,6.200000000000000000e+01,2.368000000000000000e+03,3.305590152740478516e-01,2.067589998245239258e+00,7.336776242880462817e-01,0.000000000000000000e+00,1.120000000000000000e+02
1.000000000000000000e+00,1.000000000000000000e+00,1.000000000000000000e+00,5.600000000000000000e+01,2.424000000000000000e+03,5.070030689239501953e-01,1.787054061889648438e+00,2.878969038430898020e-01,0.000000000000000000e+00,1.120000000000000000e+02
0.000000000000000000e+00,0.000000000000000000e+00,1.000000000000000000e+00,3.800000000000000000e+01,2.462000000000000000e+03,3.347010612487792969e-01,1.768623113632202148e+00,4.397340585511370636e-01,0.000000000000000000e+00,1.120000000000000000e+02
1.000000000000000000e+00,1.000000000000000000e+00,1.000000000000000000e+00,5.700000000000000000e+01,2.519000000000000000e+03,2.542240619659423828e-01,1.714829921722412109e+00,4.711682811832518802e-01,0.000000000000000000e+00,1.120000000000000000e+02
1.000000000000000000e+00,1.000000000000000000e+00,1.000000000000000000e+00,5.600000000000000000e+01,2.575000000000000000e+03,2.915289402008056641e-01,1.939621925354003906e+00,6.606736673330554366e-01,0.000000000000000000e+00,1.120000000000000000e+02
0.000000000000000000e+00,1.000000000000000000e+00,0.000000000000000000e+00,7.200000000000000000e+01,2.647000000000000000e+03,3.662409782409667969e-01,1.969070911407470703e+00,6.131804558861640997e-01,0.000000000000000000e+00,1.120000000000000000e+02
0.000000000000000000e+00,1.000000000000000000e+00,0.000000000000000000e+00,6.000000000000000000e+01,2.707000000000000000e+03,2.788021564483642578e-01,1.770590066909790039e+00,5.005872168937663957e-01,0.000000000000000000e+00,1.120000000000000000e+02
0.000000000000000000e+00,1.000000000000000000e+00,0.000000000000000000e+00,5.700000000000000000e+01,2.764000000000000000e+03,2.794210910797119141e-01,1.766830921173095703e+00,4.841049863201979941e-01,0.000000000000000000e+00,1.120000000000000000e+02
1.000000000000000000e+00,1.000000000000000000e+00,1.000000000000000000e+00,5.900000000000000000e+01,2.823000000000000000e+03,3.058362007141113281e-01,1.995021104812622070e+00,6.955922421192886063e-01,0.000000000000000000e+00,1.120000000000000000e+02
0.000000000000000000e+00,1.000000000000000000e+00,0.000000000000000000e+00,6.400000000000000000e+01,2.887000000000000000e+03,3.275361061096191406e-01,1.908389091491699219e+00,5.875055351009708104e-01,0.000000000000000000e+00,1.120000000000000000e+02
1.000000000000000000e+00,1.000000000000000000e+00,1.000000000000000000e+00,6.100000000000000000e+01,2.948000000000000000e+03,3.379220962524414062e-01,1.763494014739990234e+00,4.344950472028444866e-01,0.000000000000000000e+00,1.120000000000000000e+02
0.000000000000000000e+00,1.000000000000000000e+00,0.000000000000000000e+00,5.600000000000000000e+01,3.004000000000000000e+03,3.402919769287109375e-01,1.727756977081298828e+00,3.956673739091302600e-01,0.000000000000000000e+00,1.120000000000000000e+02
1.000000000000000000e+00,1.000000000000000000e+00,1.000000000000000000e+00,5.900000000000000000e+01,3.063000000000000000e+03,3.857359886169433594e-01,1.869620800018310547e+00,4.985176436800161093e-01,0.000000000000000000e+00,1.120000000000000000e+02
0.000000000000000000e+00,1.000000000000000000e+00,0.000000000000000000e+00,5.600000000000000000e+01,3.119000000000000000e+03,3.451509475708007812e-01,1.628800153732299805e+00,2.942199257359395248e-01,0.000000000000000000e+00,1.120000000000000000e+02
1.000000000000000000e+00,1.000000000000000000e+00,1.000000000000000000e+00,5.900000000000000000e+01,3.178000000000000000e+03,3.298718929290771484e-01,1.728519916534423828e+00,4.060039669245932292e-01,0.000000000000000000e+00,1.120000000000000000e+02
1.000000000000000000e+00,1.000000000000000000e+00,1.000000000000000000e+00,6.100000000000000000e+01,3.239000000000000000e+03,2.995629310607910156e-01,1.998434066772460938e+00,7.042096851062992213e-01,0.000000000000000000e+00,1.120000000000000000e+02
1.000000000000000000e+00,1.000000000000000000e+00,1.000000000000000000e+00,6.100000000000000000e+01,3.300000000000000000e+03,3.436360359191894531e-01,1.637585163116455078e+00,3.088822096243931670e-01,0.000000000000000000e+00,1.120000000000000000e+02
0.000000000000000000e+00,1.000000000000000000e+00,0.000000000000000000e+00,6.300000000000000000e+01,3.363000000000000000e+03,3.413460254669189453e-01,1.975083827972412109e+00,6.503020576935305552e-01,0.000000000000000000e+00,1.120000000000000000e+02
1.000000000000000000e+00,1.000000000000000000e+00,1.000000000000000000e+00,6.100000000000000000e+01,3.424000000000000000e+03,3.430929183959960938e-01,2.044428825378417969e+00,7.113745644016074010e-01,0.000000000000000000e+00,1.120000000000000000e+02
0.000000000000000000e+00,1.000000000000000000e+00,0.000000000000000000e+00,6.000000000000000000e+01,3.484000000000000000e+03,3.748900890350341797e-01,1.723122119903564453e+00,3.682447596246864463e-01,0.000000000000000000e+00,1.120000000000000000e+02
1.000000000000000000e+00,1.000000000000000000e+00,1.000000000000000000e+00,6.300000000000000000e+01,3.547000000000000000e+03,3.496339321136474609e-01,2.039053916931152344e+00,6.902684027883456697e-01,0.000000000000000000e+00,1.120000000000000000e+02
1.000000000000000000e+00,1.000000000000000000e+00,1.000000000000000000e+00,6.000000000000000000e+01,3.607000000000000000e+03,2.813169956207275391e-01,1.882666110992431641e+00,6.063719375184217775e-01,0.000000000000000000e+00,1.120000000000000000e+02
0.000000000000000000e+00,1.000000000000000000e+00,0.000000000000000000e+00,6.400000000000000000e+01,3.671000000000000000e+03,3.569700717926025391e-01,1.955035924911499023e+00,6.114867684932493441e-01,0.000000000000000000e+00,1.120000000000000000e+02
0.000000000000000000e+00,1.000000000000000000e+00,0.000000000000000000e+00,6.000000000000000000e+01,3.731000000000000000e+03,3.501489162445068359e-01,1.924422979354858398e+00,5.859609010426722886e-01,0.000000000000000000e+00,1.120000000000000000e+02
0.000000000000000000e+00,1.000000000000000000e+00,0.000000000000000000e+00,6.800000000000000000e+01,3.799000000000000000e+03,3.488180637359619141e-01,1.800723075866699219e+00,4.535172275692870292e-01,0.000000000000000000e+00,1.120000000000000000e+02
0.000000000000000000e+00,1.000000000000000000e+00,0.000000000000000000e+00,6.300000000000000000e+01,3.862000000000000000e+03,4.449629783630371094e-01,2.056101083755493164e+00,6.094545818999422826e-01,0.000000000000000000e+00,1.120000000000000000e+02
0.000000000000000000e+00,1.000000000000000000e+00,0.000000000000000000e+00,5.600000000000000000e+01,3.918000000000000000e+03,2.979440689086914062e-01,1.878186941146850586e+00,5.877226832807325163e-01,0.000000000000000000e+00,1.120000000000000000e+02
0.000000000000000000e+00,1.000000000000000000e+00,0.000000000000000000e+00,5.600000000000000000e+01,3.974000000000000000e+03,3.046579360961914062e-01,1.716494083404541016e+00,4.210871930294890486e-01,0.000000000000000000e+00,1.120000000000000000e+02
0.000000000000000000e+00,1.000000000000000000e+00,0.000000000000000000e+00,6.000000000000000000e+01,4.034000000000000000e+03,2.631018161773681641e-01,1.714988946914672852e+00,4.527616378786497031e-01,0.000000000000000000e+00,1.120000000000000000e+02
1.000000000000000000e+00,1.000000000000000000e+00,1.000000000000000000e+00,6.400000000000000000e+01,4.098000000000000000e+03,3.755149841308593750e-01,1.749794006347656250e+00,3.859656627509912008e-01,0.000000000000000000e+00,1.120000000000000000e+02
1.000000000000000000e+00,1.000000000000000000e+00,1.000000000000000000e+00,6.200000000000000000e+01,4.160000000000000000e+03,3.225660324096679688e-01,1.563892126083374023e+00,2.500303890345612623e-01,0.000000000000000000e+00,1.120000000000000000e+02
1.000000000000000000e+00,1.000000000000000000e+00,1.000000000000000000e+00,6.600000000000000000e+01,4.226000000000000000e+03,3.919229507446289062e-01,1.887090921401977539e+00,5.035430274750352098e-01,0.000000000000000000e+00,1.120000000000000000e+02
0.000000000000000000e+00,1.000000000000000000e+00,0.000000000000000000e+00,5.600000000000000000e+01,4.282000000000000000e+03,3.326909542083740234e-01,1.782589912414550781e+00,4.528916093386091135e-01,0.000000000000000000e+00,1.120000000000000000e+02
1.000000000000000000e+00,1.000000000000000000e+00,1.000000000000000000e+00,5.600000000000000000e+01,4.338000000000000000e+03,3.654298782348632812e-01,1.636168003082275391e+00,2.726133399021227754e-01,0.000000000000000000e+00,1.120000000000000000e+02
0.000000000000000000e+00,1.000000000000000000e+00,0.000000000000000000e+00,6.100000000000000000e+01,4.399000000000000000e+03,3.431148529052734375e-01,1.712527036666870117e+00,3.850580319923395112e-01,0.000000000000000000e+00,1.120000000000000000e+02
1.000000000000000000e+00,1.000000000000000000e+00,1.000000000000000000e+00,6.300000000000000000e+01,4.462000000000000000e+03,2.714090347290039062e-01,1.744472026824951172e+00,4.794569986601643352e-01,0.000000000000000000e+00,1.120000000000000000e+02
1.000000000000000000e+00,1.000000000000000000e+00,1.000000000000000000e+00,6.000000000000000000e+01,4.522000000000000000e+03,3.102638721466064453e-01,1.575314044952392578e+00,2.883194761947044382e-01,0.000000000000000000e+00,1.120000000000000000e+02
0.000000000000000000e+00,1.000000000000000000e+00,0.000000000000000000e+00,6.100000000000000000e+01,4.583000000000000000e+03,3.519680500030517578e-01,2.074239015579223633e+00,7.288379741223227626e-01,0.000000000000000000e+00,1.120000000000000000e+02
1.000000000000000000e+00,1.000000000000000000e+00,1.000000000000000000e+00,6.500000000000000000e+01,4.648000000000000000e+03,3.414549827575683594e-01,1.998854875564575195e+00,6.777258465842730395e-01,0.000000000000000000e+00,1.120000000000000000e+02
1.000000000000000000e+00,1.000000000000000000e+00,1.000000000000000000e+00,6.400000000000000000e+01,4.712000000000000000e+03,3.144261837005615234e-01,1.620443105697631836e+00,3.152745880464573047e-01,0.000000000000000000e+00,1.120000000000000000e+02
0.000000000000000000e+00,1.000000000000000000e+00,0.000000000000000000e+00,6.300000000000000000e+01,4.775000000000000000e+03,3.488011360168457031e-01,1.649026870727539062e+00,3.143345786904818140e-01,0.000000000000000000e+00,1.120000000000000000e+02
0.000000000000000000e+00,1.000000000000000000e+00,0.000000000000000000e+00,6.400000000000000000e+01,4.839000000000000000e+03,3.447818756103515625e-01,1.828688859939575195e+00,4.928522350151678388e-01,0.000000000000000000e+00,1.120000000000000000e+02
0.000000000000000000e+00,1.000000000000000000e+00,0.000000000000000000e+00,6.200000000000000000e+01,4.901000000000000000e+03,2.555830478668212891e-01,1.981731176376342773e+00,7.410424469074268217e-01,0.000000000000000000e+00,1.120000000000000000e+02
1.000000000000000000e+00,1.000000000000000000e+00,1.000000000000000000e+00,6.100000000000000000e+01,4.962000000000000000e+03,2.903289794921875000e-01,1.699155807495117188e+00,4.238628695222942944e-01,0.000000000000000000e+00,1.120000000000000000e+02
0.000000000000000000e+00,1.000000000000000000e+00,0.000000000000000000e+00,6.300000000000000000e+01,5.025000000000000000e+03,3.553409576416015625e-01,1.593951225280761719e+00,2.513867086656731975e-01,0.000000000000000000e+00,1.120000000000000000e+02
1.000000000000000000e+00,1.000000000000000000e+00,1.000000000000000000e+00,6.400000000000000000e+01,5.089000000000000000e+03,3.174390792846679688e-01,1.878857851028442383e+00,5.632710054533882627e-01,0.000000000000000000e+00,1.120000000000000000e+02
0.000000000000000000e+00,1.000000000000000000e+00,0.000000000000000000e+00,6.300000000000000000e+01,5.152000000000000000e+03,3.408598899841308594e-01,2.004158973693847656e+00,6.840254004759045436e-01,0.000000000000000000e+00,1.120000000000000000e+02
1.000000000000000000e+00,1.000000000000000000e+00,1.000000000000000000e+00,6.200000000000000000e+01,5.214000000000000000e+03,3.151388168334960938e-01,1.585653066635131836e+00,2.701228991946169611e-01,0.000000000000000000e+00,1.120000000000000000e+02
1.000000000000000000e+00,1.000000000000000000e+00,1.000000000000000000e+00,6.200000000000000000e+01,5.276000000000000000e+03,3.109440803527832031e-01,1.940441131591796875e+00,6.435578315888184076e-01,0.000000000000000000e+00,1.120000000000000000e+02
0.000000000000000000e+00,1.000000000000000000e+00,0.000000000000000000e+00,5.700000000000000000e+01,5.333000000000000000e+03,2.716560363769531250e-01,1.614326000213623047e+00,3.581894247737312242e-01,0.000000000000000000e+00,1.120000000000000000e+02
1.000000000000000000e+00,1.000000000000000000e+00,1.000000000000000000e+00,5.600000000000000000e+01,5.389000000000000000e+03,3.121840953826904297e-01,1.913737058639526367e+00,6.050600022857481886e-01,0.000000000000000000e+00,1.120000000000000000e+02
1.000000000000000000e+00,1.000000000000000000e+00,1.000000000000000000e+00,6.100000000000000000e+01,5.450000000000000000e+03,3.415141105651855469e-01,1.786668062210083008e+00,4.585590391497713081e-01,0.000000000000000000e+00,1.120000000000000000e+02
0.000000000000000000e+00,1.000000000000000000e+00,0.000000000000000000e+00,6.300000000000000000e+01,5.513000000000000000e+03,3.761768341064453125e-01,1.736295938491821289e+00,3.782954807943146869e-01,0.000000000000000000e+00,1.120000000000000000e+02
0.000000000000000000e+00,1.000000000000000000e+00,0.000000000000000000e+00,5.900000000000000000e+01,5.572000000000000000e+03,3.018710613250732422e-01,1.699954986572265625e+00,4.115971499776509557e-01,0.000000000000000000e+00,1.120000000000000000e+02
0.000000000000000000e+00,0.000000000000000000e+00,1.000000000000000000e+00,3.200000000000000000e+01,5.604000000000000000e+03,3.689980506896972656e-01,1.665984153747558594e+00,3.110448467733133993e-01,1.000000000000000000e+00,1.110000000000000000e+02
1.000000000000000000e+00,0.000000000000000000e+00,0.000000000000000000e+00,2.800000000000000000e+01,5.632000000000000000e+03,3.314280509948730469e-01,1.699521064758300781e+00,3.771806495537891046e-01,0.000000000000000000e+00,1.110000000000000000e+02
1.000000000000000000e+00,1.000000000000000000e+00,1.000000000000000000e+00,6.700000000000000000e+01,5.699000000000000000e+03,3.284380435943603516e-01,2.031337976455688477e+00,7.082272488507110886e-01,0.000000000000000000e+00,1.110000000000000000e+02
0.000000000000000000e+00,1.000000000000000000e+00,0.000000000000000000e+00,5.400000000000000000e+01,5.753000000000000000e+03,2.992081642150878906e-01,1.796083927154541016e+00,5.045596598724195747e-01,0.000000000000000000e+00,1.110000000000000000e+02
0.000000000000000000e+00,1.000000000000000000e+00,0.000000000000000000e+00,6.500000000000000000e+01,5.818000000000000000e+03,2.923049926757812500e-01,1.713869094848632812e+00,4.351764872691031849e-01,0.000000000000000000e+00,1.110000000000000000e+02
1.000000000000000000e+00,1.000000000000000000e+00,1.000000000000000000e+00,6.100000000000000000e+01,5.879000000000000000e+03,3.256208896636962891e-01,1.709326028823852539e+00,3.945721542238337931e-01,0.000000000000000000e+00,1.110000000000000000e+02
1.000000000000000000e+00,1.000000000000000000e+00,1.000000000000000000e+00,6.400000000000000000e+01,5.943000000000000000e+03,2.846939563751220703e-01,1.578006029129028320e+00,3.060851350868978304e-01,0.000000000000000000e+00,1.110000000000000000e+02
1.000000000000000000e+00,1.000000000000000000e+00,1.000000000000000000e+00,6.500000000000000000e+01,6.008000000000000000e+03,2.854149341583251953e-01,1.647830963134765625e+00,3.704922166107224579e-01,0.000000000000000000e+00,1.110000000000000000e+02
1.000000000000000000e+00,1.000000000000000000e+00,1.000000000000000000e+00,6.500000000000000000e+01,6.073000000000000000e+03,2.864551544189453125e-01,1.849100112915039062e+00,5.694193188389764515e-01,0.000000000000000000e+00,1.110000000000000000e+02
1.000000000000000000e+00,1.000000000000000000e+00,1.000000000000000000e+00,6.600000000000000000e+01,6.139000000000000000e+03,2.375390529632568359e-01,1.883732080459594727e+00,6.531139816566529088e-01,0.000000000000000000e+00,1.110000000000000000e+02
1.000000000000000000e+00,1.000000000000000000e+00,1.000000000000000000e+00,6.200000000000000000e+01,6.201000000000000000e+03,3.293280601501464844e-01,1.952730894088745117e+00,6.225552564525658195e-01,0.000000000000000000e+00,1.110000000000000000e+02
1.000000000000000000e+00,1.000000000000000000e+00,1.000000000000000000e+00,6.200000000000000000e+01,6.263000000000000000e+03,2.423231601715087891e-01,1.528273105621337891e+00,3.011876673580244912e-01,0.000000000000000000e+00,1.110000000000000000e+02
1.000000000000000000e+00,1.000000000000000000e+00,1.000000000000000000e+00,6.300000000000000000e+01,6.326000000000000000e+03,2.580499649047851562e-01,1.809860944747924805e+00,5.608262436515267790e-01,0.000000000000000000e+00,1.110000000000000000e+02
0.000000000000000000e+00,1.000000000000000000e+00,0.000000000000000000e+00,6.400000000000000000e+01,6.390000000000000000e+03,4.361269474029541016e-01,1.752403020858764648e+00,3.301616512137549031e-01,0.000000000000000000e+00,1.110000000000000000e+02
1.000000000000000000e+00,1.000000000000000000e+00,1.000000000000000000e+00,6.300000000000000000e+01,6.453000000000000000e+03,3.231570720672607422e-01,1.974974155426025391e+00,6.715108864506369457e-01,0.000000000000000000e+00,1.110000000000000000e+02
1.000000000000000000e+00,1.000000000000000000e+00,1.000000000000000000e+00,6.600000000000000000e+01,6.519000000000000000e+03,2.509570121765136719e-01,1.639023065567016602e+00,3.941595594665598945e-01,0.000000000000000000e+00,1.110000000000000000e+02
1.000000000000000000e+00,1.000000000000000000e+00,1.000000000000000000e+00,6.100000000000000000e+01,6.580000000000000000e+03,2.896199226379394531e-01,1.967391967773437500e+00,6.946038733611227256e-01,0.000000000000000000e+00,1.110000000000000000e+02
0.000000000000000000e+00,1.000000000000000000e+00,0.000000000000000000e+00,6.200000000000000000e+01,6.642000000000000000e+03,4.320459365844726562e-01,2.168608903884887695e+00,7.465589380744885872e-01,0.000000000000000000e+00,1.110000000000000000e+02
1.000000000000000000e+00,1.000000000000000000e+00,1.000000000000000000e+00,6.700000000000000000e+01,6.709000000000000000e+03,4.034969806671142578e-01,1.974864959716796875e+00,5.882689934370093354e-01,0.000000000000000000e+00,1.110000000000000000e+02
1.000000000000000000e+00,1.000000000000000000e+00,1.000000000000000000e+00,5.900000000000000000e+01,6.768000000000000000e+03,3.051950931549072266e-01,1.996745109558105469e+00,7.016104474612241404e-01,0.000000000000000000e+00,1.110000000000000000e+02
0.000000000000000000e+00,1.000000000000000000e+00,0.000000000000000000e+00,6.200000000000000000e+01,6.830000000000000000e+03,3.623249530792236328e-01,1.951658964157104492e+00,5.867126620968375894e-01,0.000000000000000000e+00,1.110000000000000000e+02
1.000000000000000000e+00,1.000000000000000000e+00,1.000000000000000000e+00,5.900000000000000000e+01,6.889000000000000000e+03,3.222877979278564453e-01,1.718715190887451172e+00,4.056534091326565727e-01,0.000000000000000000e+00,1.110000000000000000e+02
1.000000000000000000e+00,1.000000000000000000e+00,1.000000000000000000e+00,6.300000000000000000e+01,6.952000000000000000e+03,2.666862010955810547e-01,1.756994009017944336e+00,4.959242523036019312e-01,0.000000000000000000e+00,1.110000000000000000e+02
0.000000000000000000e+00,1.000000000000000000e+00,0.000000000000000000e+00,6.000000000000000000e+01,7.012000000000000000e+03,2.927780151367187500e-01,1.918780088424682617e+00,6.479347818819882754e-01,0.000000000000000000e+00,1.110000000000000000e+02
0.000000000000000000e+00,1.000000000000000000e+00,0.000000000000000000e+00,6.100000000000000000e+01,7.073000000000000000e+03,3.402681350708007812e-01,1.673117876052856445e+00,3.547100768499198975e-01,0.000000000000000000e+00,1.110000000000000000e+02
1.000000000000000000e+00,1.000000000000000000e+00,1.000000000000000000e+00,6.300000000000000000e+01,7.136000000000000000e+03,3.639321327209472656e-01,1.784995079040527344e+00,4.230069918731629297e-01,0.000000000000000000e+00,1.110000000000000000e+02
0.000000000000000000e+00,1.000000000000000000e+00,0.000000000000000000e+00,6.200000000000000000e+01,7.198000000000000000e+03,3.776209354400634766e-01,2.080823898315429688e+00,7.035693161930280937e-01,0.000000000000000000e+00,1.110000000000000000e+02
0.000000000000000000e+00,1.000000000000000000e+00,0.000000000000000000e+00,6.400000000000000000e+01,7.262000000000000000e+03,3.763699531555175781e-01,1.963106870651245117e+00,6.001668816981128307e-01,0.000000000000000000e+00,1.110000000000000000e+02
1.000000000000000000e+00,1.000000000000000000e+00,1.000000000000000000e+00,6.800000000000000000e+01,7.330000000000000000e+03,3.468110561370849609e-01,1.617856025695800781e+00,2.683781468011703919e-01,0.000000000000000000e+00,1.110000000000000000e+02
0.000000000000000000e+00,1.000000000000000000e+00,0.000000000000000000e+00,6.600000000000000000e+01,7.396000000000000000e+03,3.501269817352294922e-01,1.781114101409912109e+00,4.326882982437845748e-01,0.000000000000000000e+00,1.110000000000000000e+02
1.000000000000000000e+00,1.000000000000000000e+00,1.000000000000000000e+00,6.500000000000000000e+01,7.461000000000000000e+03,3.429160118103027344e-01,2.062082052230834961e+00,7.278132201421924075e-01,0.000000000000000000e+00,1.110000000000000000e+02
1.000000000000000000e+00,1.000000000000000000e+00,1.000000000000000000e+00,6.200000000000000000e+01,7.523000000000000000e+03,3.349621295928955078e-01,1.947945833206176758e+00,6.259162300690142011e-01,0.000000000000000000e+00,1.110000000000000000e+02
1.000000000000000000e+00,1.000000000000000000e+00,1.000000000000000000e+00,6.100000000000000000e+01,7.584000000000000000e+03,3.610341548919677734e-01,1.845111131668090820e+00,5.045205531540388755e-01,0.000000000000000000e+00,1.110000000000000000e+02
0.000000000000000000e+00,1.000000000000000000e+00,0.000000000000000000e+00,6.300000000000000000e+01,7.647000000000000000e+03,3.321180343627929688e-01,1.817122936248779297e+00,4.883604012092274682e-01,0.000000000000000000e+00,1.110000000000000000e+02
1.000000000000000000e+00,1.000000000000000000e+00,1.000000000000000000e+00,6.100000000000000000e+01,7.708000000000000000e+03,3.055078983306884766e-01,1.845841884613037109e+00,5.508354586358326088e-01,0.000000000000000000e+00,1.110000000000000000e+02
0.000000000000000000e+00,1.000000000000000000e+00,0.000000000000000000e+00,6.400000000000000000e+01,7.772000000000000000e+03,3.655622005462646484e-01,1.698588132858276367e+00,3.330181325331070807e-01,0.000000000000000000e+00,1.110000000000000000e+02
1.000000000000000000e+00,1.000000000000000000e+00,1.000000000000000000e+00,6.400000000000000000e+01,7.836000000000000000e+03,3.526051044464111328e-01,1.708525896072387695e+00,3.582125864160741746e-01,0.000000000000000000e+00,1.110000000000000000e+02
0.000000000000000000e+00,1.000000000000000000e+00,0.000000000000000000e+00,6.800000000000000000e+01,7.904000000000000000e+03,3.186638355255126953e-01,1.783377170562744141e+00,4.748410497614777848e-01,0.000000000000000000e+00,1.110000000000000000e+02
1.000000000000000000e+00,1.000000000000000000e+00,1.000000000000000000e+00,6.500000000000000000e+01,7.969000000000000000e+03,2.993149757385253906e-01,1.620234966278076172e+00,3.285597724685533350e-01,0.000000000000000000e+00,1.110000000000000000e+02
1.000000000000000000e+00,1.000000000000000000e+00,1.000000000000000000e+00,6.400000000000000000e+01,8.033000000000000000e+03,2.816879749298095703e-01,2.011678934097290039e+00,7.398366602522774560e-01,0.000000000000000000e+00,1.110000000000000000e+02
0.000000000000000000e+00,1.000000000000000000e+00,0.000000000000000000e+00,6.400000000000000000e+01,8.097000000000000000e+03,3.941822052001953125e-01,1.664335012435913086e+00,2.880298399541292853e-01,0.000000000000000000e+00,1.110000000000000000e+02
1.000000000000000000e+00,1.000000000000000000e+00,1.000000000000000000e+00,5.900000000000000000e+01,8.156000000000000000e+03,2.985720634460449219e-01,1.993872165679931641e+00,6.981419718877530656e-01,0.000000000000000000e+00,1.110000000000000000e+02
1.000000000000000000e+00,1.000000000000000000e+00,1.000000000000000000e+00,6.300000000000000000e+01,8.219000000000000000e+03,3.083019256591796875e-01,1.605356931686401367e+00,3.206174267680274026e-01,0.000000000000000000e+00,1.110000000000000000e+02
1.000000000000000000e+00,1.000000000000000000e+00,1.000000000000000000e+00,6.400000000000000000e+01,8.283000000000000000e+03,2.936971187591552734e-01,1.644640922546386719e+00,3.652321531150450884e-01,0.000000000000000000e+00,1.110000000000000000e+02
1.000000000000000000e+00,1.000000000000000000e+00,1.000000000000000000e+00,6.000000000000000000e+01,8.343000000000000000e+03,3.324220180511474609e-01,1.697454929351806641e+00,3.793985564000251776e-01,0.000000000000000000e+00,1.110000000000000000e+02
0.000000000000000000e+00,1.000000000000000000e+00,0.000000000000000000e+00,6.200000000000000000e+01,8.405000000000000000e+03,3.664970397949218750e-01,1.890528917312622070e+00,5.364373628812770800e-01,0.000000000000000000e+00,1.110000000000000000e+02
0.000000000000000000e+00,0.000000000000000000e+00,1.000000000000000000e+00,4.000000000000000000e+01,8.445000000000000000e+03,3.365781307220458984e-01,1.580713033676147461e+00,2.508172933598278309e-01,0.000000000000000000e+00,1.110000000000000000e+02
0.000000000000000000e+00,1.000000000000000000e+00,0.000000000000000000e+00,6.000000000000000000e+01,8.505000000000000000e+03,3.882989883422851562e-01,1.944655179977416992e+00,5.618749897246705372e-01,0.000000000000000000e+00,1.110000000000000000e+02
0.000000000000000000e+00,0.000000000000000000e+00,1.000000000000000000e+00,3.400000000000000000e+01,8.539000000000000000e+03,2.670569419860839844e-01,1.522243022918701172e+00,2.677971433478014696e-01,0.000000000000000000e+00,1.110000000000000000e+02
1.000000000000000000e+00,1.000000000000000000e+00,1.000000000000000000e+00,5.900000000000000000e+01,8.598000000000000000e+03,3.017301559448242188e-01,1.682944059371948242e+00,3.839446915498899160e-01,0.000000000000000000e+00,1.110000000000000000e+02
1.000000000000000000e+00,1.000000000000000000e+00,1.000000000000000000e+00,6.500000000000000000e+01,8.663000000000000000e+03,3.254911899566650391e-01,1.659980058670043945e+00,3.439750342435007879e-01,0.000000000000000000e+00,1.110000000000000000e+02
0.000000000000000000e+00,1.000000000000000000e+00,0.000000000000000000e+00,6.600000000000000000e+01,8.729000000000000000e+03,3.605260848999023438e-01,1.663313865661621094e+00,3.240356347004005322e-01,0.000000000000000000e+00,1.110000000000000000e+02
0.000000000000000000e+00,1.000000000000000000e+00,0.000000000000000000e+00,6.300000000000000000e+01,8.792000000000000000e+03,2.668421268463134766e-01,1.907798051834106445e+00,6.481863614737639612e-01,0.000000000000000000e+00,1.110000000000000000e+02
0.000000000000000000e+00,1.000000000000000000e+00,0.000000000000000000e+00,5.900000000000000000e+01,8.851000000000000000e+03,2.710039615631103516e-01,1.733801126480102539e+00,4.822049071853575231e-01,0.000000000000000000e+00,1.110000000000000000e+02
0.000000000000000000e+00,1.000000000000000000e+00,0.000000000000000000e+00,6.600000000000000000e+01,8.917000000000000000e+03,2.860910892486572266e-01,1.812392950057983398e+00,5.278929388052888694e-01,0.000000000000000000e+00,1.110000000000000000e+02
0.000000000000000000e+00,1.000000000000000000e+00,0.000000000000000000e+00,6.400000000000000000e+01,8.981000000000000000e+03,2.610778808593750000e-01,1.830659151077270508e+00,5.918953746041115682e-01,0.000000000000000000e+00,1.110000000000000000e+02
0.000000000000000000e+00,1.000000000000000000e+00,0.000000000000000000e+00,6.400000000000000000e+01,9.045000000000000000e+03,2.698678970336914062e-01,1.670242786407470703e+00,4.123185775215515436e-01,0.000000000000000000e+00,1.110000000000000000e+02
0.000000000000000000e+00,1.000000000000000000e+00,0.000000000000000000e+00,6.100000000000000000e+01,9.106000000000000000e+03,3.032419681549072266e-01,2.032704114913940430e+00,7.447406838473458190e-01,0.000000000000000000e+00,1.110000000000000000e+02
1.000000000000000000e+00,1.000000000000000000e+00,1.000000000000000000e+00,5.900000000000000000e+01,9.165000000000000000e+03,3.289351463317871094e-01,1.791532993316650391e+00,4.699122743396081381e-01,0.000000000000000000e+00,1.110000000000000000e+02
1.000000000000000000e+00,1.000000000000000000e+00,1.000000000000000000e+00,6.300000000000000000e+01,9.228000000000000000e+03,3.050780296325683594e-01,1.615085840225219727e+00,3.185238573992141276e-01,0.000000000000000000e+00,1.110000000000000000e+02
1.000000000000000000e+00,1.000000000000000000e+00,1.000000000000000000e+00,6.300000000000000000e+01,9.291000000000000000e+03,2.894089221954345703e-01,1.999378204345703125e+00,7.175343690359750060e-01,0.000000000000000000e+00,1.110000000000000000e+02
1.000000000000000000e+00,1.000000000000000000e+00,1.000000000000000000e+00,6.000000000000000000e+01,9.351000000000000000e+03,3.094990253448486328e-01,1.640647888183593750e+00,3.419159083222306772e-01,0.000000000000000000e+00,1.110000000000000000e+02
0.000000000000000000e+00,1.000000000000000000e+00,0.000000000000000000e+00,6.400000000000000000e+01,9.415000000000000000e+03,3.692500591278076172e-01,1.998814105987548828e+00,6.404683319327572066e-01,0.000000000000000000e+00,1.110000000000000000e+02
1.000000000000000000e+00,1.000000000000000000e+00,1.000000000000000000e+00,6.500000000000000000e+01,9.480000000000000000e+03,3.002982139587402344e-01,1.933346986770629883e+00,6.405239300003928715e-01,0.000000000000000000e+00,1.110000000000000000e+02
1.000000000000000000e+00,1.000000000000000000e+00,1.000000000000000000e+00,6.100000000000000000e+01,9.541000000000000000e+03,2.820339202880859375e-01,1.651286125183105469e+00,3.754323194781451489e-01,0.000000000000000000e+00,1.110000000000000000e+02
0.000000000000000000e+00,1.000000000000000000e+00,0.000000000000000000e+00,6.600000000000000000e+01,9.607000000000000000e+03,3.270480632781982422e-01,1.986935853958129883e+00,6.787482522116564665e-01,0.000000000000000000e+00,1.110000000000000000e+02
1.000000000000000000e+00,1.000000000000000000e+00,1.000000000000000000e+00,6.500000000000000000e+01,9.672000000000000000e+03,3.457770347595214844e-01,2.063474893569946289e+00,7.255609830496323465e-01,0.000000000000000000e+00,1.110000000000000000e+02
0.000000000000000000e+00,1.000000000000000000e+00,0.000000000000000000e+00,6.200000000000000000e+01,9.734000000000000000e+03,3.501617908477783203e-01,1.918100118637084961e+00,5.771703079154173466e-01,0.000000000000000000e+00,1.110000000000000000e+02
0.000000000000000000e+00,1.000000000000000000e+00,0.000000000000000000e+00,5.700000000000000000e+01,9.791000000000000000e+03,2.786040306091308594e-01,1.985579967498779297e+00,7.126546992151036042e-01,0.000000000000000000e+00,1.110000000000000000e+02
1.000000000000000000e+00,1.000000000000000000e+00,1.000000000000000000e+00,6.600000000000000000e+01,9.857000000000000000e+03,4.803628921508789062e-01,2.027769088745117188e+00,5.572574362476675480e-01,0.000000000000000000e+00,1.110000000000000000e+02
0.000000000000000000e+00,1.000000000000000000e+00,0.000000000000000000e+00,6.000000000000000000e+01,9.917000000000000000e+03,3.620381355285644531e-01,1.829312086105346680e+00,4.700544520053368536e-01,0.000000000000000000e+00,1.110000000000000000e+02
1.000000000000000000e+00,1.000000000000000000e+00,1.000000000000000000e+00,6.000000000000000000e+01,9.977000000000000000e+03,3.798251152038574219e-01,1.850639104843139648e+00,4.707384531277081230e-01,0.000000000000000000e+00,1.110000000000000000e+02
0.000000000000000000e+00,1.000000000000000000e+00,0.000000000000000000e+00,5.700000000000000000e+01,1.003400000000000000e+04,3.518331050872802734e-01,1.968205928802490234e+00,6.221313826725582974e-01,0.000000000000000000e+00,1.110000000000000000e+02
1.000000000000000000e+00,1.000000000000000000e+00,1.000000000000000000e+00,6.200000000000000000e+01,1.009600000000000000e+04,3.473980426788330078e-01,1.730191946029663086e+00,3.859617282217860934e-01,0.000000000000000000e+00,1.110000000000000000e+02
1.000000000000000000e+00,1.000000000000000000e+00,1.000000000000000000e+00,5.700000000000000000e+01,1.015300000000000000e+04,2.639701366424560547e-01,1.968143224716186523e+00,7.038158853196962994e-01,0.000000000000000000e+00,1.110000000000000000e+02
0.000000000000000000e+00,0.000000000000000000e+00,1.000000000000000000e+00,3.900000000000000000e+01,1.019200000000000000e+04,2.904160022735595703e-01,1.631899833679199219e+00,3.527464017967023024e-01,0.000000000000000000e+00,1.110000000000000000e+02
0.000000000000000000e+00,1.000000000000000000e+00,0.000000000000000000e+00,6.400000000000000000e+01,1.025600000000000000e+04,4.431231021881103516e-01,2.178062200546264648e+00,7.470782503476474101e-01,0.000000000000000000e+00,1.110000000000000000e+02
1.000000000000000000e+00,1.000000000000000000e+00,1.000000000000000000e+00,6.800000000000000000e+01,1.032400000000000000e+04,3.035509586334228516e-01,1.596679925918579102e+00,3.109233051893219302e-01,0.000000000000000000e+00,1.110000000000000000e+02
1.000000000000000000e+00,1.000000000000000000e+00,1.000000000000000000e+00,6.400000000000000000e+01,1.038800000000000000e+04,2.956130504608154297e-01,1.762300014495849609e+00,4.730928841750640657e-01,0.000000000000000000e+00,1.110000000000000000e+02
1.000000000000000000e+00,1.000000000000000000e+00,1.000000000000000000e+00,6.100000000000000000e+01,1.044900000000000000e+04,2.770080566406250000e-01,1.657545089721679688e+00,3.973930593263709232e-01,0.000000000000000000e+00,1.110000000000000000e+02
1.000000000000000000e+00,1.000000000000000000e+00,1.000000000000000000e+00,6.400000000000000000e+01,1.051300000000000000e+04,4.780621528625488281e-01,2.008985042572021484e+00,5.395901418027744256e-01,0.000000000000000000e+00,1.110000000000000000e+02
0.000000000000000000e+00,1.000000000000000000e+00,0.000000000000000000e+00,6.500000000000000000e+01,1.057800000000000000e+04,4.024698734283447266e-01,1.679742097854614258e+00,2.863083272286803260e-01,0.000000000000000000e+00,1.110000000000000000e+02
0.000000000000000000e+00,1.000000000000000000e+00,0.000000000000000000e+00,6.200000000000000000e+01,1.064000000000000000e+04,3.262038230895996094e-01,1.820569992065429688e+00,5.067104623748663883e-01,0.000000000000000000e+00,1.110000000000000000e+02
1.000000000000000000e+00,1.000000000000000000e+00,1.000000000000000000e+00,6.300000000000000000e+01,1.070300000000000000e+04,2.855639457702636719e-01,1.868533849716186523e+00,5.918435965342102589e-01,0.000000000000000000e+00,1.110000000000000000e+02
1.000000000000000000e+00,1.000000000000000000e+00,1.000000000000000000e+00,5.700000000000000000e+01,1.076000000000000000e+04,2.590019702911376953e-01,1.679526090621948242e+00,4.381198403065885705e-01,0.000000000000000000e+00,1.110000000000000000e+02
0.000000000000000000e+00,1.000000000000000000e+00,0.000000000000000000e+00,6.500000000000000000e+01,1.082500000000000000e+04,3.717579841613769531e-01,1.991683959960937500e+00,6.297049928410789477e-01,0.000000000000000000e+00,1.110000000000000000e+02
1.000000000000000000e+00,1.000000000000000000e+00,1.000000000000000000e+00,6.400000000000000000e+01,1.088900000000000000e+04,3.013689517974853516e-01,1.891728162765502930e+00,6.048490335258842610e-01,0.000000000000000000e+00,1.110000000000000000e+02
1.000000000000000000e+00,1.000000000000000000e+00,1.000000000000000000e+00,6.500000000000000000e+01,1.095400000000000000e+04,2.745308876037597656e-01,1.680706977844238281e+00,4.190929665103597657e-01,0.000000000000000000e+00,1.110000000000000000e+02
0.000000000000000000e+00,1.000000000000000000e+00,0.000000000000000000e+00,6.700000000000000000e+01,1.102100000000000000e+04,3.042540550231933594e-01,1.892596006393432617e+00,5.948796999500745031e-01,0.000000000000000000e+00,1.110000000000000000e+02
0.000000000000000000e+00,1.000000000000000000e+00,0.000000000000000000e+00,6.600000000000000000e+01,1.108700000000000000e+04,3.009679317474365234e-01,1.746447086334228516e+00,4.581695651927883417e-01,0.000000000000000000e+00,1.110000000000000000e+02
0.000000000000000000e+00,1.000000000000000000e+00,0.000000000000000000e+00,6.000000000000000000e+01,1.114700000000000000e+04,2.930269241333007812e-01,1.825678825378417969e+00,5.504556417275610070e-01,0.000000000000000000e+00,1.110000000000000000e+02
0.000000000000000000e+00,1.000000000000000000e+00,0.000000000000000000e+00,6.500000000000000000e+01,1.121200000000000000e+04,3.717560768127441406e-01,1.837785005569458008e+00,4.716645229891543445e-01,0.000000000000000000e+00,1.110000000000000000e+02
1.000000000000000000e+00,1.000000000000000000e+00,1.000000000000000000e+00,6.400000000000000000e+01,1.127600000000000000e+04,3.064510822296142578e-01,1.960296869277954102e+00,6.651444785081128686e-01,0.000000000000000000e+00,1.110000000000000000e+02
1.000000000000000000e+00,1.000000000000000000e+00,1.000000000000000000e+00,5.900000000000000000e+01,1.133500000000000000e+04,3.139019012451171875e-01,1.925394773483276367e+00,6.072883676037822420e-01,0.000000000000000000e+00,1.110000000000000000e+02
0.000000000000000000e+00,1.000000000000000000e+00,0.000000000000000000e+00,6.100000000000000000e+01,1.139600000000000000e+04,3.952939510345458984e-01,1.800144910812377930e+00,4.076806010291169069e-01,0.000000000000000000e+00,1.110000000000000000e+02
1.000000000000000000e+00,1.000000000000000000e+00,1.000000000000000000e+00,6.800000000000000000e+01,1.146400000000000000e+04,3.273508548736572266e-01,1.676820039749145508e+00,3.679287890393861393e-01,0.000000000000000000e+00,1.110000000000000000e+02
1.000000000000000000e+00,1.000000000000000000e+00,1.000000000000000000e+00,6.300000000000000000e+01,1.152700000000000000e+04,2.710700035095214844e-01,1.657447099685668945e+00,3.920382430408173025e-01,0.000000000000000000e+00,1.110000000000000000e+02
0.000000000000000000e+00,1.000000000000000000e+00,0.000000000000000000e+00,6.000000000000000000e+01,1.158700000000000000e+04,3.631298542022705078e-01,2.070733070373535156e+00,7.124692965204844075e-01,0.000000000000000000e+00,1.110000000000000000e+02
0.000000000000000000e+00,1.000000000000000000e+00,0.000000000000000000e+00,6.300000000000000000e+01,1.165000000000000000e+04,2.795350551605224609e-01,1.909080028533935547e+00,6.383251541593017997e-01,0.000000000000000000e+00,1.110000000000000000e+02
1.000000000000000000e+00,1.000000000000000000e+00,1.000000000000000000e+00,6.400000000000000000e+01,1.171400000000000000e+04,3.399829864501953125e-01,1.953969955444335938e+00,6.256898527004601807e-01,0.000000000000000000e+00,1.110000000000000000e+02
0.000000000000000000e+00,1.000000000000000000e+00,0.000000000000000000e+00,6.100000000000000000e+01,1.177500000000000000e+04,3.550570011138916016e-01,1.741019964218139648e+00,4.002875075489222279e-01,0.000000000000000000e+00,1.110000000000000000e+02
1.000000000000000000e+00,1.000000000000000000e+00,1.000000000000000000e+00,6.600000000000000000e+01,1.184100000000000000e+04,3.301100730895996094e-01,1.596694946289062500e+00,2.638473343924778725e-01,0.000000000000000000e+00,1.110000000000000000e+02
0.000000000000000000e+00,1.000000000000000000e+00,0.000000000000000000e+00,6.000000000000000000e+01,1.190100000000000000e+04,3.497529029846191406e-01,1.635403871536254883e+00,2.991648320491100965e-01,0.000000000000000000e+00,1.110000000000000000e+02
0.000000000000000000e+00,1.000000000000000000e+00,0.000000000000000000e+00,6.200000000000000000e+01,1.196300000000000000e+04,3.158550262451171875e-01,1.960641145706176758e+00,6.428892151325400484e-01,0.000000000000000000e+00,1.110000000000000000e+02
0.000000000000000000e+00,0.000000000000000000e+00,1.000000000000000000e+00,3.400000000000000000e+01,1.199700000000000000e+04,3.028919696807861328e-01,1.836242914199829102e+00,5.459063642882187040e-01,1.000000000000000000e+00,1.120000000000000000e+02
0.000000000000000000e+00,1.000000000000000000e+00,0.000000000000000000e+00,6.600000000000000000e+01,1.206300000000000000e+04,4.116151332855224609e-01,1.680133104324340820e+00,2.763625249093180081e-01,0.000000000000000000e+00,1.120000000000000000e+02
1.000000000000000000e+00,1.000000000000000000e+00,1.000000000000000000e+00,6.300000000000000000e+01,1.212600000000000000e+04,3.222911357879638672e-01,2.047395944595336914e+00,7.400251068397258880e-01,0.000000000000000000e+00,1.120000000000000000e+02
1.000000000000000000e+00,1.000000000000000000e+00,1.000000000000000000e+00,6.700000000000000000e+01,1.219300000000000000e+04,2.894208431243896484e-01,2.013528108596801758e+00,7.368887601525136999e-01,0.000000000000000000e+00,1.120000000000000000e+02
1.000000000000000000e+00,1.000000000000000000e+00,1.000000000000000000e+00,6.200000000000000000e+01,1.225500000000000000e+04,3.318469524383544922e-01,1.668752908706665039e+00,3.393959553392902895e-01,0.000000000000000000e+00,1.120000000000000000e+02
0.000000000000000000e+00,1.000000000000000000e+00,0.000000000000000000e+00,6.600000000000000000e+01,1.232100000000000000e+04,3.742299079895019531e-01,1.939527988433837891e+00,5.787358265686635139e-01,0.000000000000000000e+00,1.120000000000000000e+02
0.000000000000000000e+00,1.000000000000000000e+00,0.000000000000000000e+00,6.400000000000000000e+01,1.238500000000000000e+04,2.679820060729980469e-01,1.609775066375732422e+00,3.554639974927822355e-01,0.000000000000000000e+00,1.120000000000000000e+02
1.000000000000000000e+00,1.000000000000000000e+00,1.000000000000000000e+00,6.900000000000000000e+01,1.245400000000000000e+04,3.103489875793457031e-01,1.896152019500732422e+00,6.013878718388762090e-01,0.000000000000000000e+00,1.120000000000000000e+02
0.000000000000000000e+00,1.000000000000000000e+00,0.000000000000000000e+00,6.500000000000000000e+01,1.251900000000000000e+04,2.824671268463134766e-01,1.751888990402221680e+00,4.700990868295332192e-01,0.000000000000000000e+00,1.120000000000000000e+02
1.000000000000000000e+00,1.000000000000000000e+00,1.000000000000000000e+00,7.000000000000000000e+01,1.258900000000000000e+04,3.095960617065429688e-01,1.868905067443847656e+00,5.722383654295576383e-01,0.000000000000000000e+00,1.120000000000000000e+02
0.000000000000000000e+00,1.000000000000000000e+00,0.000000000000000000e+00,6.500000000000000000e+01,1.265400000000000000e+04,2.998788356781005859e-01,1.832099914550781250e+00,5.377684355209835232e-01,0.000000000000000000e+00,1.120000000000000000e+02
0.000000000000000000e+00,1.000000000000000000e+00,0.000000000000000000e+00,6.300000000000000000e+01,1.271700000000000000e+04,2.855679988861083984e-01,1.787600040435791016e+00,5.087592863329547521e-01,0.000000000000000000e+00,1.120000000000000000e+02
1.000000000000000000e+00,1.000000000000000000e+00,1.000000000000000000e+00,6.600000000000000000e+01,1.278300000000000000e+04,3.142440319061279297e-01,1.801301956176757812e+00,4.934221614857836613e-01,0.000000000000000000e+00,1.120000000000000000e+02
1.000000000000000000e+00,1.000000000000000000e+00,1.000000000000000000e+00,7.000000000000000000e+01,1.285300000000000000e+04,2.773771286010742188e-01,1.678805828094482422e+00,4.057169069031636988e-01,0.000000000000000000e+00,1.120000000000000000e+02
0.000000000000000000e+00,1.000000000000000000e+00,0.000000000000000000e+00,7.000000000000000000e+01,1.292300000000000000e+04,3.291420936584472656e-01,1.826214075088500977e+00,4.985628482143636409e-01,0.000000000000000000e+00,1.120000000000000000e+02
0.000000000000000000e+00,1.000000000000000000e+00,0.000000000000000000e+00,6.800000000000000000e+01,1.299100000000000000e+04,2.855579853057861328e-01,1.679054975509643555e+00,4.110295170061744052e-01,0.000000000000000000e+00,1.120000000000000000e+02
1.000000000000000000e+00,1.000000000000000000e+00,1.000000000000000000e+00,6.700000000000000000e+01,1.305800000000000000e+04,3.282921314239501953e-01,1.816596984863281250e+00,4.942156421684406054e-01,0.000000000000000000e+00,1.120000000000000000e+02
0.000000000000000000e+00,1.000000000000000000e+00,0.000000000000000000e+00,6.300000000000000000e+01,1.312100000000000000e+04,3.756489753723144531e-01,1.940437793731689453e+00,5.846006470128509713e-01,0.000000000000000000e+00,1.120000000000000000e+02
1.000000000000000000e+00,1.000000000000000000e+00,1.000000000000000000e+00,6.600000000000000000e+01,1.318700000000000000e+04,2.987139225006103516e-01,1.692215204238891602e+00,3.937417237322962116e-01,0.000000000000000000e+00,1.120000000000000000e+02
0.000000000000000000e+00,1.000000000000000000e+00,0.000000000000000000e+00,6.700000000000000000e+01,1.325400000000000000e+04,4.434778690338134766e-01,1.690517902374267578e+00,2.677494263728095736e-01,0.000000000000000000e+00,1.120000000000000000e+02
0.000000000000000000e+00,1.000000000000000000e+00,0.000000000000000000e+00,6.400000000000000000e+01,1.331800000000000000e+04,3.664948940277099609e-01,1.641747951507568359e+00,2.761672844849038522e-01,0.000000000000000000e+00,1.120000000000000000e+02
0.000000000000000000e+00,1.000000000000000000e+00,0.000000000000000000e+00,6.600000000000000000e+01,1.338400000000000000e+04,2.922439575195312500e-01,1.842293024063110352e+00,5.682147579887883992e-01,0.000000000000000000e+00,1.120000000000000000e+02
1.000000000000000000e+00,1.000000000000000000e+00,1.000000000000000000e+00,6.200000000000000000e+01,1.344600000000000000e+04,3.202910423278808594e-01,1.880313158035278320e+00,5.652099032544752877e-01,0.000000000000000000e+00,1.120000000000000000e+02
0.000000000000000000e+00,1.000000000000000000e+00,0.000000000000000000e+00,6.800000000000000000e+01,1.351400000000000000e+04,6.040270328521728516e-01,2.072521924972534180e+00,4.712055779131457678e-01,0.000000000000000000e+00,1.120000000000000000e+02
1.000000000000000000e+00,1.000000000000000000e+00,1.000000000000000000e+00,6.800000000000000000e+01,1.358200000000000000e+04,2.833929061889648438e-01,1.920833110809326172e+00,6.418968438487224759e-01,0.000000000000000000e+00,1.120000000000000000e+02
1.000000000000000000e+00,1.000000000000000000e+00,1.000000000000000000e+00,7.100000000000000000e+01,1.365300000000000000e+04,2.628440856933593750e-01,1.929399967193603516e+00,6.712865518079429439e-01,0.000000000000000000e+00,1.120000000000000000e+02
0.000000000000000000e+00,1.000000000000000000e+00,0.000000000000000000e+00,6.400000000000000000e+01,1.371700000000000000e+04,3.376429080963134766e-01,1.790949106216430664e+00,4.624824617301503960e-01,0.000000000000000000e+00,1.120000000000000000e+02
1.000000000000000000e+00,1.000000000000000000e+00,1.000000000000000000e+00,6.900000000000000000e+01,1.378600000000000000e+04,3.453719615936279297e-01,1.779171943664550781e+00,4.417051860490174287e-01,0.000000000000000000e+00,1.120000000000000000e+02
0.000000000000000000e+00,1.000000000000000000e+00,0.000000000000000000e+00,6.500000000000000000e+01,1.385100000000000000e+04,4.070570468902587891e-01,1.937977075576782227e+00,5.462945409468880076e-01,0.000000000000000000e+00,1.120000000000000000e+02
0.000000000000000000e+00,1.000000000000000000e+00,0.000000000000000000e+00,6.400000000000000000e+01,1.391500000000000000e+04,3.547489643096923828e-01,2.033046960830688477e+00,6.959008054252626696e-01,0.000000000000000000e+00,1.120000000000000000e+02
0.000000000000000000e+00,1.000000000000000000e+00,0.000000000000000000e+00,7.200000000000000000e+01,1.398700000000000000e+04,2.424969673156738281e-01,1.824391126632690430e+00,6.037545658181329156e-01,0.000000000000000000e+00,1.120000000000000000e+02
1.000000000000000000e+00,1.000000000000000000e+00,1.000000000000000000e+00,6.900000000000000000e+01,1.405600000000000000e+04,3.001439571380615234e-01,1.739522933959960938e+00,4.434376327928435946e-01,0.000000000000000000e+00,1.120000000000000000e+02
1.000000000000000000e+00,1.000000000000000000e+00,1.000000000000000000e+00,6.600000000000000000e+01,1.412200000000000000e+04,3.189859390258789062e-01,1.914829015731811523e+00,6.081400317667912114e-01,0.000000000000000000e+00,1.120000000000000000e+02
0.000000000000000000e+00,1.000000000000000000e+00,0.000000000000000000e+00,6.900000000000000000e+01,1.419100000000000000e+04,3.383479118347167969e-01,1.736686944961547852e+00,4.117163013079700451e-01,0.000000000000000000e+00,1.120000000000000000e+02
0.000000000000000000e+00,1.000000000000000000e+00,0.000000000000000000e+00,6.600000000000000000e+01,1.425700000000000000e+04,2.691521644592285156e-01,2.003019094467163086e+00,7.477604751390609650e-01,0.000000000000000000e+00,1.120000000000000000e+02
1.000000000000000000e+00,1.000000000000000000e+00,1.000000000000000000e+00,6.400000000000000000e+01,1.432100000000000000e+04,3.651559352874755859e-01,1.860491991043090820e+00,5.085364028585204199e-01,0.000000000000000000e+00,1.120000000000000000e+02
1.000000000000000000e+00,1.000000000000000000e+00,1.000000000000000000e+00,7.100000000000000000e+01,1.439200000000000000e+04,3.455479145050048828e-01,1.614467144012451172e+00,2.732902540236633038e-01,0.000000000000000000e+00,1.120000000000000000e+02
0.000000000000000000e+00,1.000000000000000000e+00,0.000000000000000000e+00,6.400000000000000000e+01,1.445600000000000000e+04,3.989131450653076172e-01,1.948451995849609375e+00,5.548207925816451835e-01,0.000000000000000000e+00,1.120000000000000000e+02
1.000000000000000000e+00,1.000000000000000000e+00,1.000000000000000000e+00,6.800000000000000000e+01,1.452400000000000000e+04,3.201701641082763672e-01,1.889273881912231445e+00,5.774320953744375151e-01,0.000000000000000000e+00,1.120000000000000000e+02
0.000000000000000000e+00,1.000000000000000000e+00,0.000000000000000000e+00,7.300000000000000000e+01,1.459700000000000000e+04,3.497641086578369141e-01,1.600477933883666992e+00,2.616174472584382182e-01,0.000000000000000000e+00,1.120000000000000000e+02
0.000000000000000000e+00,1.000000000000000000e+00,0.000000000000000000e+00,6.800000000000000000e+01,1.466500000000000000e+04,3.337938785552978516e-01,1.976553916931152344e+00,6.548529901925970176e-01,0.000000000000000000e+00,1.120000000000000000e+02
1.000000000000000000e+00,1.000000000000000000e+00,1.000000000000000000e+00,6.600000000000000000e+01,1.473100000000000000e+04,3.745040893554687500e-01,2.053364038467407227e+00,6.911497998715541158e-01,0.000000000000000000e+00,1.120000000000000000e+02
1.000000000000000000e+00,1.000000000000000000e+00,1.000000000000000000e+00,7.500000000000000000e+01,1.480600000000000000e+04,2.946109771728515625e-01,1.612690925598144531e+00,3.208558249830251730e-01,0.000000000000000000e+00,1.120000000000000000e+02
1.000000000000000000e+00,1.000000000000000000e+00,1.000000000000000000e+00,6.700000000000000000e+01,1.487300000000000000e+04,3.560330867767333984e-01,1.675465106964111328e+00,3.297303633548247515e-01,0.000000000000000000e+00,1.120000000000000000e+02
1.000000000000000000e+00,1.000000000000000000e+00,1.000000000000000000e+00,6.400000000000000000e+01,1.493700000000000000e+04,2.913668155670166016e-01,1.778326988220214844e+00,5.079021309195803635e-01,0.000000000000000000e+00,1.120000000000000000e+02
1.000000000000000000e+00,1.000000000000000000e+00,1.000000000000000000e+00,6.200000000000000000e+01,1.499900000000000000e+04,3.560469150543212891e-01,1.932569026947021484e+00,5.900992916776116592e-01,0.000000000000000000e+00,1.120000000000000000e+02
0.000000000000000000e+00,1.000000000000000000e+00,0.000000000000000000e+00,6.500000000000000000e+01,1.506400000000000000e+04,3.347949981689453125e-01,1.841933965682983398e+00,5.157436327785129837e-01,0.000000000000000000e+00,1.120000000000000000e+02
1.000000000000000000e+00,1.000000000000000000e+00,1.000000000000000000e+00,6.300000000000000000e+01,1.512700000000000000e+04,3.249421119689941406e-01,1.948268175125122070e+00,6.306182585125387208e-01,0.000000000000000000e+00,1.120000000000000000e+02
0.000000000000000000e+00,1.000000000000000000e+00,0.000000000000000000e+00,7.000000000000000000e+01,1.519700000000000000e+04,3.406329154968261719e-01,1.892271995544433594e+00,5.730040282438542132e-01,0.000000000000000000e+00,1.120000000000000000e+02
0.000000000000000000e+00,1.000000000000000000e+00,0.000000000000000000e+00,6.300000000000000000e+01,1.526000000000000000e+04,2.987189292907714844e-01,1.984380960464477539e+00,6.906161949405753564e-01,0.000000000000000000e+00,1.120000000000000000e+02
0.000000000000000000e+00,1.000000000000000000e+00,0.000000000000000000e+00,6.500000000000000000e+01,1.532500000000000000e+04,2.394869327545166016e-01,1.592619180679321289e+00,3.669452503876307059e-01,0.000000000000000000e+00,1.120000000000000000e+02
0.000000000000000000e+00,1.000000000000000000e+00,0.000000000000000000e+00,6.100000000000000000e+01,1.538600000000000000e+04,2.814588546752929688e-01,1.802317857742309570e+00,5.191460117280821684e-01,0.000000000000000000e+00,1.120000000000000000e+02
1.000000000000000000e+00,1.000000000000000000e+00,1.000000000000000000e+00,6.600000000000000000e+01,1.545200000000000000e+04,2.715568542480468750e-01,1.909811973571777344e+00,6.455143650904938690e-01,0.000000000000000000e+00,1.120000000000000000e+02
1.000000000000000000e+00,1.000000000000000000e+00,1.000000000000000000e+00,6.600000000000000000e+01,1.551800000000000000e+04,2.726509571075439453e-01,1.744882822036743164e+00,4.905797264909104172e-01,0.000000000000000000e+00,1.120000000000000000e+02
1.000000000000000000e+00,1.000000000000000000e+00,1.000000000000000000e+00,6.300000000000000000e+01,1.558100000000000000e+04,2.926139831542968750e-01,1.636790037155151367e+00,3.608793070569225603e-01,0.000000000000000000e+00,1.120000000000000000e+02
1.000000000000000000e+00,1.000000000000000000e+00,1.000000000000000000e+00,6.100000000000000000e+01,1.564200000000000000e+04,3.214030265808105469e-01,2.038663148880004883e+00,7.325114837288543290e-01,0.000000000000000000e+00,1.120000000000000000e+02
1.000000000000000000e+00,1.000000000000000000e+00,1.000000000000000000e+00,6.600000000000000000e+01,1.570800000000000000e+04,3.064839839935302734e-01,1.739116907119750977e+00,4.386494567068539019e-01,0.000000000000000000e+00,1.120000000000000000e+02
0.000000000000000000e+00,1.000000000000000000e+00,0.000000000000000000e+00,6.700000000000000000e+01,1.577500000000000000e+04,3.661968708038330078e-01,1.767805099487304688e+00,4.065337951090697843e-01,0.000000000000000000e+00,1.120000000000000000e+02
1.000000000000000000e+00,1.000000000000000000e+00,1.000000000000000000e+00,6.500000000000000000e+01,1.584000000000000000e+04,3.336141109466552734e-01,1.859637975692749023e+00,5.327212835646730760e-01,0.000000000000000000e+00,1.120000000000000000e+02
0.000000000000000000e+00,1.000000000000000000e+00,0.000000000000000000e+00,6.500000000000000000e+01,1.590500000000000000e+04,2.790060043334960938e-01,2.013015031814575195e+00,7.288903634805800058e-01,0.000000000000000000e+00,1.120000000000000000e+02
1.000000000000000000e+00,1.000000000000000000e+00,1.000000000000000000e+00,6.100000000000000000e+01,1.596600000000000000e+04,3.430979251861572266e-01,1.832473993301391602e+00,5.116523903445941990e-01,0.000000000000000000e+00,1.120000000000000000e+02
1.000000000000000000e+00,1.000000000000000000e+00,1.000000000000000000e+00,6.800000000000000000e+01,1.603400000000000000e+04,2.997930049896240234e-01,1.608700990676879883e+00,3.205594150609422099e-01,0.000000000000000000e+00,1.120000000000000000e+02
0.000000000000000000e+00,1.000000000000000000e+00,0.000000000000000000e+00,6.700000000000000000e+01,1.610100000000000000e+04,3.711810111999511719e-01,1.924211025238037109e+00,5.612306651135172686e-01,0.000000000000000000e+00,1.120000000000000000e+02
0.000000000000000000e+00,1.000000000000000000e+00,0.000000000000000000e+00,6.600000000000000000e+01,1.616700000000000000e+04,3.145861625671386719e-01,2.025287866592407227e+00,7.197140293686337120e-01,0.000000000000000000e+00,1.120000000000000000e+02
1.000000000000000000e+00,1.000000000000000000e+00,1.000000000000000000e+00,6.400000000000000000e+01,1.623100000000000000e+04,3.013510704040527344e-01,2.002479076385498047e+00,7.055874029015176685e-01,0.000000000000000000e+00,1.120000000000000000e+02
0.000000000000000000e+00,1.000000000000000000e+00,0.000000000000000000e+00,6.500000000000000000e+01,1.629600000000000000e+04,3.503570556640625000e-01,1.706995964050292969e+00,3.629636149674742573e-01,0.000000000000000000e+00,1.120000000000000000e+02
0.000000000000000000e+00,1.000000000000000000e+00,0.000000000000000000e+00,6.900000000000000000e+01,1.636500000000000000e+04,3.404870033264160156e-01,2.065258979797363281e+00,7.445507692160157065e-01,0.000000000000000000e+00,1.120000000000000000e+02
0.000000000000000000e+00,1.000000000000000000e+00,0.000000000000000000e+00,6.500000000000000000e+01,1.643000000000000000e+04,2.458760738372802734e-01,1.916239976882934570e+00,6.775132056535781988e-01,0.000000000000000000e+00,1.120000000000000000e+02
1.000000000000000000e+00,1.000000000000000000e+00,1.000000000000000000e+00,6.800000000000000000e+01,1.649800000000000000e+04,4.922819137573242188e-01,1.840215921401977539e+00,3.681146265331631806e-01,0.000000000000000000e+00,1.120000000000000000e+02
0.000000000000000000e+00,1.000000000000000000e+00,0.000000000000000000e+00,6.900000000000000000e+01,1.656700000000000000e+04,4.503519535064697266e-01,1.883495092391967773e+00,4.349047058721768888e-01,0.000000000000000000e+00,1.120000000000000000e+02
1.000000000000000000e+00,1.000000000000000000e+00,1.000000000000000000e+00,6.400000000000000000e+01,1.663100000000000000e+04,2.980680465698242188e-01,1.941478967666625977e+00,6.428496167423409791e-01,0.000000000000000000e+00,1.120000000000000000e+02
1.000000000000000000e+00,1.000000000000000000e+00,1.000000000000000000e+00,7.000000000000000000e+01,1.670100000000000000e+04,3.648080825805664062e-01,2.092576980590820312e+00,7.353690174629030629e-01,0.000000000000000000e+00,1.120000000000000000e+02
1.000000000000000000e+00,1.000000000000000000e+00,1.000000000000000000e+00,7.000000000000000000e+01,1.677100000000000000e+04,3.118550777435302734e-01,1.800150156021118164e+00,5.024649821176061515e-01,0.000000000000000000e+00,1.120000000000000000e+02
1.000000000000000000e+00,1.000000000000000000e+00,1.000000000000000000e+00,6.100000000000000000e+01,1.683200000000000000e+04,3.128979206085205078e-01,1.690985918045043945e+00,3.769511335889544901e-01,0.000000000000000000e+00,1.120000000000000000e+02
1.000000000000000000e+00,1.000000000000000000e+00,1.000000000000000000e+00,6.600000000000000000e+01,1.689800000000000000e+04,2.896521091461181641e-01,1.962839126586914062e+00,6.895197944692288416e-01,0.000000000000000000e+00,1.120000000000000000e+02
0.000000000000000000e+00,1.000000000000000000e+00,0.000000000000000000e+00,6.200000000000000000e+01,1.696000000000000000e+04,3.451309204101562500e-01,1.734061956405639648e+00,3.905734822883993873e-01,0.000000000000000000e+00,1.120000000000000000e+02
0.000000000000000000e+00,1.000000000000000000e+00,0.000000000000000000e+00,6.800000000000000000e+01,1.702800000000000000e+04,3.038370609283447266e-01,1.686522006988525391e+00,3.938089682633354460e-01,0.000000000000000000e+00,1.120000000000000000e+02
0.000000000000000000e+00,1.000000000000000000e+00,0.000000000000000000e+00,6.600000000000000000e+01,1.709400000000000000e+04,3.364799022674560547e-01,1.577246904373168945e+00,2.545693129442356262e-01,0.000000000000000000e+00,1.120000000000000000e+02
0.000000000000000000e+00,0.000000000000000000e+00,1.000000000000000000e+00,3.800000000000000000e+01,1.713200000000000000e+04,2.592260837554931641e-01,1.596436023712158203e+00,3.509147008421855118e-01,1.000000000000000000e+00,1.110000000000000000e+02
1.000000000000000000e+00,1.000000000000000000e+00,1.000000000000000000e+00,6.800000000000000000e+01,1.720000000000000000e+04,2.573599815368652344e-01,1.615514993667602539e+00,3.664253156576623982e-01,0.000000000000000000e+00,1.110000000000000000e+02
0.000000000000000000e+00,1.000000000000000000e+00,0.000000000000000000e+00,5.900000000000000000e+01,1.725900000000000000e+04,3.387079238891601562e-01,2.006647825241088867e+00,6.727246276665318492e-01,0.000000000000000000e+00,1.110000000000000000e+02
0.000000000000000000e+00,1.000000000000000000e+00,0.000000000000000000e+00,6.400000000000000000e+01,1.732300000000000000e+04,2.478029727935791016e-01,1.806385993957519531e+00,5.627090000558316873e-01,0.000000000000000000e+00,1.110000000000000000e+02
0.000000000000000000e+00,1.000000000000000000e+00,0.000000000000000000e+00,6.600000000000000000e+01,1.738900000000000000e+04,2.308881282806396484e-01,1.803278923034667969e+00,5.826283611812330676e-01,0.000000000000000000e+00,1.110000000000000000e+02
0.000000000000000000e+00,1.000000000000000000e+00,0.000000000000000000e+00,6.700000000000000000e+01,1.745600000000000000e+04,2.192361354827880859e-01,1.907087087631225586e+00,6.896027614178794618e-01,0.000000000000000000e+00,1.110000000000000000e+02
1.000000000000000000e+00,1.000000000000000000e+00,1.000000000000000000e+00,6.000000000000000000e+01,1.751600000000000000e+04,4.192998409271240234e-01,2.141256809234619141e+00,7.309395429418645840e-01,0.000000000000000000e+00,1.110000000000000000e+02
1.000000000000000000e+00,1.000000000000000000e+00,1.000000000000000000e+00,6.600000000000000000e+01,1.758200000000000000e+04,2.740321159362792969e-01,1.778944015502929688e+00,5.267115513176305885e-01,0.000000000000000000e+00,1.110000000000000000e+02
1.000000000000000000e+00,1.000000000000000000e+00,1.000000000000000000e+00,6.400000000000000000e+01,1.764600000000000000e+04,3.467350006103515625e-01,1.870608806610107422e+00,5.307167277743530809e-01,0.000000000000000000e+00,1.110000000000000000e+02
0.000000000000000000e+00,1.000000000000000000e+00,0.000000000000000000e+00,6.500000000000000000e+01,1.771100000000000000e+04,4.211518764495849609e-01,1.918923854827880859e+00,5.163445365728518421e-01,0.000000000000000000e+00,1.110000000000000000e+02
1.000000000000000000e+00,1.000000000000000000e+00,1.000000000000000000e+00,6.400000000000000000e+01,1.777500000000000000e+04,3.478760719299316406e-01,1.948348045349121094e+00,5.979924344270335368e-01,0.000000000000000000e+00,1.110000000000000000e+02
0.000000000000000000e+00,1.000000000000000000e+00,0.000000000000000000e+00,6.400000000000000000e+01,1.783900000000000000e+04,4.115991592407226562e-01,1.688531875610351562e+00,3.035219843166519493e-01,0.000000000000000000e+00,1.110000000000000000e+02
1.000000000000000000e+00,1.000000000000000000e+00,1.000000000000000000e+00,6.600000000000000000e+01,1.790500000000000000e+04,3.597199916839599609e-01,1.772480010986328125e+00,4.259017377727792875e-01,0.000000000000000000e+00,1.110000000000000000e+02
1.000000000000000000e+00,1.000000000000000000e+00,1.000000000000000000e+00,6.000000000000000000e+01,1.796500000000000000e+04,2.811210155487060547e-01,1.733776807785034180e+00,4.596710495178048528e-01,0.000000000000000000e+00,1.110000000000000000e+02
0.000000000000000000e+00,1.000000000000000000e+00,0.000000000000000000e+00,7.100000000000000000e+01,1.803600000000000000e+04,3.467881679534912109e-01,2.072726011276245117e+00,7.323152617663994945e-01,0.000000000000000000e+00,1.110000000000000000e+02
1.000000000000000000e+00,1.000000000000000000e+00,1.000000000000000000e+00,6.500000000000000000e+01,1.810100000000000000e+04,3.585269451141357422e-01,1.603546857833862305e+00,2.529061192870723507e-01,0.000000000000000000e+00,1.110000000000000000e+02
1.000000000000000000e+00,1.000000000000000000e+00,1.000000000000000000e+00,6.100000000000000000e+01,1.816200000000000000e+04,3.195929527282714844e-01,1.581837177276611328e+00,2.680054932609697294e-01,0.000000000000000000e+00,1.110000000000000000e+02
1.000000000000000000e+00,1.000000000000000000e+00,1.000000000000000000e+00,6.300000000000000000e+01,1.822500000000000000e+04,3.344650268554687500e-01,1.911944866180419922e+00,5.797220453665137274e-01,0.000000000000000000e+00,1.110000000000000000e+02
1.000000000000000000e+00,1.000000000000000000e+00,1.000000000000000000e+00,6.000000000000000000e+01,1.828500000000000000e+04,3.283472061157226562e-01,1.882216930389404297e+00,5.619748857042787815e-01,0.000000000000000000e+00,1.110000000000000000e+02
0.000000000000000000e+00,1.000000000000000000e+00,0.000000000000000000e+00,6.400000000000000000e+01,1.834900000000000000e+04,3.741049766540527344e-01,2.010653018951416016e+00,6.559418029919593662e-01,0.000000000000000000e+00,1.110000000000000000e+02
0.000000000000000000e+00,1.000000000000000000e+00,0.000000000000000000e+00,6.600000000000000000e+01,1.841500000000000000e+04,3.424758911132812500e-01,1.597408056259155273e+00,2.704110479633265451e-01,0.000000000000000000e+00,1.110000000000000000e+02
0.000000000000000000e+00,1.000000000000000000e+00,0.000000000000000000e+00,6.600000000000000000e+01,1.848100000000000000e+04,3.395578861236572266e-01,1.736289978027343750e+00,4.066249150543277957e-01,0.000000000000000000e+00,1.110000000000000000e+02
1.000000000000000000e+00,1.000000000000000000e+00,1.000000000000000000e+00,6.200000000000000000e+01,1.854300000000000000e+04,3.583140373229980469e-01,1.875745058059692383e+00,5.322820977002133969e-01,0.000000000000000000e+00,1.110000000000000000e+02
0.000000000000000000e+00,1.000000000000000000e+00,0.000000000000000000e+00,6.800000000000000000e+01,1.861100000000000000e+04,3.250360488891601562e-01,1.639767169952392578e+00,3.223232850817850381e-01,0.000000000000000000e+00,1.110000000000000000e+02
1.000000000000000000e+00,1.000000000000000000e+00,1.000000000000000000e+00,6.400000000000000000e+01,1.867500000000000000e+04,3.017492294311523438e-01,1.991894006729125977e+00,6.971706634717984574e-01,0.000000000000000000e+00,1.110000000000000000e+02
0.000000000000000000e+00,1.000000000000000000e+00,0.000000000000000000e+00,6.500000000000000000e+01,1.874000000000000000e+04,3.814461231231689453e-01,1.799590826034545898e+00,4.303835334733379647e-01,0.000000000000000000e+00,1.110000000000000000e+02
0.000000000000000000e+00,1.000000000000000000e+00,0.000000000000000000e+00,6.800000000000000000e+01,1.880800000000000000e+04,2.925679683685302734e-01,1.718046903610229492e+00,4.484437716612694746e-01,0.000000000000000000e+00,1.110000000000000000e+02
0.000000000000000000e+00,1.000000000000000000e+00,0.000000000000000000e+00,6.200000000000000000e+01,1.887000000000000000e+04,2.959330081939697266e-01,1.662936925888061523e+00,3.781673363674070143e-01,0.000000000000000000e+00,1.110000000000000000e+02
0.000000000000000000e+00,1.000000000000000000e+00,0.000000000000000000e+00,6.100000000000000000e+01,1.893100000000000000e+04,3.074200153350830078e-01,2.034718990325927734e+00,7.458475182909853896e-01,0.000000000000000000e+00,1.110000000000000000e+02
0.000000000000000000e+00,1.000000000000000000e+00,0.000000000000000000e+00,6.300000000000000000e+01,1.899400000000000000e+04,3.680920600891113281e-01,1.935456037521362305e+00,5.815236059259807355e-01,0.000000000000000000e+00,1.110000000000000000e+02
1.000000000000000000e+00,1.000000000000000000e+00,1.000000000000000000e+00,6.600000000000000000e+01,1.906000000000000000e+04,3.817770481109619141e-01,1.658469915390014648e+00,2.903032620085070348e-01,0.000000000000000000e+00,1.110000000000000000e+02
1.000000000000000000e+00,1.000000000000000000e+00,1.000000000000000000e+00,5.500000000000000000e+01,1.911500000000000000e+04,3.682060241699218750e-01,1.680006027221679688e+00,3.203001909679874526e-01,0.000000000000000000e+00,1.110000000000000000e+02
1.000000000000000000e+00,1.000000000000000000e+00,1.000000000000000000e+00,6.300000000000000000e+01,1.917800000000000000e+04,8.199601173400878906e-01,2.469337940216064453e+00,6.560433231801541254e-01,0.000000000000000000e+00,1.110000000000000000e+02
0.000000000000000000e+00,1.000000000000000000e+00,0.000000000000000000e+00,6.200000000000000000e+01,1.924000000000000000e+04,3.694369792938232422e-01,1.904011964797973633e+00,5.435118126770891456e-01,0.000000000000000000e+00,1.110000000000000000e+02
1.000000000000000000e+00,1.000000000000000000e+00,1.000000000000000000e+00,6.300000000000000000e+01,1.930300000000000000e+04,3.584339618682861328e-01,1.622279882431030273e+00,2.827563936634676089e-01,0.000000000000000000e+00,1.110000000000000000e+02
0.000000000000000000e+00,1.000000000000000000e+00,0.000000000000000000e+00,6.600000000000000000e+01,1.936900000000000000e+04,3.371419906616210938e-01,2.060045957565307617e+00,7.257649552157092732e-01,0.000000000000000000e+00,1.110000000000000000e+02
0.000000000000000000e+00,1.000000000000000000e+00,0.000000000000000000e+00,6.200000000000000000e+01,1.943100000000000000e+04,3.031919002532958984e-01,1.724118947982788086e+00,4.335181971797337774e-01,0.000000000000000000e+00,1.110000000000000000e+02
1.000000000000000000e+00,1.000000000000000000e+00,1.000000000000000000e+00,6.400000000000000000e+01,1.949500000000000000e+04,3.739922046661376953e-01,1.703575134277343750e+00,3.372470450106141437e-01,0.000000000000000000e+00,1.110000000000000000e+02
1.000000000000000000e+00,1.000000000000000000e+00,1.000000000000000000e+00,6.600000000000000000e+01,1.956100000000000000e+04,3.260760307312011719e-01,1.941838979721069336e+00,6.288237767503290776e-01,0.000000000000000000e+00,1.110000000000000000e+02
1.000000000000000000e+00,1.000000000000000000e+00,1.000000000000000000e+00,6.300000000000000000e+01,1.962400000000000000e+04,3.187060356140136719e-01,2.028664112091064453e+00,7.240596512808724627e-01,0.000000000000000000e+00,1.110000000000000000e+02
0.000000000000000000e+00,1.000000000000000000e+00,0.000000000000000000e+00,6.700000000000000000e+01,1.969100000000000000e+04,3.214621543884277344e-01,1.941990852355957031e+00,6.328559555814582405e-01,0.000000000000000000e+00,1.110000000000000000e+02
0.000000000000000000e+00,1.000000000000000000e+00,0.000000000000000000e+00,6.400000000000000000e+01,1.975500000000000000e+04,2.515170574188232422e-01,1.871029138565063477e+00,6.205353082577802493e-01,0.000000000000000000e+00,1.110000000000000000e+02
0.000000000000000000e+00,1.000000000000000000e+00,0.000000000000000000e+00,6.500000000000000000e+01,1.982000000000000000e+04,2.969100475311279297e-01,1.632601976394653320e+00,3.368478200062671180e-01,0.000000000000000000e+00,1.110000000000000000e+02
1.000000000000000000e+00,1.000000000000000000e+00,1.000000000000000000e+00,5.400000000000000000e+01,1.987400000000000000e+04,3.066580295562744141e-01,1.596312046051025391e+00,2.998782126151843808e-01,0.000000000000000000e+00,1.110000000000000000e+02
1.000000000000000000e+00,1.000000000000000000e+00,1.000000000000000000e+00,6.100000000000000000e+01,1.993500000000000000e+04,2.957170009613037109e-01,1.679475069046020508e+00,3.793034018556073472e-01,0.000000000000000000e+00,1.110000000000000000e+02
0.000000000000000000e+00,1.000000000000000000e+00,0.000000000000000000e+00,5.900000000000000000e+01,1.999400000000000000e+04,3.080940246582031250e-01,1.982003927230834961e+00,6.943278322497470345e-01,0.000000000000000000e+00,1.110000000000000000e+02
1.000000000000000000e+00,1.000000000000000000e+00,1.000000000000000000e+00,6.900000000000000000e+01,2.006300000000000000e+04,3.538801670074462891e-01,1.652754068374633789e+00,3.141733760005537279e-01,0.000000000000000000e+00,1.110000000000000000e+02
1.000000000000000000e+00,1.000000000000000000e+00,1.000000000000000000e+00,6.600000000000000000e+01,2.012900000000000000e+04,3.368978500366210938e-01,1.617831945419311523e+00,2.987406202982104686e-01,0.000000000000000000e+00,1.110000000000000000e+02
1.000000000000000000e+00,1.000000000000000000e+00,1.000000000000000000e+00,6.300000000000000000e+01,2.019200000000000000e+04,3.572840690612792969e-01,1.839276075363159180e+00,5.044833734101904499e-01,0.000000000000000000e+00,1.110000000000000000e+02
1.000000000000000000e+00,1.000000000000000000e+00,1.000000000000000000e+00,6.500000000000000000e+01,2.025700000000000000e+04,2.732949256896972656e-01,1.680705070495605469e+00,4.186760242125471265e-01,0.000000000000000000e+00,1.110000000000000000e+02
0.000000000000000000e+00,1.000000000000000000e+00,0.000000000000000000e+00,6.600000000000000000e+01,2.032300000000000000e+04,3.590559959411621094e-01,1.785033941268920898e+00,4.370635927811919452e-01,0.000000000000000000e+00,1.110000000000000000e+02
1.000000000000000000e+00,1.000000000000000000e+00,1.000000000000000000e+00,6.000000000000000000e+01,2.038300000000000000e+04,3.647420406341552734e-01,2.059973001480102539e+00,6.968170643730360325e-01,0.000000000000000000e+00,1.110000000000000000e+02
1.000000000000000000e+00,1.000000000000000000e+00,1.000000000000000000e+00,6.200000000000000000e+01,2.044500000000000000e+04,2.988491058349609375e-01,1.571415185928344727e+00,2.853003393597421389e-01,0.000000000000000000e+00,1.110000000000000000e+02
1.000000000000000000e+00,1.000000000000000000e+00,1.000000000000000000e+00,6.600000000000000000e+01,2.051100000000000000e+04,3.995380401611328125e-01,1.788929939270019531e+00,3.908158769414807887e-01,0.000000000000000000e+00,1.110000000000000000e+02
0.000000000000000000e+00,1.000000000000000000e+00,0.000000000000000000e+00,6.500000000000000000e+01,2.057600000000000000e+04,3.593118190765380859e-01,1.773086071014404297e+00,4.305496693739950254e-01,0.000000000000000000e+00,1.110000000000000000e+02
1.000000000000000000e+00,1.000000000000000000e+00,1.000000000000000000e+00,6.600000000000000000e+01,2.064200000000000000e+04,3.095979690551757812e-01,1.582917928695678711e+00,2.969793670292544818e-01,0.000000000000000000e+00,1.110000000000000000e+02
1.000000000000000000e+00,1.000000000000000000e+00,1.000000000000000000e+00,6.100000000000000000e+01,2.070300000000000000e+04,3.934769630432128906e-01,2.106242179870605469e+00,7.194835151016536479e-01,0.000000000000000000e+00,1.110000000000000000e+02
1.000000000000000000e+00,1.000000000000000000e+00,1.000000000000000000e+00,6.500000000000000000e+01,2.076800000000000000e+04,3.158278465270996094e-01,1.977052927017211914e+00,6.632794703555849880e-01,0.000000000000000000e+00,1.110000000000000000e+02
1.000000000000000000e+00,1.000000000000000000e+00,1.000000000000000000e+00,6.600000000000000000e+01,2.083400000000000000e+04,3.311889171600341797e-01,1.862823963165283203e+00,5.429608620856942736e-01,0.000000000000000000e+00,1.110000000000000000e+02
1.000000000000000000e+00,1.000000000000000000e+00,1.000000000000000000e+00,6.600000000000000000e+01,2.090000000000000000e+04,3.517398834228515625e-01,1.866656064987182617e+00,5.262990114176165912e-01,0.000000000000000000e+00,1.110000000000000000e+02
1.000000000000000000e+00,1.000000000000000000e+00,1.000000000000000000e+00,6.300000000000000000e+01,2.096300000000000000e+04,3.209531307220458984e-01,2.054908990859985352e+00,7.477309875798361372e-01,0.000000000000000000e+00,1.110000000000000000e+02
1.000000000000000000e+00,1.000000000000000000e+00,1.000000000000000000e+00,6.400000000000000000e+01,2.102700000000000000e+04,3.201088905334472656e-01,1.656933069229125977e+00,3.550555993740604488e-01,0.000000000000000000e+00,1.110000000000000000e+02
1.000000000000000000e+00,1.000000000000000000e+00,1.000000000000000000e+00,6.000000000000000000e+01,2.108700000000000000e+04,3.165168762207031250e-01,1.772443056106567383e+00,4.607529896281985504e-01,0.000000000000000000e+00,1.110000000000000000e+02
1.000000000000000000e+00,1.000000000000000000e+00,1.000000000000000000e+00,6.700000000000000000e+01,2.115400000000000000e+04,3.469138145446777344e-01,1.615443944931030273e+00,2.764392256459544117e-01,0.000000000000000000e+00,1.110000000000000000e+02
1.000000000000000000e+00,1.000000000000000000e+00,1.000000000000000000e+00,5.900000000000000000e+01,2.121300000000000000e+04,3.702719211578369141e-01,2.028714895248413086e+00,6.714480848781299027e-01,0.000000000000000000e+00,1.110000000000000000e+02
1.000000000000000000e+00,1.000000000000000000e+00,1.000000000000000000e+00,6.400000000000000000e+01,2.127700000000000000e+04,3.070230484008789062e-01,1.666854858398437500e+00,3.719449765489620807e-01,0.000000000000000000e+00,1.110000000000000000e+02
0.000000000000000000e+00,1.000000000000000000e+00,0.000000000000000000e+00,6.000000000000000000e+01,2.133700000000000000e+04,3.264441490173339844e-01,1.907150030136108398e+00,5.956078607810737502e-01,0.000000000000000000e+00,1.110000000000000000e+02
0.000000000000000000e+00,1.000000000000000000e+00,0.000000000000000000e+00,6.600000000000000000e+01,2.140300000000000000e+04,2.773828506469726562e-01,2.016942977905273438e+00,7.457627917725235811e-01,0.000000000000000000e+00,1.110000000000000000e+02
1.000000000000000000e+00,1.000000000000000000e+00,1.000000000000000000e+00,6.600000000000000000e+01,2.146900000000000000e+04,3.290369510650634766e-01,1.870846986770629883e+00,5.501897876513492935e-01,0.000000000000000000e+00,1.110000000000000000e+02
0.000000000000000000e+00,1.000000000000000000e+00,0.000000000000000000e+00,6.000000000000000000e+01,2.152900000000000000e+04,4.476289749145507812e-01,1.807569026947021484e+00,3.577990619475641121e-01,0.000000000000000000e+00,1.110000000000000000e+02
0.000000000000000000e+00,1.000000000000000000e+00,0.000000000000000000e+00,6.800000000000000000e+01,2.159700000000000000e+04,3.195750713348388672e-01,1.758317947387695312e+00,4.495245843516307294e-01,0.000000000000000000e+00,1.110000000000000000e+02
0.000000000000000000e+00,1.000000000000000000e+00,0.000000000000000000e+00,6.200000000000000000e+01,2.165900000000000000e+04,2.661161422729492188e-01,1.553328037261962891e+00,2.864150831131632713e-01,0.000000000000000000e+00,1.110000000000000000e+02
0.000000000000000000e+00,1.000000000000000000e+00,0.000000000000000000e+00,6.500000000000000000e+01,2.172400000000000000e+04,3.081610202789306641e-01,1.725820064544677734e+00,4.287848593794862939e-01,0.000000000000000000e+00,1.110000000000000000e+02
0.000000000000000000e+00,1.000000000000000000e+00,0.000000000000000000e+00,6.900000000000000000e+01,2.179300000000000000e+04,2.805020809173583984e-01,1.841144084930419922e+00,5.698198623056263123e-01,0.000000000000000000e+00,1.110000000000000000e+02
0.000000000000000000e+00,1.000000000000000000e+00,0.000000000000000000e+00,6.500000000000000000e+01,2.185800000000000000e+04,2.515289783477783203e-01,1.713845968246459961e+00,4.671331390631530134e-01,0.000000000000000000e+00,1.110000000000000000e+02
1.000000000000000000e+00,1.000000000000000000e+00,1.000000000000000000e+00,6.500000000000000000e+01,2.192300000000000000e+04,2.749679088592529297e-01,1.545432090759277344e+00,2.794540283127529556e-01,0.000000000000000000e+00,1.110000000000000000e+02
1.000000000000000000e+00,1.000000000000000000e+00,1.000000000000000000e+00,6.800000000000000000e+01,2.199100000000000000e+04,3.237090110778808594e-01,1.626472949981689453e+00,3.225827889625393907e-01,0.000000000000000000e+00,1.110000000000000000e+02
1.000000000000000000e+00,1.000000000000000000e+00,1.000000000000000000e+00,6.000000000000000000e+01,2.205100000000000000e+04,2.853879928588867188e-01,2.023689985275268555e+00,7.458811062834147521e-01,0.000000000000000000e+00,1.110000000000000000e+02
0.000000000000000000e+00,1.000000000000000000e+00,0.000000000000000000e+00,6.300000000000000000e+01,2.211400000000000000e+04,3.108031749725341797e-01,1.986981153488159180e+00,6.829553684576809003e-01,0.000000000000000000e+00,1.110000000000000000e+02
1.000000000000000000e+00,1.000000000000000000e+00,1.000000000000000000e+00,5.900000000000000000e+01,2.217300000000000000e+04,2.989089488983154297e-01,1.729557991027832031e+00,4.294607835735216872e-01,0.000000000000000000e+00,1.110000000000000000e+02
1.000000000000000000e+00,1.000000000000000000e+00,1.000000000000000000e+00,6.400000000000000000e+01,2.223700000000000000e+04,3.132150173187255859e-01,1.879708051681518555e+00,5.758832421680952773e-01,0.000000000000000000e+00,1.110000000000000000e+02
0.000000000000000000e+00,1.000000000000000000e+00,0.000000000000000000e+00,6.300000000000000000e+01,2.230000000000000000e+04,3.599691390991210938e-01,1.904743909835815430e+00,5.472005940851304429e-01,0.000000000000000000e+00,1.110000000000000000e+02
0.000000000000000000e+00,1.000000000000000000e+00,0.000000000000000000e+00,6.500000000000000000e+01,2.236500000000000000e+04,3.279929161071777344e-01,1.676728963851928711e+00,3.574761658376768847e-01,0.000000000000000000e+00,1.110000000000000000e+02
0.000000000000000000e+00,1.000000000000000000e+00,0.000000000000000000e+00,6.500000000000000000e+01,2.243000000000000000e+04,2.867538928985595703e-01,1.617644071578979492e+00,3.418360972931834274e-01,0.000000000000000000e+00,1.110000000000000000e+02
1.000000000000000000e+00,0.000000000000000000e+00,0.000000000000000000e+00,3.800000000000000000e+01,2.246800000000000000e+04,3.480851650238037109e-01,1.745686054229736328e+00,4.042073464657266468e-01,1.000000000000000000e+00,1.120000000000000000e+02
1.000000000000000000e+00,1.000000000000000000e+00,1.000000000000000000e+00,6.200000000000000000e+01,2.253000000000000000e+04,2.931900024414062500e-01,1.536799192428588867e+00,2.578131525664430490e-01,0.000000000000000000e+00,1.120000000000000000e+02
1.000000000000000000e+00,1.000000000000000000e+00,1.000000000000000000e+00,6.400000000000000000e+01,2.259400000000000000e+04,2.578949928283691406e-01,1.643602848052978516e+00,4.012906063493573705e-01,0.000000000000000000e+00,1.120000000000000000e+02
1.000000000000000000e+00,1.000000000000000000e+00,1.000000000000000000e+00,6.800000000000000000e+01,2.266200000000000000e+04,3.030390739440917969e-01,1.945099115371704102e+00,6.462026562735180280e-01,0.000000000000000000e+00,1.120000000000000000e+02
1.000000000000000000e+00,1.000000000000000000e+00,1.000000000000000000e+00,6.200000000000000000e+01,2.272400000000000000e+04,2.656970024108886719e-01,1.914123058319091797e+00,6.603365714718756330e-01,0.000000000000000000e+00,1.120000000000000000e+02
0.000000000000000000e+00,1.000000000000000000e+00,0.000000000000000000e+00,6.700000000000000000e+01,2.279100000000000000e+04,3.470900058746337891e-01,1.978651046752929688e+00,6.390287211817526902e-01,0.000000000000000000e+00,1.120000000000000000e+02
0.000000000000000000e+00,1.000000000000000000e+00,0.000000000000000000e+00,6.000000000000000000e+01,2.285100000000000000e+04,2.378218173980712891e-01,1.970497846603393555e+00,7.427939148129105718e-01,0.000000000000000000e+00,1.120000000000000000e+02
1.000000000000000000e+00,1.000000000000000000e+00,1.000000000000000000e+00,6.200000000000000000e+01,2.291300000000000000e+04,3.281941413879394531e-01,2.065627098083496094e+00,7.419028629670709751e-01,0.000000000000000000e+00,1.120000000000000000e+02
0.000000000000000000e+00,1.000000000000000000e+00,0.000000000000000000e+00,6.800000000000000000e+01,2.298100000000000000e+04,3.327021598815917969e-01,2.022433996200561523e+00,6.975969833303272694e-01,0.000000000000000000e+00,1.120000000000000000e+02
0.000000000000000000e+00,1.000000000000000000e+00,0.000000000000000000e+00,6.400000000000000000e+01,2.304500000000000000e+04,3.071568012237548828e-01,1.843142032623291016e+00,5.576166369399582212e-01,0.000000000000000000e+00,1.120000000000000000e+02
0.000000000000000000e+00,1.000000000000000000e+00,0.000000000000000000e+00,6.300000000000000000e+01,2.310800000000000000e+04,2.751760482788085938e-01,1.770966053009033203e+00,5.119530409382631042e-01,0.000000000000000000e+00,1.120000000000000000e+02
1.000000000000000000e+00,1.000000000000000000e+00,1.000000000000000000e+00,6.400000000000000000e+01,2.317200000000000000e+04,4.086279869079589844e-01,1.708288908004760742e+00,3.205087373270211759e-01,0.000000000000000000e+00,1.120000000000000000e+02
1.000000000000000000e+00,1.000000000000000000e+00,1.000000000000000000e+00,6.500000000000000000e+01,2.323700000000000000e+04,3.158969879150390625e-01,1.944618225097656250e+00,6.314949926208184294e-01,0.000000000000000000e+00,1.120000000000000000e+02
1.000000000000000000e+00,1.000000000000000000e+00,1.000000000000000000e+00,6.100000000000000000e+01,2.329800000000000000e+04,2.927150726318359375e-01,1.687422990798950195e+00,4.191765746790329095e-01,0.000000000000000000e+00,1.120000000000000000e+02
1.000000000000000000e+00,1.000000000000000000e+00,1.000000000000000000e+00,6.200000000000000000e+01,2.336000000000000000e+04,2.997510433197021484e-01,1.737828969955444336e+00,4.403638985625610847e-01,0.000000000000000000e+00,1.120000000000000000e+02
1.000000000000000000e+00,1.000000000000000000e+00,1.000000000000000000e+00,6.800000000000000000e+01,2.342800000000000000e+04,3.124868869781494141e-01,1.710506916046142578e+00,4.009328145100758967e-01,0.000000000000000000e+00,1.120000000000000000e+02
1.000000000000000000e+00,1.000000000000000000e+00,1.000000000000000000e+00,6.400000000000000000e+01,2.349200000000000000e+04,2.719669342041015625e-01,1.749812126159667969e+00,4.840308270330326290e-01,0.000000000000000000e+00,1.120000000000000000e+02
0.000000000000000000e+00,1.000000000000000000e+00,0.000000000000000000e+00,6.600000000000000000e+01,2.355800000000000000e+04,3.550090789794921875e-01,1.912235975265502930e+00,5.628958701711501700e-01,0.000000000000000000e+00,1.120000000000000000e+02
1.000000000000000000e+00,1.000000000000000000e+00,1.000000000000000000e+00,6.800000000000000000e+01,2.362600000000000000e+04,3.150448799133300781e-01,1.586889982223510742e+00,2.834259921381355185e-01,0.000000000000000000e+00,1.120000000000000000e+02
1.000000000000000000e+00,1.000000000000000000e+00,1.000000000000000000e+00,6.000000000000000000e+01,2.368600000000000000e+04,2.800421714782714844e-01,1.624611139297485352e+00,3.413339340817978518e-01,0.000000000000000000e+00,1.120000000000000000e+02
1.000000000000000000e+00,1.000000000000000000e+00,1.000000000000000000e+00,5.900000000000000000e+01,2.374500000000000000e+04,2.964210510253906250e-01,1.672122001647949219e+00,3.801059562213595089e-01,0.000000000000000000e+00,1.120000000000000000e+02
0.000000000000000000e+00,1.000000000000000000e+00,0.000000000000000000e+00,6.400000000000000000e+01,2.380900000000000000e+04,3.038599491119384766e-01,1.632352828979492188e+00,3.458780512141953478e-01,0.000000000000000000e+00,1.120000000000000000e+02
1.000000000000000000e+00,1.000000000000000000e+00,1.000000000000000000e+00,6.400000000000000000e+01,2.387300000000000000e+04,3.235218524932861328e-01,1.826030015945434570e+00,5.217304946146698041e-01,0.000000000000000000e+00,1.120000000000000000e+02
1.000000000000000000e+00,1.000000000000000000e+00,1.000000000000000000e+00,6.200000000000000000e+01,2.393500000000000000e+04,3.282570838928222656e-01,2.019197940826416016e+00,6.907360845938690375e-01,0.000000000000000000e+00,1.120000000000000000e+02
1.000000000000000000e+00,1.000000000000000000e+00,1.000000000000000000e+00,6.400000000000000000e+01,2.399900000000000000e+04,2.887029647827148438e-01,1.740299940109252930e+00,4.646988976942287852e-01,0.000000000000000000e+00,1.120000000000000000e+02
1.000000000000000000e+00,1.000000000000000000e+00,1.000000000000000000e+00,6.800000000000000000e+01,2.406700000000000000e+04,3.725399971008300781e-01,2.076786994934082031e+00,7.245636123973570042e-01,0.000000000000000000e+00,1.120000000000000000e+02
0.000000000000000000e+00,1.000000000000000000e+00,0.000000000000000000e+00,6.100000000000000000e+01,2.412800000000000000e+04,3.810789585113525391e-01,1.625250101089477539e+00,2.503697553305842538e-01,0.000000000000000000e+00,1.120000000000000000e+02
1.000000000000000000e+00,1.000000000000000000e+00,1.000000000000000000e+00,6.500000000000000000e+01,2.419300000000000000e+04,3.948099613189697266e-01,2.048280000686645508e+00,6.482590178923232083e-01,0.000000000000000000e+00,1.120000000000000000e+02
1.000000000000000000e+00,1.000000000000000000e+00,1.000000000000000000e+00,6.300000000000000000e+01,2.425600000000000000e+04,2.945449352264404297e-01,1.549147129058837891e+00,2.645073544596094894e-01,0.000000000000000000e+00,1.120000000000000000e+02
1.000000000000000000e+00,1.000000000000000000e+00,1.000000000000000000e+00,6.000000000000000000e+01,2.431600000000000000e+04,3.257460594177246094e-01,1.748008966445922852e+00,4.456799624340526678e-01,0.000000000000000000e+00,1.120000000000000000e+02
1.000000000000000000e+00,1.000000000000000000e+00,1.000000000000000000e+00,7.200000000000000000e+01,2.438800000000000000e+04,3.199038505554199219e-01,1.870522022247314453e+00,5.661369284458493967e-01,0.000000000000000000e+00,1.120000000000000000e+02
1.000000000000000000e+00,1.000000000000000000e+00,1.000000000000000000e+00,6.100000000000000000e+01,2.444900000000000000e+04,2.994379997253417969e-01,1.700237035751342773e+00,3.999001784436799767e-01,0.000000000000000000e+00,1.120000000000000000e+02
1.000000000000000000e+00,1.000000000000000000e+00,1.000000000000000000e+00,6.100000000000000000e+01,2.451000000000000000e+04,3.784449100494384766e-01,1.879381895065307617e+00,5.125049185496857174e-01,0.000000000000000000e+00,1.120000000000000000e+02
1.000000000000000000e+00,1.000000000000000000e+00,1.000000000000000000e+00,6.800000000000000000e+01,2.457800000000000000e+04,3.019909858703613281e-01,2.026751995086669922e+00,7.390346973473004288e-01,0.000000000000000000e+00,1.120000000000000000e+02
0.000000000000000000e+00,1.000000000000000000e+00,0.000000000000000000e+00,6.500000000000000000e+01,2.464300000000000000e+04,3.587200641632080078e-01,1.798472881317138672e+00,4.545239639451975067e-01,0.000000000000000000e+00,1.120000000000000000e+02
0.000000000000000000e+00,1.000000000000000000e+00,0.000000000000000000e+00,6.300000000000000000e+01,2.470600000000000000e+04,2.676150798797607422e-01,1.654320001602172852e+00,3.922809312256987924e-01,0.000000000000000000e+00,1.120000000000000000e+02
1.000000000000000000e+00,1.000000000000000000e+00,1.000000000000000000e+00,6.200000000000000000e+01,2.476800000000000000e+04,3.148009777069091797e-01,1.614926099777221680e+00,3.073242654306608812e-01,0.000000000000000000e+00,1.120000000000000000e+02
1.000000000000000000e+00,1.000000000000000000e+00,1.000000000000000000e+00,6.200000000000000000e+01,2.483000000000000000e+04,4.382028579711914062e-01,2.175539016723632812e+00,7.490861085616100645e-01,0.000000000000000000e+00,1.120000000000000000e+02
0.000000000000000000e+00,1.000000000000000000e+00,0.000000000000000000e+00,6.200000000000000000e+01,2.489200000000000000e+04,3.799140453338623047e-01,1.938589096069335938e+00,5.545881018258400630e-01,0.000000000000000000e+00,1.120000000000000000e+02
0.000000000000000000e+00,1.000000000000000000e+00,0.000000000000000000e+00,6.100000000000000000e+01,2.495300000000000000e+04,2.606968879699707031e-01,1.762100934982299805e+00,5.167462541449807656e-01,0.000000000000000000e+00,1.120000000000000000e+02
