choice, accuracy, solution,  reward, cumulative_reward, rt,  total_trial_time, iti, cp_with_slow_fast, high_val_cue
0.000000000000000000e+00,0.000000000000000000e+00,1.000000000000000000e+00,4.700000000000000000e+01,4.700000000000000000e+01,6.637308597564697266e-01,2.133249044418334961e+00,4.682139080984366042e-01,0.000000000000000000e+00,1.120000000000000000e+02
1.000000000000000000e+00,0.000000000000000000e+00,0.000000000000000000e+00,3.500000000000000000e+01,8.200000000000000000e+01,2.395589351654052734e-01,1.952169895172119141e+00,7.201351434237737159e-01,0.000000000000000000e+00,1.120000000000000000e+02
1.000000000000000000e+00,1.000000000000000000e+00,1.000000000000000000e+00,6.200000000000000000e+01,1.440000000000000000e+02,3.177359104156494141e-01,1.714037895202636719e+00,4.012296969806611879e-01,0.000000000000000000e+00,1.120000000000000000e+02
1.000000000000000000e+00,1.000000000000000000e+00,1.000000000000000000e+00,5.900000000000000000e+01,2.030000000000000000e+02,4.451341629028320312e-01,2.076758146286010742e+00,6.277411224351194807e-01,0.000000000000000000e+00,1.120000000000000000e+02
1.000000000000000000e+00,1.000000000000000000e+00,1.000000000000000000e+00,6.200000000000000000e+01,2.650000000000000000e+02,2.594480514526367188e-01,1.683689832687377930e+00,4.450609495860862186e-01,0.000000000000000000e+00,1.120000000000000000e+02
1.000000000000000000e+00,1.000000000000000000e+00,1.000000000000000000e+00,5.600000000000000000e+01,3.210000000000000000e+02,3.001608848571777344e-01,1.662683010101318359e+00,3.744985465940128821e-01,0.000000000000000000e+00,1.120000000000000000e+02
0.000000000000000000e+00,1.000000000000000000e+00,0.000000000000000000e+00,5.900000000000000000e+01,3.800000000000000000e+02,3.386299610137939453e-01,1.832716941833496094e+00,5.070989740457072514e-01,0.000000000000000000e+00,1.120000000000000000e+02
0.000000000000000000e+00,1.000000000000000000e+00,0.000000000000000000e+00,6.800000000000000000e+01,4.480000000000000000e+02,3.112871646881103516e-01,1.718522071838378906e+00,4.091031509891396856e-01,0.000000000000000000e+00,1.120000000000000000e+02
0.000000000000000000e+00,1.000000000000000000e+00,0.000000000000000000e+00,6.200000000000000000e+01,5.100000000000000000e+02,3.327279090881347656e-01,1.761731863021850586e+00,4.375240260019206961e-01,0.000000000000000000e+00,1.120000000000000000e+02
0.000000000000000000e+00,1.000000000000000000e+00,0.000000000000000000e+00,6.400000000000000000e+01,5.740000000000000000e+02,3.420410156250000000e-01,2.054356813430786133e+00,7.249609852543514865e-01,0.000000000000000000e+00,1.120000000000000000e+02
0.000000000000000000e+00,1.000000000000000000e+00,0.000000000000000000e+00,5.700000000000000000e+01,6.310000000000000000e+02,3.161180019378662109e-01,1.862885236740112305e+00,5.547121488900343955e-01,0.000000000000000000e+00,1.120000000000000000e+02
0.000000000000000000e+00,1.000000000000000000e+00,0.000000000000000000e+00,5.700000000000000000e+01,6.880000000000000000e+02,4.035289287567138672e-01,1.967440843582153320e+00,5.721172095838384930e-01,0.000000000000000000e+00,1.120000000000000000e+02
1.000000000000000000e+00,1.000000000000000000e+00,1.000000000000000000e+00,5.400000000000000000e+01,7.420000000000000000e+02,3.058819770812988281e-01,1.666941165924072266e+00,3.726044228390193447e-01,0.000000000000000000e+00,1.120000000000000000e+02
0.000000000000000000e+00,1.000000000000000000e+00,0.000000000000000000e+00,5.600000000000000000e+01,7.980000000000000000e+02,2.802979946136474609e-01,1.712203979492187500e+00,4.347961859548928887e-01,0.000000000000000000e+00,1.120000000000000000e+02
0.000000000000000000e+00,1.000000000000000000e+00,0.000000000000000000e+00,6.000000000000000000e+01,8.580000000000000000e+02,3.336150646209716797e-01,2.079059123992919922e+00,7.468110122396385275e-01,0.000000000000000000e+00,1.120000000000000000e+02
1.000000000000000000e+00,1.000000000000000000e+00,1.000000000000000000e+00,5.500000000000000000e+01,9.130000000000000000e+02,2.829949855804443359e-01,1.957520961761474609e+00,6.878451183560725379e-01,0.000000000000000000e+00,1.120000000000000000e+02
0.000000000000000000e+00,1.000000000000000000e+00,0.000000000000000000e+00,5.600000000000000000e+01,9.690000000000000000e+02,2.933270931243896484e-01,1.972860097885131836e+00,6.940095253909797091e-01,0.000000000000000000e+00,1.120000000000000000e+02
1.000000000000000000e+00,0.000000000000000000e+00,0.000000000000000000e+00,4.000000000000000000e+01,1.009000000000000000e+03,2.617919445037841797e-01,1.544386863708496094e+00,2.888347587011784734e-01,0.000000000000000000e+00,1.120000000000000000e+02
1.000000000000000000e+00,1.000000000000000000e+00,1.000000000000000000e+00,5.400000000000000000e+01,1.063000000000000000e+03,2.857739925384521484e-01,1.946135997772216797e+00,6.679547890921386788e-01,0.000000000000000000e+00,1.120000000000000000e+02
1.000000000000000000e+00,1.000000000000000000e+00,1.000000000000000000e+00,6.000000000000000000e+01,1.123000000000000000e+03,2.958528995513916016e-01,1.932108879089355469e+00,6.334664090170226691e-01,0.000000000000000000e+00,1.120000000000000000e+02
1.000000000000000000e+00,1.000000000000000000e+00,1.000000000000000000e+00,5.700000000000000000e+01,1.180000000000000000e+03,3.006248474121093750e-01,1.827131032943725586e+00,5.273709735037386270e-01,0.000000000000000000e+00,1.120000000000000000e+02
1.000000000000000000e+00,1.000000000000000000e+00,1.000000000000000000e+00,5.400000000000000000e+01,1.234000000000000000e+03,2.609779834747314453e-01,1.584156036376953125e+00,3.451069880178045945e-01,0.000000000000000000e+00,1.120000000000000000e+02
1.000000000000000000e+00,1.000000000000000000e+00,1.000000000000000000e+00,5.600000000000000000e+01,1.290000000000000000e+03,2.617158889770507812e-01,1.671333074569702148e+00,4.163993569161775765e-01,0.000000000000000000e+00,1.120000000000000000e+02
1.000000000000000000e+00,1.000000000000000000e+00,1.000000000000000000e+00,6.100000000000000000e+01,1.351000000000000000e+03,2.524008750915527344e-01,1.562757968902587891e+00,3.125859648429539228e-01,0.000000000000000000e+00,1.120000000000000000e+02
0.000000000000000000e+00,1.000000000000000000e+00,0.000000000000000000e+00,5.500000000000000000e+01,1.406000000000000000e+03,3.184781074523925781e-01,1.599662065505981445e+00,2.956651127247717503e-01,0.000000000000000000e+00,1.120000000000000000e+02
1.000000000000000000e+00,1.000000000000000000e+00,1.000000000000000000e+00,6.100000000000000000e+01,1.467000000000000000e+03,2.325320243835449219e-01,1.889397144317626953e+00,6.680123134089552828e-01,0.000000000000000000e+00,1.120000000000000000e+02
1.000000000000000000e+00,1.000000000000000000e+00,1.000000000000000000e+00,6.000000000000000000e+01,1.527000000000000000e+03,3.106889724731445312e-01,2.027734041213989258e+00,7.291160584887861340e-01,0.000000000000000000e+00,1.120000000000000000e+02
1.000000000000000000e+00,1.000000000000000000e+00,1.000000000000000000e+00,5.600000000000000000e+01,1.583000000000000000e+03,2.610590457916259766e-01,1.523787021636962891e+00,2.867101581720153947e-01,0.000000000000000000e+00,1.120000000000000000e+02
0.000000000000000000e+00,0.000000000000000000e+00,1.000000000000000000e+00,3.300000000000000000e+01,1.616000000000000000e+03,4.237949848175048828e-01,2.019300937652587891e+00,6.058970906393048583e-01,1.000000000000000000e+00,1.110000000000000000e+02
0.000000000000000000e+00,1.000000000000000000e+00,0.000000000000000000e+00,6.800000000000000000e+01,1.684000000000000000e+03,3.121509552001953125e-01,1.656679153442382812e+00,3.460327759531212632e-01,0.000000000000000000e+00,1.110000000000000000e+02
1.000000000000000000e+00,1.000000000000000000e+00,1.000000000000000000e+00,6.700000000000000000e+01,1.751000000000000000e+03,2.772750854492187500e-01,1.599746942520141602e+00,3.291639935913288628e-01,0.000000000000000000e+00,1.110000000000000000e+02
1.000000000000000000e+00,1.000000000000000000e+00,1.000000000000000000e+00,6.600000000000000000e+01,1.817000000000000000e+03,3.163249492645263672e-01,1.625750064849853516e+00,3.216187448493305068e-01,0.000000000000000000e+00,1.110000000000000000e+02
1.000000000000000000e+00,1.000000000000000000e+00,1.000000000000000000e+00,6.600000000000000000e+01,1.883000000000000000e+03,3.020098209381103516e-01,1.852720975875854492e+00,5.574657133130074271e-01,0.000000000000000000e+00,1.110000000000000000e+02
1.000000000000000000e+00,1.000000000000000000e+00,1.000000000000000000e+00,6.800000000000000000e+01,1.951000000000000000e+03,3.000779151916503906e-01,1.824406862258911133e+00,5.319205084421791963e-01,0.000000000000000000e+00,1.110000000000000000e+02
0.000000000000000000e+00,1.000000000000000000e+00,0.000000000000000000e+00,6.700000000000000000e+01,2.018000000000000000e+03,2.771110534667968750e-01,1.564998149871826172e+00,2.805646017993193020e-01,0.000000000000000000e+00,1.110000000000000000e+02
1.000000000000000000e+00,1.000000000000000000e+00,1.000000000000000000e+00,6.400000000000000000e+01,2.082000000000000000e+03,2.647831439971923828e-01,1.711766958236694336e+00,4.588027631398162165e-01,0.000000000000000000e+00,1.110000000000000000e+02
0.000000000000000000e+00,1.000000000000000000e+00,0.000000000000000000e+00,6.600000000000000000e+01,2.148000000000000000e+03,2.762448787689208984e-01,1.805628061294555664e+00,5.477468132015340663e-01,0.000000000000000000e+00,1.110000000000000000e+02
1.000000000000000000e+00,1.000000000000000000e+00,1.000000000000000000e+00,6.900000000000000000e+01,2.217000000000000000e+03,2.963058948516845703e-01,1.629168987274169922e+00,3.438122619457207318e-01,0.000000000000000000e+00,1.110000000000000000e+02
1.000000000000000000e+00,1.000000000000000000e+00,1.000000000000000000e+00,6.900000000000000000e+01,2.286000000000000000e+03,3.530550003051757812e-01,2.016926050186157227e+00,6.770834478724437888e-01,0.000000000000000000e+00,1.110000000000000000e+02
1.000000000000000000e+00,1.000000000000000000e+00,1.000000000000000000e+00,6.500000000000000000e+01,2.351000000000000000e+03,2.604119777679443359e-01,1.496201038360595703e+00,2.571018861047373316e-01,0.000000000000000000e+00,1.110000000000000000e+02
0.000000000000000000e+00,1.000000000000000000e+00,0.000000000000000000e+00,7.300000000000000000e+01,2.424000000000000000e+03,4.295210838317871094e-01,1.741949081420898438e+00,3.156988993285522738e-01,0.000000000000000000e+00,1.110000000000000000e+02
0.000000000000000000e+00,1.000000000000000000e+00,0.000000000000000000e+00,6.800000000000000000e+01,2.492000000000000000e+03,2.844738960266113281e-01,1.651947021484375000e+00,3.676255896477343410e-01,0.000000000000000000e+00,1.110000000000000000e+02
1.000000000000000000e+00,1.000000000000000000e+00,1.000000000000000000e+00,6.500000000000000000e+01,2.557000000000000000e+03,3.015711307525634766e-01,2.046937942504882812e+00,7.475421965809905256e-01,0.000000000000000000e+00,1.110000000000000000e+02
1.000000000000000000e+00,0.000000000000000000e+00,0.000000000000000000e+00,3.600000000000000000e+01,2.593000000000000000e+03,2.563180923461914062e-01,1.890970945358276367e+00,6.553217442338430399e-01,0.000000000000000000e+00,1.110000000000000000e+02
0.000000000000000000e+00,1.000000000000000000e+00,0.000000000000000000e+00,6.200000000000000000e+01,2.655000000000000000e+03,3.354279994964599609e-01,1.652708053588867188e+00,3.250276049647156107e-01,0.000000000000000000e+00,1.110000000000000000e+02
0.000000000000000000e+00,1.000000000000000000e+00,0.000000000000000000e+00,6.700000000000000000e+01,2.722000000000000000e+03,4.584701061248779297e-01,2.047888040542602539e+00,6.060374655432922975e-01,0.000000000000000000e+00,1.110000000000000000e+02
1.000000000000000000e+00,0.000000000000000000e+00,0.000000000000000000e+00,2.700000000000000000e+01,2.749000000000000000e+03,2.624969482421875000e-01,1.901359081268310547e+00,6.406997380203216519e-01,0.000000000000000000e+00,1.110000000000000000e+02
0.000000000000000000e+00,1.000000000000000000e+00,0.000000000000000000e+00,6.400000000000000000e+01,2.813000000000000000e+03,3.495819568634033203e-01,2.036139011383056641e+00,6.935062049863506273e-01,0.000000000000000000e+00,1.110000000000000000e+02
0.000000000000000000e+00,1.000000000000000000e+00,0.000000000000000000e+00,6.800000000000000000e+01,2.881000000000000000e+03,3.463389873504638672e-01,1.792802095413208008e+00,4.532739773970805852e-01,0.000000000000000000e+00,1.110000000000000000e+02
1.000000000000000000e+00,1.000000000000000000e+00,1.000000000000000000e+00,6.600000000000000000e+01,2.947000000000000000e+03,3.274188041687011719e-01,2.023934841156005859e+00,6.936498640739258148e-01,0.000000000000000000e+00,1.110000000000000000e+02
0.000000000000000000e+00,1.000000000000000000e+00,0.000000000000000000e+00,6.400000000000000000e+01,3.011000000000000000e+03,3.377580642700195312e-01,1.980564117431640625e+00,6.576518793289691800e-01,0.000000000000000000e+00,1.110000000000000000e+02
1.000000000000000000e+00,1.000000000000000000e+00,1.000000000000000000e+00,6.900000000000000000e+01,3.080000000000000000e+03,2.605559825897216797e-01,1.659007072448730469e+00,4.002581044838220969e-01,0.000000000000000000e+00,1.110000000000000000e+02
0.000000000000000000e+00,0.000000000000000000e+00,1.000000000000000000e+00,3.600000000000000000e+01,3.116000000000000000e+03,5.159142017364501953e-01,2.132921934127807617e+00,6.166003585024180111e-01,0.000000000000000000e+00,1.110000000000000000e+02
1.000000000000000000e+00,1.000000000000000000e+00,1.000000000000000000e+00,6.500000000000000000e+01,3.181000000000000000e+03,3.656620979309082031e-01,1.897736072540283203e+00,5.308655571963738495e-01,0.000000000000000000e+00,1.110000000000000000e+02
1.000000000000000000e+00,1.000000000000000000e+00,1.000000000000000000e+00,6.700000000000000000e+01,3.248000000000000000e+03,3.415558338165283203e-01,1.751050949096679688e+00,4.320627971317645422e-01,0.000000000000000000e+00,1.110000000000000000e+02
1.000000000000000000e+00,1.000000000000000000e+00,1.000000000000000000e+00,5.600000000000000000e+01,3.304000000000000000e+03,3.864848613739013672e-01,2.018072128295898438e+00,6.499842401645334888e-01,0.000000000000000000e+00,1.110000000000000000e+02
1.000000000000000000e+00,1.000000000000000000e+00,1.000000000000000000e+00,6.400000000000000000e+01,3.368000000000000000e+03,2.552018165588378906e-01,1.579825878143310547e+00,3.301253134380120469e-01,0.000000000000000000e+00,1.110000000000000000e+02
1.000000000000000000e+00,1.000000000000000000e+00,1.000000000000000000e+00,6.600000000000000000e+01,3.434000000000000000e+03,5.346059799194335938e-01,1.979285001754760742e+00,4.593248158513570933e-01,0.000000000000000000e+00,1.110000000000000000e+02
1.000000000000000000e+00,1.000000000000000000e+00,1.000000000000000000e+00,6.100000000000000000e+01,3.495000000000000000e+03,3.063290119171142578e-01,1.996116876602172852e+00,7.052225673269224560e-01,0.000000000000000000e+00,1.110000000000000000e+02
0.000000000000000000e+00,1.000000000000000000e+00,0.000000000000000000e+00,7.000000000000000000e+01,3.565000000000000000e+03,5.414109230041503906e-01,2.206023931503295898e+00,6.779814562892616525e-01,0.000000000000000000e+00,1.110000000000000000e+02
0.000000000000000000e+00,1.000000000000000000e+00,0.000000000000000000e+00,6.600000000000000000e+01,3.631000000000000000e+03,4.574952125549316406e-01,1.894788026809692383e+00,4.563385821896917549e-01,0.000000000000000000e+00,1.110000000000000000e+02
0.000000000000000000e+00,1.000000000000000000e+00,0.000000000000000000e+00,6.600000000000000000e+01,3.697000000000000000e+03,5.345430374145507812e-01,2.001137018203735352e+00,4.741879129794820402e-01,0.000000000000000000e+00,1.110000000000000000e+02
1.000000000000000000e+00,1.000000000000000000e+00,1.000000000000000000e+00,6.300000000000000000e+01,3.760000000000000000e+03,4.025990962982177734e-01,1.914408922195434570e+00,5.219204971976723062e-01,0.000000000000000000e+00,1.110000000000000000e+02
1.000000000000000000e+00,1.000000000000000000e+00,1.000000000000000000e+00,7.000000000000000000e+01,3.830000000000000000e+03,2.780499458312988281e-01,1.554337978363037109e+00,2.931993552763017541e-01,0.000000000000000000e+00,1.110000000000000000e+02
1.000000000000000000e+00,1.000000000000000000e+00,1.000000000000000000e+00,7.100000000000000000e+01,3.901000000000000000e+03,3.010671138763427734e-01,1.693068027496337891e+00,4.028478847129676188e-01,0.000000000000000000e+00,1.110000000000000000e+02
0.000000000000000000e+00,0.000000000000000000e+00,1.000000000000000000e+00,4.100000000000000000e+01,3.942000000000000000e+03,5.381801128387451172e-01,2.154013872146606445e+00,6.232930055099559219e-01,1.000000000000000000e+00,1.120000000000000000e+02
0.000000000000000000e+00,1.000000000000000000e+00,0.000000000000000000e+00,5.600000000000000000e+01,3.998000000000000000e+03,3.252100944519042969e-01,1.902405023574829102e+00,5.924787185071971329e-01,0.000000000000000000e+00,1.120000000000000000e+02
0.000000000000000000e+00,1.000000000000000000e+00,0.000000000000000000e+00,5.700000000000000000e+01,4.055000000000000000e+03,2.992179393768310547e-01,2.011311769485473633e+00,7.200941422612843201e-01,0.000000000000000000e+00,1.120000000000000000e+02
1.000000000000000000e+00,1.000000000000000000e+00,1.000000000000000000e+00,6.200000000000000000e+01,4.117000000000000000e+03,3.346898555755615234e-01,1.833708047866821289e+00,5.043351663622432923e-01,0.000000000000000000e+00,1.120000000000000000e+02
0.000000000000000000e+00,1.000000000000000000e+00,0.000000000000000000e+00,5.600000000000000000e+01,4.173000000000000000e+03,3.313810825347900391e-01,1.811808109283447266e+00,4.828456523646981191e-01,0.000000000000000000e+00,1.120000000000000000e+02
0.000000000000000000e+00,1.000000000000000000e+00,0.000000000000000000e+00,6.000000000000000000e+01,4.233000000000000000e+03,3.327829837799072266e-01,1.874613046646118164e+00,5.407830785590497236e-01,0.000000000000000000e+00,1.120000000000000000e+02
1.000000000000000000e+00,1.000000000000000000e+00,1.000000000000000000e+00,5.600000000000000000e+01,4.289000000000000000e+03,2.792260646820068359e-01,2.008964061737060547e+00,7.328800831700559293e-01,0.000000000000000000e+00,1.120000000000000000e+02
0.000000000000000000e+00,1.000000000000000000e+00,0.000000000000000000e+00,5.600000000000000000e+01,4.345000000000000000e+03,2.645969390869140625e-01,1.812472105026245117e+00,5.455968640530989289e-01,0.000000000000000000e+00,1.120000000000000000e+02
1.000000000000000000e+00,1.000000000000000000e+00,1.000000000000000000e+00,6.400000000000000000e+01,4.409000000000000000e+03,2.136690616607666016e-01,1.622816085815429688e+00,4.185868406217483351e-01,0.000000000000000000e+00,1.120000000000000000e+02
0.000000000000000000e+00,1.000000000000000000e+00,0.000000000000000000e+00,5.600000000000000000e+01,4.465000000000000000e+03,2.533988952636718750e-01,1.550395965576171875e+00,3.024829924687585936e-01,0.000000000000000000e+00,1.120000000000000000e+02
0.000000000000000000e+00,1.000000000000000000e+00,0.000000000000000000e+00,5.500000000000000000e+01,4.520000000000000000e+03,3.704309463500976562e-01,1.952202081680297852e+00,5.877668400001934135e-01,0.000000000000000000e+00,1.120000000000000000e+02
0.000000000000000000e+00,1.000000000000000000e+00,0.000000000000000000e+00,5.300000000000000000e+01,4.573000000000000000e+03,2.684891223907470703e-01,1.959367036819458008e+00,6.970376054403611965e-01,0.000000000000000000e+00,1.120000000000000000e+02
0.000000000000000000e+00,1.000000000000000000e+00,0.000000000000000000e+00,5.400000000000000000e+01,4.627000000000000000e+03,3.015940189361572266e-01,1.779865026473999023e+00,4.937980670076888012e-01,0.000000000000000000e+00,1.120000000000000000e+02
1.000000000000000000e+00,1.000000000000000000e+00,1.000000000000000000e+00,5.600000000000000000e+01,4.683000000000000000e+03,2.952349185943603516e-01,1.898154020309448242e+00,6.085702740666445454e-01,0.000000000000000000e+00,1.120000000000000000e+02
0.000000000000000000e+00,1.000000000000000000e+00,0.000000000000000000e+00,6.200000000000000000e+01,4.745000000000000000e+03,2.483661174774169922e-01,1.670146942138671875e+00,4.289177766086241239e-01,0.000000000000000000e+00,1.120000000000000000e+02
0.000000000000000000e+00,1.000000000000000000e+00,0.000000000000000000e+00,5.700000000000000000e+01,4.802000000000000000e+03,2.756929397583007812e-01,1.646664857864379883e+00,3.923171295152822480e-01,0.000000000000000000e+00,1.120000000000000000e+02
1.000000000000000000e+00,1.000000000000000000e+00,1.000000000000000000e+00,5.600000000000000000e+01,4.858000000000000000e+03,2.588329315185546875e-01,1.947141170501708984e+00,7.058671758062362578e-01,0.000000000000000000e+00,1.120000000000000000e+02
0.000000000000000000e+00,1.000000000000000000e+00,0.000000000000000000e+00,5.400000000000000000e+01,4.912000000000000000e+03,2.678430080413818359e-01,1.832808017730712891e+00,5.721349710257279675e-01,0.000000000000000000e+00,1.120000000000000000e+02
1.000000000000000000e+00,1.000000000000000000e+00,1.000000000000000000e+00,5.600000000000000000e+01,4.968000000000000000e+03,2.575559616088867188e-01,1.899575948715209961e+00,6.550164566586320625e-01,0.000000000000000000e+00,1.120000000000000000e+02
0.000000000000000000e+00,1.000000000000000000e+00,0.000000000000000000e+00,5.900000000000000000e+01,5.027000000000000000e+03,2.766840457916259766e-01,1.681639194488525391e+00,4.202509625719383357e-01,0.000000000000000000e+00,1.120000000000000000e+02
1.000000000000000000e+00,1.000000000000000000e+00,1.000000000000000000e+00,5.700000000000000000e+01,5.084000000000000000e+03,3.173658847808837891e-01,2.029562950134277344e+00,7.162528349755410417e-01,0.000000000000000000e+00,1.120000000000000000e+02
1.000000000000000000e+00,1.000000000000000000e+00,1.000000000000000000e+00,6.200000000000000000e+01,5.146000000000000000e+03,3.361170291900634766e-01,2.024323940277099609e+00,6.906164945317621040e-01,0.000000000000000000e+00,1.120000000000000000e+02
1.000000000000000000e+00,1.000000000000000000e+00,1.000000000000000000e+00,6.000000000000000000e+01,5.206000000000000000e+03,2.395219802856445312e-01,1.847094058990478516e+00,6.211679629239599265e-01,0.000000000000000000e+00,1.120000000000000000e+02
1.000000000000000000e+00,1.000000000000000000e+00,1.000000000000000000e+00,5.900000000000000000e+01,5.265000000000000000e+03,2.485718727111816406e-01,1.698482036590576172e+00,4.531805880183244484e-01,0.000000000000000000e+00,1.120000000000000000e+02
0.000000000000000000e+00,1.000000000000000000e+00,0.000000000000000000e+00,5.600000000000000000e+01,5.321000000000000000e+03,3.246421813964843750e-01,1.911825180053710938e+00,5.982118986496804958e-01,0.000000000000000000e+00,1.120000000000000000e+02
1.000000000000000000e+00,1.000000000000000000e+00,1.000000000000000000e+00,5.400000000000000000e+01,5.375000000000000000e+03,2.737381458282470703e-01,1.869503974914550781e+00,6.177598765527512192e-01,0.000000000000000000e+00,1.120000000000000000e+02
0.000000000000000000e+00,1.000000000000000000e+00,0.000000000000000000e+00,5.600000000000000000e+01,5.431000000000000000e+03,2.434508800506591797e-01,1.860842943191528320e+00,6.286269672936789510e-01,0.000000000000000000e+00,1.120000000000000000e+02
0.000000000000000000e+00,1.000000000000000000e+00,0.000000000000000000e+00,5.600000000000000000e+01,5.487000000000000000e+03,2.815461158752441406e-01,1.965044975280761719e+00,6.936383313062656208e-01,0.000000000000000000e+00,1.120000000000000000e+02
1.000000000000000000e+00,1.000000000000000000e+00,1.000000000000000000e+00,6.000000000000000000e+01,5.547000000000000000e+03,1.909649372100830078e-01,1.827009916305541992e+00,6.540464583243656982e-01,0.000000000000000000e+00,1.120000000000000000e+02
1.000000000000000000e+00,1.000000000000000000e+00,1.000000000000000000e+00,5.600000000000000000e+01,5.603000000000000000e+03,2.816960811614990234e-01,1.945653915405273438e+00,6.664182350687811729e-01,0.000000000000000000e+00,1.120000000000000000e+02
1.000000000000000000e+00,0.000000000000000000e+00,0.000000000000000000e+00,3.600000000000000000e+01,5.639000000000000000e+03,2.617840766906738281e-01,1.850008010864257812e+00,5.831850197167047778e-01,1.000000000000000000e+00,1.110000000000000000e+02
1.000000000000000000e+00,1.000000000000000000e+00,1.000000000000000000e+00,6.200000000000000000e+01,5.701000000000000000e+03,3.437960147857666016e-01,1.916155815124511719e+00,5.660332268495367192e-01,0.000000000000000000e+00,1.110000000000000000e+02
1.000000000000000000e+00,1.000000000000000000e+00,1.000000000000000000e+00,6.200000000000000000e+01,5.763000000000000000e+03,2.432310581207275391e-01,1.499789953231811523e+00,2.661994276280778005e-01,0.000000000000000000e+00,1.110000000000000000e+02
1.000000000000000000e+00,1.000000000000000000e+00,1.000000000000000000e+00,6.400000000000000000e+01,5.827000000000000000e+03,3.792350292205810547e-01,1.868579864501953125e+00,4.845567832990565482e-01,0.000000000000000000e+00,1.110000000000000000e+02
1.000000000000000000e+00,1.000000000000000000e+00,1.000000000000000000e+00,6.200000000000000000e+01,5.889000000000000000e+03,2.806589603424072266e-01,1.871697902679443359e+00,5.895418024808216639e-01,0.000000000000000000e+00,1.110000000000000000e+02
1.000000000000000000e+00,1.000000000000000000e+00,1.000000000000000000e+00,6.500000000000000000e+01,5.954000000000000000e+03,3.091180324554443359e-01,2.033293962478637695e+00,7.393713523823099987e-01,0.000000000000000000e+00,1.110000000000000000e+02
0.000000000000000000e+00,1.000000000000000000e+00,0.000000000000000000e+00,6.800000000000000000e+01,6.022000000000000000e+03,4.298710823059082031e-01,1.773842096328735352e+00,3.469995634643694982e-01,0.000000000000000000e+00,1.110000000000000000e+02
1.000000000000000000e+00,1.000000000000000000e+00,1.000000000000000000e+00,6.200000000000000000e+01,6.084000000000000000e+03,3.362159729003906250e-01,2.044970035552978516e+00,7.249756279279320204e-01,0.000000000000000000e+00,1.110000000000000000e+02
0.000000000000000000e+00,1.000000000000000000e+00,0.000000000000000000e+00,5.500000000000000000e+01,6.139000000000000000e+03,2.772419452667236328e-01,1.862657070159912109e+00,6.044346431298786015e-01,0.000000000000000000e+00,1.110000000000000000e+02
0.000000000000000000e+00,1.000000000000000000e+00,0.000000000000000000e+00,7.200000000000000000e+01,6.211000000000000000e+03,4.336299896240234375e-01,2.000132083892822266e+00,5.712956709173047098e-01,0.000000000000000000e+00,1.110000000000000000e+02
1.000000000000000000e+00,1.000000000000000000e+00,1.000000000000000000e+00,6.500000000000000000e+01,6.276000000000000000e+03,3.128130435943603516e-01,1.887608051300048828e+00,5.756375529621532428e-01,0.000000000000000000e+00,1.110000000000000000e+02
0.000000000000000000e+00,1.000000000000000000e+00,0.000000000000000000e+00,6.000000000000000000e+01,6.336000000000000000e+03,2.944509983062744141e-01,1.628377914428710938e+00,3.542784069801531710e-01,0.000000000000000000e+00,1.110000000000000000e+02
0.000000000000000000e+00,1.000000000000000000e+00,0.000000000000000000e+00,6.200000000000000000e+01,6.398000000000000000e+03,3.541591167449951172e-01,1.695789098739624023e+00,3.500908707694864730e-01,0.000000000000000000e+00,1.110000000000000000e+02
1.000000000000000000e+00,0.000000000000000000e+00,0.000000000000000000e+00,3.700000000000000000e+01,6.435000000000000000e+03,3.053100109100341797e-01,1.919156789779663086e+00,6.190093046194358184e-01,0.000000000000000000e+00,1.110000000000000000e+02
0.000000000000000000e+00,1.000000000000000000e+00,0.000000000000000000e+00,6.400000000000000000e+01,6.499000000000000000e+03,2.956800460815429688e-01,1.635751962661743164e+00,3.384016571683386987e-01,0.000000000000000000e+00,1.110000000000000000e+02
1.000000000000000000e+00,1.000000000000000000e+00,1.000000000000000000e+00,6.600000000000000000e+01,6.565000000000000000e+03,3.823831081390380859e-01,1.970362901687622070e+00,5.918440931907875679e-01,0.000000000000000000e+00,1.110000000000000000e+02
0.000000000000000000e+00,1.000000000000000000e+00,0.000000000000000000e+00,6.500000000000000000e+01,6.630000000000000000e+03,2.508010864257812500e-01,1.934885025024414062e+00,6.933111546963095506e-01,0.000000000000000000e+00,1.110000000000000000e+02
1.000000000000000000e+00,1.000000000000000000e+00,1.000000000000000000e+00,6.600000000000000000e+01,6.696000000000000000e+03,2.934999465942382812e-01,1.844905138015747070e+00,5.717356371063119225e-01,0.000000000000000000e+00,1.110000000000000000e+02
1.000000000000000000e+00,1.000000000000000000e+00,1.000000000000000000e+00,6.500000000000000000e+01,6.761000000000000000e+03,3.565750122070312500e-01,1.758623838424682617e+00,4.139164338423561018e-01,0.000000000000000000e+00,1.110000000000000000e+02
0.000000000000000000e+00,1.000000000000000000e+00,0.000000000000000000e+00,6.200000000000000000e+01,6.823000000000000000e+03,4.155218601226806641e-01,1.701460123062133789e+00,2.988528599269479336e-01,0.000000000000000000e+00,1.110000000000000000e+02
1.000000000000000000e+00,1.000000000000000000e+00,1.000000000000000000e+00,5.600000000000000000e+01,6.879000000000000000e+03,4.775719642639160156e-01,1.850024938583374023e+00,3.821566523703955331e-01,0.000000000000000000e+00,1.110000000000000000e+02
0.000000000000000000e+00,1.000000000000000000e+00,0.000000000000000000e+00,6.400000000000000000e+01,6.943000000000000000e+03,3.170678615570068359e-01,2.011787176132202148e+00,6.936484378707145071e-01,0.000000000000000000e+00,1.110000000000000000e+02
1.000000000000000000e+00,1.000000000000000000e+00,1.000000000000000000e+00,6.100000000000000000e+01,7.004000000000000000e+03,3.050558567047119141e-01,1.912967920303344727e+00,6.234136035522592767e-01,0.000000000000000000e+00,1.110000000000000000e+02
1.000000000000000000e+00,1.000000000000000000e+00,1.000000000000000000e+00,6.500000000000000000e+01,7.069000000000000000e+03,3.024520874023437500e-01,1.570234060287475586e+00,2.773803626189594862e-01,0.000000000000000000e+00,1.110000000000000000e+02
0.000000000000000000e+00,1.000000000000000000e+00,0.000000000000000000e+00,6.800000000000000000e+01,7.137000000000000000e+03,3.778200149536132812e-01,1.777261018753051758e+00,4.211688923549943286e-01,0.000000000000000000e+00,1.110000000000000000e+02
0.000000000000000000e+00,1.000000000000000000e+00,0.000000000000000000e+00,5.900000000000000000e+01,7.196000000000000000e+03,3.565599918365478516e-01,1.597160100936889648e+00,2.518896500472619926e-01,0.000000000000000000e+00,1.110000000000000000e+02
1.000000000000000000e+00,1.000000000000000000e+00,1.000000000000000000e+00,6.200000000000000000e+01,7.258000000000000000e+03,3.847579956054687500e-01,1.969072818756103516e+00,5.872901078690277998e-01,0.000000000000000000e+00,1.110000000000000000e+02
0.000000000000000000e+00,1.000000000000000000e+00,0.000000000000000000e+00,6.400000000000000000e+01,7.322000000000000000e+03,3.361628055572509766e-01,1.866438865661621094e+00,5.371498824996003840e-01,0.000000000000000000e+00,1.110000000000000000e+02
1.000000000000000000e+00,1.000000000000000000e+00,1.000000000000000000e+00,5.700000000000000000e+01,7.379000000000000000e+03,2.585721015930175781e-01,1.644425153732299805e+00,3.984386208818831432e-01,0.000000000000000000e+00,1.110000000000000000e+02
1.000000000000000000e+00,1.000000000000000000e+00,1.000000000000000000e+00,6.500000000000000000e+01,7.444000000000000000e+03,3.191721439361572266e-01,2.019201993942260742e+00,7.173516107639481554e-01,0.000000000000000000e+00,1.110000000000000000e+02
0.000000000000000000e+00,1.000000000000000000e+00,0.000000000000000000e+00,6.300000000000000000e+01,7.507000000000000000e+03,3.479321002960205078e-01,1.628434896469116211e+00,2.796061062460681867e-01,0.000000000000000000e+00,1.110000000000000000e+02
0.000000000000000000e+00,1.000000000000000000e+00,0.000000000000000000e+00,6.800000000000000000e+01,7.575000000000000000e+03,3.283390998840332031e-01,1.675939798355102539e+00,3.721332794983964742e-01,0.000000000000000000e+00,1.110000000000000000e+02
0.000000000000000000e+00,1.000000000000000000e+00,0.000000000000000000e+00,5.900000000000000000e+01,7.634000000000000000e+03,3.491339683532714844e-01,1.946678876876831055e+00,6.019771106793636584e-01,0.000000000000000000e+00,1.110000000000000000e+02
0.000000000000000000e+00,1.000000000000000000e+00,0.000000000000000000e+00,6.600000000000000000e+01,7.700000000000000000e+03,3.281490802764892578e-01,2.066639184951782227e+00,7.351798051387441468e-01,0.000000000000000000e+00,1.110000000000000000e+02
0.000000000000000000e+00,1.000000000000000000e+00,0.000000000000000000e+00,6.300000000000000000e+01,7.763000000000000000e+03,3.916430473327636719e-01,1.932252883911132812e+00,5.509731520626355294e-01,0.000000000000000000e+00,1.110000000000000000e+02
0.000000000000000000e+00,1.000000000000000000e+00,0.000000000000000000e+00,6.100000000000000000e+01,7.824000000000000000e+03,2.982139587402343750e-01,1.832164049148559570e+00,5.331842203840406746e-01,0.000000000000000000e+00,1.110000000000000000e+02
0.000000000000000000e+00,1.000000000000000000e+00,0.000000000000000000e+00,7.000000000000000000e+01,7.894000000000000000e+03,2.719938755035400391e-01,1.616195917129516602e+00,3.496230727099519098e-01,0.000000000000000000e+00,1.110000000000000000e+02
0.000000000000000000e+00,1.000000000000000000e+00,0.000000000000000000e+00,6.800000000000000000e+01,7.962000000000000000e+03,3.453578948974609375e-01,1.729089975357055664e+00,3.786919223869100737e-01,0.000000000000000000e+00,1.110000000000000000e+02
1.000000000000000000e+00,1.000000000000000000e+00,1.000000000000000000e+00,6.200000000000000000e+01,8.024000000000000000e+03,4.007899761199951172e-01,2.109110832214355469e+00,7.207510899864663090e-01,0.000000000000000000e+00,1.110000000000000000e+02
1.000000000000000000e+00,1.000000000000000000e+00,1.000000000000000000e+00,6.000000000000000000e+01,8.084000000000000000e+03,3.521749973297119141e-01,1.887619018554687500e+00,5.420035583133324675e-01,0.000000000000000000e+00,1.110000000000000000e+02
0.000000000000000000e+00,1.000000000000000000e+00,0.000000000000000000e+00,6.200000000000000000e+01,8.146000000000000000e+03,2.579081058502197266e-01,1.817188978195190430e+00,5.758640141042016269e-01,0.000000000000000000e+00,1.110000000000000000e+02
1.000000000000000000e+00,1.000000000000000000e+00,1.000000000000000000e+00,6.500000000000000000e+01,8.211000000000000000e+03,2.573101520538330078e-01,1.561515808105468750e+00,3.209741048037553779e-01,0.000000000000000000e+00,1.110000000000000000e+02
1.000000000000000000e+00,1.000000000000000000e+00,1.000000000000000000e+00,6.500000000000000000e+01,8.276000000000000000e+03,3.716800212860107422e-01,1.973670005798339844e+00,6.110248036217122980e-01,0.000000000000000000e+00,1.110000000000000000e+02
0.000000000000000000e+00,1.000000000000000000e+00,0.000000000000000000e+00,6.100000000000000000e+01,8.337000000000000000e+03,3.661379814147949219e-01,1.682711839675903320e+00,3.274245101815855818e-01,0.000000000000000000e+00,1.110000000000000000e+02
1.000000000000000000e+00,1.000000000000000000e+00,1.000000000000000000e+00,6.300000000000000000e+01,8.400000000000000000e+03,3.758490085601806641e-01,1.945832014083862305e+00,5.897042558712799476e-01,0.000000000000000000e+00,1.110000000000000000e+02
0.000000000000000000e+00,0.000000000000000000e+00,1.000000000000000000e+00,4.100000000000000000e+01,8.441000000000000000e+03,3.578808307647705078e-01,1.669622898101806641e+00,3.263105569931522565e-01,1.000000000000000000e+00,1.120000000000000000e+02
0.000000000000000000e+00,1.000000000000000000e+00,0.000000000000000000e+00,5.600000000000000000e+01,8.497000000000000000e+03,3.614401817321777344e-01,1.867224216461181641e+00,5.100769376052911586e-01,0.000000000000000000e+00,1.120000000000000000e+02
1.000000000000000000e+00,1.000000000000000000e+00,1.000000000000000000e+00,5.900000000000000000e+01,8.556000000000000000e+03,2.326679229736328125e-01,1.544395923614501953e+00,3.213189075461114763e-01,0.000000000000000000e+00,1.120000000000000000e+02
0.000000000000000000e+00,1.000000000000000000e+00,0.000000000000000000e+00,5.400000000000000000e+01,8.610000000000000000e+03,2.827980518341064453e-01,1.818528890609741211e+00,5.396339860360416241e-01,0.000000000000000000e+00,1.120000000000000000e+02
0.000000000000000000e+00,1.000000000000000000e+00,0.000000000000000000e+00,6.500000000000000000e+01,8.675000000000000000e+03,3.801500797271728516e-01,2.022531032562255859e+00,6.454430469413214855e-01,0.000000000000000000e+00,1.120000000000000000e+02
0.000000000000000000e+00,1.000000000000000000e+00,0.000000000000000000e+00,5.300000000000000000e+01,8.728000000000000000e+03,2.696170806884765625e-01,1.706622123718261719e+00,4.522917943902993176e-01,0.000000000000000000e+00,1.120000000000000000e+02
0.000000000000000000e+00,1.000000000000000000e+00,0.000000000000000000e+00,6.200000000000000000e+01,8.790000000000000000e+03,2.819058895111083984e-01,1.534178018569946289e+00,2.533901661800075367e-01,0.000000000000000000e+00,1.120000000000000000e+02
1.000000000000000000e+00,1.000000000000000000e+00,1.000000000000000000e+00,6.600000000000000000e+01,8.856000000000000000e+03,3.534190654754638672e-01,1.717834949493408203e+00,3.711267707009008321e-01,0.000000000000000000e+00,1.120000000000000000e+02
0.000000000000000000e+00,1.000000000000000000e+00,0.000000000000000000e+00,6.000000000000000000e+01,8.916000000000000000e+03,2.460589408874511719e-01,1.635346174240112305e+00,3.898247605401349292e-01,0.000000000000000000e+00,1.120000000000000000e+02
0.000000000000000000e+00,1.000000000000000000e+00,0.000000000000000000e+00,6.000000000000000000e+01,8.976000000000000000e+03,2.747960090637207031e-01,1.680515050888061523e+00,4.203183356729042752e-01,0.000000000000000000e+00,1.120000000000000000e+02
1.000000000000000000e+00,1.000000000000000000e+00,1.000000000000000000e+00,6.100000000000000000e+01,9.037000000000000000e+03,3.014869689941406250e-01,1.963121891021728516e+00,6.665642786837564504e-01,0.000000000000000000e+00,1.120000000000000000e+02
1.000000000000000000e+00,1.000000000000000000e+00,1.000000000000000000e+00,5.900000000000000000e+01,9.096000000000000000e+03,3.108949661254882812e-01,1.571887016296386719e+00,2.722355655594619894e-01,0.000000000000000000e+00,1.120000000000000000e+02
1.000000000000000000e+00,1.000000000000000000e+00,1.000000000000000000e+00,5.900000000000000000e+01,9.155000000000000000e+03,2.863299846649169922e-01,1.698123216629028320e+00,4.202455684434673322e-01,0.000000000000000000e+00,1.120000000000000000e+02
0.000000000000000000e+00,1.000000000000000000e+00,0.000000000000000000e+00,5.700000000000000000e+01,9.212000000000000000e+03,3.043382167816162109e-01,1.869125843048095703e+00,5.725350747498463289e-01,0.000000000000000000e+00,1.120000000000000000e+02
0.000000000000000000e+00,1.000000000000000000e+00,0.000000000000000000e+00,6.200000000000000000e+01,9.274000000000000000e+03,3.187799453735351562e-01,1.775532960891723633e+00,4.648996652163213117e-01,0.000000000000000000e+00,1.120000000000000000e+02
1.000000000000000000e+00,1.000000000000000000e+00,1.000000000000000000e+00,6.500000000000000000e+01,9.339000000000000000e+03,3.361918926239013672e-01,1.721925973892211914e+00,4.036296438500527883e-01,0.000000000000000000e+00,1.120000000000000000e+02
1.000000000000000000e+00,1.000000000000000000e+00,1.000000000000000000e+00,6.300000000000000000e+01,9.402000000000000000e+03,2.908909320831298828e-01,1.692538976669311523e+00,4.128372253684045035e-01,0.000000000000000000e+00,1.120000000000000000e+02
0.000000000000000000e+00,1.000000000000000000e+00,0.000000000000000000e+00,6.300000000000000000e+01,9.465000000000000000e+03,2.585520744323730469e-01,1.708608150482177734e+00,4.713925792241338009e-01,0.000000000000000000e+00,1.120000000000000000e+02
1.000000000000000000e+00,1.000000000000000000e+00,1.000000000000000000e+00,5.900000000000000000e+01,9.524000000000000000e+03,2.599701881408691406e-01,1.978081941604614258e+00,7.159478568179586944e-01,0.000000000000000000e+00,1.120000000000000000e+02
0.000000000000000000e+00,1.000000000000000000e+00,0.000000000000000000e+00,5.900000000000000000e+01,9.583000000000000000e+03,2.677769660949707031e-01,1.872045993804931641e+00,6.048093073491334071e-01,0.000000000000000000e+00,1.120000000000000000e+02
1.000000000000000000e+00,1.000000000000000000e+00,1.000000000000000000e+00,5.600000000000000000e+01,9.639000000000000000e+03,2.390851974487304688e-01,1.529820919036865234e+00,3.016799522402243139e-01,0.000000000000000000e+00,1.120000000000000000e+02
0.000000000000000000e+00,1.000000000000000000e+00,0.000000000000000000e+00,5.400000000000000000e+01,9.693000000000000000e+03,2.748489379882812500e-01,1.702538013458251953e+00,4.373890790569107678e-01,0.000000000000000000e+00,1.120000000000000000e+02
1.000000000000000000e+00,1.000000000000000000e+00,1.000000000000000000e+00,5.700000000000000000e+01,9.750000000000000000e+03,2.609651088714599609e-01,1.785485982894897461e+00,5.228115774714516828e-01,0.000000000000000000e+00,1.120000000000000000e+02
1.000000000000000000e+00,0.000000000000000000e+00,0.000000000000000000e+00,3.800000000000000000e+01,9.788000000000000000e+03,2.856359481811523438e-01,1.805560111999511719e+00,5.284352271556422842e-01,1.000000000000000000e+00,1.110000000000000000e+02
0.000000000000000000e+00,1.000000000000000000e+00,0.000000000000000000e+00,5.600000000000000000e+01,9.844000000000000000e+03,2.678179740905761719e-01,1.812658071517944336e+00,5.577349728407275942e-01,0.000000000000000000e+00,1.110000000000000000e+02
1.000000000000000000e+00,1.000000000000000000e+00,1.000000000000000000e+00,5.500000000000000000e+01,9.899000000000000000e+03,2.661309242248535156e-01,2.002445936203002930e+00,7.433829273633079104e-01,0.000000000000000000e+00,1.110000000000000000e+02
0.000000000000000000e+00,1.000000000000000000e+00,0.000000000000000000e+00,5.700000000000000000e+01,9.956000000000000000e+03,3.041701316833496094e-01,1.799719095230102539e+00,5.100397608284004125e-01,0.000000000000000000e+00,1.110000000000000000e+02
1.000000000000000000e+00,1.000000000000000000e+00,1.000000000000000000e+00,6.100000000000000000e+01,1.001700000000000000e+04,3.063149452209472656e-01,1.830161094665527344e+00,5.401747223600987802e-01,0.000000000000000000e+00,1.110000000000000000e+02
0.000000000000000000e+00,1.000000000000000000e+00,0.000000000000000000e+00,6.000000000000000000e+01,1.007700000000000000e+04,3.050110340118408203e-01,1.750988006591796875e+00,4.579824459203507558e-01,0.000000000000000000e+00,1.110000000000000000e+02
1.000000000000000000e+00,1.000000000000000000e+00,1.000000000000000000e+00,5.900000000000000000e+01,1.013600000000000000e+04,3.070480823516845703e-01,1.773079872131347656e+00,4.810460396118119708e-01,0.000000000000000000e+00,1.110000000000000000e+02
0.000000000000000000e+00,0.000000000000000000e+00,1.000000000000000000e+00,4.000000000000000000e+01,1.017600000000000000e+04,2.454149723052978516e-01,1.780424118041992188e+00,5.447789376922088644e-01,0.000000000000000000e+00,1.110000000000000000e+02
1.000000000000000000e+00,1.000000000000000000e+00,1.000000000000000000e+00,5.600000000000000000e+01,1.023200000000000000e+04,2.371940612792968750e-01,1.690243959426879883e+00,4.684865196812003640e-01,0.000000000000000000e+00,1.110000000000000000e+02
1.000000000000000000e+00,1.000000000000000000e+00,1.000000000000000000e+00,6.400000000000000000e+01,1.029600000000000000e+04,3.443088531494140625e-01,1.882233142852783203e+00,5.506486844783289314e-01,0.000000000000000000e+00,1.110000000000000000e+02
0.000000000000000000e+00,1.000000000000000000e+00,0.000000000000000000e+00,6.100000000000000000e+01,1.035700000000000000e+04,3.589479923248291016e-01,1.890217065811157227e+00,5.409011631276239296e-01,0.000000000000000000e+00,1.110000000000000000e+02
0.000000000000000000e+00,1.000000000000000000e+00,0.000000000000000000e+00,5.600000000000000000e+01,1.041300000000000000e+04,3.516569137573242188e-01,1.855314970016479492e+00,5.129713201582206672e-01,0.000000000000000000e+00,1.110000000000000000e+02
0.000000000000000000e+00,1.000000000000000000e+00,0.000000000000000000e+00,6.300000000000000000e+01,1.047600000000000000e+04,3.497660160064697266e-01,1.836287021636962891e+00,4.992656555043411548e-01,0.000000000000000000e+00,1.110000000000000000e+02
0.000000000000000000e+00,1.000000000000000000e+00,0.000000000000000000e+00,5.600000000000000000e+01,1.053200000000000000e+04,3.398230075836181641e-01,2.022720098495483398e+00,6.884973750722607200e-01,0.000000000000000000e+00,1.110000000000000000e+02
0.000000000000000000e+00,1.000000000000000000e+00,0.000000000000000000e+00,5.700000000000000000e+01,1.058900000000000000e+04,3.621909618377685547e-01,1.965837001800537109e+00,6.044811553906308532e-01,0.000000000000000000e+00,1.110000000000000000e+02
1.000000000000000000e+00,1.000000000000000000e+00,1.000000000000000000e+00,5.900000000000000000e+01,1.064800000000000000e+04,3.666439056396484375e-01,1.773133039474487305e+00,4.112280285792953571e-01,0.000000000000000000e+00,1.110000000000000000e+02
1.000000000000000000e+00,1.000000000000000000e+00,1.000000000000000000e+00,5.400000000000000000e+01,1.070200000000000000e+04,3.160099983215332031e-01,1.685971021652221680e+00,3.805493419046657166e-01,0.000000000000000000e+00,1.110000000000000000e+02
1.000000000000000000e+00,1.000000000000000000e+00,1.000000000000000000e+00,5.600000000000000000e+01,1.075800000000000000e+04,3.627738952636718750e-01,2.010295152664184570e+00,6.572276405075928585e-01,0.000000000000000000e+00,1.110000000000000000e+02
1.000000000000000000e+00,1.000000000000000000e+00,1.000000000000000000e+00,5.700000000000000000e+01,1.081500000000000000e+04,2.591979503631591797e-01,1.939744949340820312e+00,6.970161180075888918e-01,0.000000000000000000e+00,1.110000000000000000e+02
1.000000000000000000e+00,1.000000000000000000e+00,1.000000000000000000e+00,6.200000000000000000e+01,1.087700000000000000e+04,2.149119377136230469e-01,1.497740030288696289e+00,2.951896318789049567e-01,0.000000000000000000e+00,1.110000000000000000e+02
0.000000000000000000e+00,1.000000000000000000e+00,0.000000000000000000e+00,5.500000000000000000e+01,1.093200000000000000e+04,3.899099826812744141e-01,2.080332040786743164e+00,7.084522563763193670e-01,0.000000000000000000e+00,1.110000000000000000e+02
0.000000000000000000e+00,1.000000000000000000e+00,0.000000000000000000e+00,5.700000000000000000e+01,1.098900000000000000e+04,5.037071704864501953e-01,1.761785984039306641e+00,2.707814064359451711e-01,0.000000000000000000e+00,1.110000000000000000e+02
0.000000000000000000e+00,1.000000000000000000e+00,0.000000000000000000e+00,5.400000000000000000e+01,1.104300000000000000e+04,3.850839138031005859e-01,1.823994159698486328e+00,4.445944725359926020e-01,0.000000000000000000e+00,1.110000000000000000e+02
0.000000000000000000e+00,1.000000000000000000e+00,0.000000000000000000e+00,5.600000000000000000e+01,1.109900000000000000e+04,2.714369297027587891e-01,1.746345996856689453e+00,4.909169731759346345e-01,0.000000000000000000e+00,1.110000000000000000e+02
1.000000000000000000e+00,1.000000000000000000e+00,1.000000000000000000e+00,5.700000000000000000e+01,1.115600000000000000e+04,3.655319213867187500e-01,1.743736982345581055e+00,3.848063216298378553e-01,0.000000000000000000e+00,1.110000000000000000e+02
1.000000000000000000e+00,1.000000000000000000e+00,1.000000000000000000e+00,5.900000000000000000e+01,1.121500000000000000e+04,3.016049861907958984e-01,1.736219882965087891e+00,4.376673905387556962e-01,0.000000000000000000e+00,1.110000000000000000e+02
0.000000000000000000e+00,1.000000000000000000e+00,0.000000000000000000e+00,6.200000000000000000e+01,1.127700000000000000e+04,4.993481636047363281e-01,2.241173982620239258e+00,7.452482156335009655e-01,0.000000000000000000e+00,1.110000000000000000e+02
0.000000000000000000e+00,1.000000000000000000e+00,0.000000000000000000e+00,5.600000000000000000e+01,1.133300000000000000e+04,3.020620346069335938e-01,1.730415105819702148e+00,4.426557355428900054e-01,0.000000000000000000e+00,1.110000000000000000e+02
1.000000000000000000e+00,0.000000000000000000e+00,0.000000000000000000e+00,4.000000000000000000e+01,1.137300000000000000e+04,3.458008766174316406e-01,1.651772022247314453e+00,3.112544477070626758e-01,1.000000000000000000e+00,1.120000000000000000e+02
0.000000000000000000e+00,1.000000000000000000e+00,0.000000000000000000e+00,7.100000000000000000e+01,1.144400000000000000e+04,3.428668975830078125e-01,1.596909046173095703e+00,2.749103910144016782e-01,0.000000000000000000e+00,1.120000000000000000e+02
0.000000000000000000e+00,1.000000000000000000e+00,0.000000000000000000e+00,6.600000000000000000e+01,1.151000000000000000e+04,3.308529853820800781e-01,1.965854883193969727e+00,6.404054613301466414e-01,0.000000000000000000e+00,1.120000000000000000e+02
1.000000000000000000e+00,1.000000000000000000e+00,1.000000000000000000e+00,6.500000000000000000e+01,1.157500000000000000e+04,2.563118934631347656e-01,1.743024826049804688e+00,5.002908948482988061e-01,0.000000000000000000e+00,1.120000000000000000e+02
0.000000000000000000e+00,1.000000000000000000e+00,0.000000000000000000e+00,6.100000000000000000e+01,1.163600000000000000e+04,3.284049034118652344e-01,1.605479955673217773e+00,2.727124885176341884e-01,0.000000000000000000e+00,1.120000000000000000e+02
1.000000000000000000e+00,1.000000000000000000e+00,1.000000000000000000e+00,6.000000000000000000e+01,1.169600000000000000e+04,3.493781089782714844e-01,1.601609945297241211e+00,2.577225564789920598e-01,0.000000000000000000e+00,1.120000000000000000e+02
1.000000000000000000e+00,1.000000000000000000e+00,1.000000000000000000e+00,6.600000000000000000e+01,1.176200000000000000e+04,3.164839744567871094e-01,1.882025957107543945e+00,5.727525168422828994e-01,0.000000000000000000e+00,1.120000000000000000e+02
1.000000000000000000e+00,1.000000000000000000e+00,1.000000000000000000e+00,6.400000000000000000e+01,1.182600000000000000e+04,2.822031974792480469e-01,1.556826829910278320e+00,2.799042637838455305e-01,0.000000000000000000e+00,1.120000000000000000e+02
1.000000000000000000e+00,1.000000000000000000e+00,1.000000000000000000e+00,6.500000000000000000e+01,1.189100000000000000e+04,2.732658386230468750e-01,1.893362045288085938e+00,6.396344054749567576e-01,0.000000000000000000e+00,1.120000000000000000e+02
1.000000000000000000e+00,1.000000000000000000e+00,1.000000000000000000e+00,6.500000000000000000e+01,1.195600000000000000e+04,3.563449382781982422e-01,1.607196092605590820e+00,2.639085112141393852e-01,0.000000000000000000e+00,1.120000000000000000e+02
0.000000000000000000e+00,1.000000000000000000e+00,0.000000000000000000e+00,6.400000000000000000e+01,1.202000000000000000e+04,3.593778610229492188e-01,1.660179853439331055e+00,3.240476646738361111e-01,0.000000000000000000e+00,1.120000000000000000e+02
0.000000000000000000e+00,1.000000000000000000e+00,0.000000000000000000e+00,6.000000000000000000e+01,1.208000000000000000e+04,3.557848930358886719e-01,1.630452871322631836e+00,2.879030390155813968e-01,0.000000000000000000e+00,1.120000000000000000e+02
1.000000000000000000e+00,1.000000000000000000e+00,1.000000000000000000e+00,6.600000000000000000e+01,1.214600000000000000e+04,2.815761566162109375e-01,1.832099914550781250e+00,5.530928165532633667e-01,0.000000000000000000e+00,1.120000000000000000e+02
0.000000000000000000e+00,1.000000000000000000e+00,0.000000000000000000e+00,6.000000000000000000e+01,1.220600000000000000e+04,2.932739257812500000e-01,1.944401979446411133e+00,6.474500111453209694e-01,0.000000000000000000e+00,1.120000000000000000e+02
0.000000000000000000e+00,1.000000000000000000e+00,0.000000000000000000e+00,6.600000000000000000e+01,1.227200000000000000e+04,3.679990768432617188e-01,1.860198974609375000e+00,5.078276342372135543e-01,0.000000000000000000e+00,1.120000000000000000e+02
0.000000000000000000e+00,1.000000000000000000e+00,0.000000000000000000e+00,6.600000000000000000e+01,1.233800000000000000e+04,3.184881210327148438e-01,1.853844165802001953e+00,5.449952324003750626e-01,0.000000000000000000e+00,1.120000000000000000e+02
1.000000000000000000e+00,1.000000000000000000e+00,1.000000000000000000e+00,6.000000000000000000e+01,1.239800000000000000e+04,2.974839210510253906e-01,1.837319850921630859e+00,5.490162896807515569e-01,0.000000000000000000e+00,1.120000000000000000e+02
0.000000000000000000e+00,1.000000000000000000e+00,0.000000000000000000e+00,6.600000000000000000e+01,1.246400000000000000e+04,2.914819717407226562e-01,1.566452980041503906e+00,2.824339796567691407e-01,0.000000000000000000e+00,1.120000000000000000e+02
0.000000000000000000e+00,1.000000000000000000e+00,0.000000000000000000e+00,6.700000000000000000e+01,1.253100000000000000e+04,3.009841442108154297e-01,1.710499048233032227e+00,4.095283664103155363e-01,0.000000000000000000e+00,1.120000000000000000e+02
1.000000000000000000e+00,1.000000000000000000e+00,1.000000000000000000e+00,6.500000000000000000e+01,1.259600000000000000e+04,2.979960441589355469e-01,1.547791957855224609e+00,2.574760095653442771e-01,0.000000000000000000e+00,1.120000000000000000e+02
1.000000000000000000e+00,1.000000000000000000e+00,1.000000000000000000e+00,6.400000000000000000e+01,1.266000000000000000e+04,3.279869556427001953e-01,1.781351089477539062e+00,4.719619711735637546e-01,0.000000000000000000e+00,1.120000000000000000e+02
0.000000000000000000e+00,1.000000000000000000e+00,0.000000000000000000e+00,6.100000000000000000e+01,1.272100000000000000e+04,2.429058551788330078e-01,1.868852138519287109e+00,6.407195194795514137e-01,0.000000000000000000e+00,1.120000000000000000e+02
0.000000000000000000e+00,1.000000000000000000e+00,0.000000000000000000e+00,6.300000000000000000e+01,1.278400000000000000e+04,2.932989597320556641e-01,2.022980928421020508e+00,7.469757623175596883e-01,0.000000000000000000e+00,1.120000000000000000e+02
0.000000000000000000e+00,0.000000000000000000e+00,1.000000000000000000e+00,3.400000000000000000e+01,1.281800000000000000e+04,3.255867958068847656e-01,1.916440010070800781e+00,6.135786167148324921e-01,1.000000000000000000e+00,1.110000000000000000e+02
0.000000000000000000e+00,1.000000000000000000e+00,0.000000000000000000e+00,6.400000000000000000e+01,1.288200000000000000e+04,2.699580192565917969e-01,1.947689056396484375e+00,6.945697337569231022e-01,0.000000000000000000e+00,1.110000000000000000e+02
1.000000000000000000e+00,1.000000000000000000e+00,1.000000000000000000e+00,6.200000000000000000e+01,1.294400000000000000e+04,2.800209522247314453e-01,1.825555086135864258e+00,5.536056254893362283e-01,0.000000000000000000e+00,1.110000000000000000e+02
0.000000000000000000e+00,1.000000000000000000e+00,0.000000000000000000e+00,6.800000000000000000e+01,1.301200000000000000e+04,3.138749599456787109e-01,1.783063888549804688e+00,4.701091198852078157e-01,0.000000000000000000e+00,1.110000000000000000e+02
1.000000000000000000e+00,1.000000000000000000e+00,1.000000000000000000e+00,6.700000000000000000e+01,1.307900000000000000e+04,3.645231723785400391e-01,1.886795997619628906e+00,5.235683604930325696e-01,0.000000000000000000e+00,1.110000000000000000e+02
1.000000000000000000e+00,1.000000000000000000e+00,1.000000000000000000e+00,6.800000000000000000e+01,1.314700000000000000e+04,3.042471408843994141e-01,1.633577823638916016e+00,3.406813492353886197e-01,0.000000000000000000e+00,1.110000000000000000e+02
0.000000000000000000e+00,1.000000000000000000e+00,0.000000000000000000e+00,6.800000000000000000e+01,1.321500000000000000e+04,3.389930725097656250e-01,1.641496181488037109e+00,3.155963609303898965e-01,0.000000000000000000e+00,1.110000000000000000e+02
1.000000000000000000e+00,0.000000000000000000e+00,0.000000000000000000e+00,3.000000000000000000e+01,1.324500000000000000e+04,2.878990173339843750e-01,1.686735868453979492e+00,4.022676046240922787e-01,0.000000000000000000e+00,1.110000000000000000e+02
1.000000000000000000e+00,1.000000000000000000e+00,1.000000000000000000e+00,6.500000000000000000e+01,1.331000000000000000e+04,3.337059020996093750e-01,1.842074155807495117e+00,5.109462210570143714e-01,0.000000000000000000e+00,1.110000000000000000e+02
1.000000000000000000e+00,1.000000000000000000e+00,1.000000000000000000e+00,7.000000000000000000e+01,1.338000000000000000e+04,2.954699993133544922e-01,1.697423934936523438e+00,4.084930966270756691e-01,0.000000000000000000e+00,1.110000000000000000e+02
1.000000000000000000e+00,1.000000000000000000e+00,1.000000000000000000e+00,5.900000000000000000e+01,1.343900000000000000e+04,3.235268592834472656e-01,1.802803993225097656e+00,4.945937794958173428e-01,0.000000000000000000e+00,1.110000000000000000e+02
0.000000000000000000e+00,1.000000000000000000e+00,0.000000000000000000e+00,6.800000000000000000e+01,1.350700000000000000e+04,3.056359291076660156e-01,1.866799116134643555e+00,5.779824156304153027e-01,0.000000000000000000e+00,1.110000000000000000e+02
0.000000000000000000e+00,1.000000000000000000e+00,0.000000000000000000e+00,7.200000000000000000e+01,1.357900000000000000e+04,3.530089855194091797e-01,1.630977869033813477e+00,2.926277831581107214e-01,0.000000000000000000e+00,1.110000000000000000e+02
0.000000000000000000e+00,1.000000000000000000e+00,0.000000000000000000e+00,5.700000000000000000e+01,1.363600000000000000e+04,3.577010631561279297e-01,1.847347021102905273e+00,5.064198649456926882e-01,0.000000000000000000e+00,1.110000000000000000e+02
1.000000000000000000e+00,1.000000000000000000e+00,1.000000000000000000e+00,6.600000000000000000e+01,1.370200000000000000e+04,2.658388614654541016e-01,1.975655794143676758e+00,7.152241484324151077e-01,0.000000000000000000e+00,1.110000000000000000e+02
1.000000000000000000e+00,1.000000000000000000e+00,1.000000000000000000e+00,6.900000000000000000e+01,1.377100000000000000e+04,3.224689960479736328e-01,1.931346893310546875e+00,6.133964849751565307e-01,0.000000000000000000e+00,1.110000000000000000e+02
1.000000000000000000e+00,1.000000000000000000e+00,1.000000000000000000e+00,6.600000000000000000e+01,1.383700000000000000e+04,3.208880424499511719e-01,1.614485979080200195e+00,3.115451010931652442e-01,0.000000000000000000e+00,1.110000000000000000e+02
1.000000000000000000e+00,1.000000000000000000e+00,1.000000000000000000e+00,6.000000000000000000e+01,1.389700000000000000e+04,3.082849979400634766e-01,1.549126148223876953e+00,2.607554556857373251e-01,0.000000000000000000e+00,1.110000000000000000e+02
0.000000000000000000e+00,1.000000000000000000e+00,0.000000000000000000e+00,6.600000000000000000e+01,1.396300000000000000e+04,3.403410911560058594e-01,1.759602069854736328e+00,4.368998498681893050e-01,0.000000000000000000e+00,1.110000000000000000e+02
1.000000000000000000e+00,1.000000000000000000e+00,1.000000000000000000e+00,7.000000000000000000e+01,1.403300000000000000e+04,2.747819423675537109e-01,1.594666957855224609e+00,3.316733749408019016e-01,0.000000000000000000e+00,1.110000000000000000e+02
1.000000000000000000e+00,1.000000000000000000e+00,1.000000000000000000e+00,6.400000000000000000e+01,1.409700000000000000e+04,2.834408283233642578e-01,1.580120086669921875e+00,3.118432637729033341e-01,0.000000000000000000e+00,1.110000000000000000e+02
0.000000000000000000e+00,1.000000000000000000e+00,0.000000000000000000e+00,6.200000000000000000e+01,1.415900000000000000e+04,3.441910743713378906e-01,1.614887952804565430e+00,2.934551955920182698e-01,0.000000000000000000e+00,1.110000000000000000e+02
0.000000000000000000e+00,1.000000000000000000e+00,0.000000000000000000e+00,7.100000000000000000e+01,1.423000000000000000e+04,3.855669498443603516e-01,2.060255050659179688e+00,6.866186631502402271e-01,0.000000000000000000e+00,1.110000000000000000e+02
1.000000000000000000e+00,1.000000000000000000e+00,1.000000000000000000e+00,6.000000000000000000e+01,1.429000000000000000e+04,3.709740638732910156e-01,1.912760972976684570e+00,5.495721858192208487e-01,0.000000000000000000e+00,1.110000000000000000e+02
0.000000000000000000e+00,1.000000000000000000e+00,0.000000000000000000e+00,6.900000000000000000e+01,1.435900000000000000e+04,4.944078922271728516e-01,2.023485183715820312e+00,5.231612849874931470e-01,0.000000000000000000e+00,1.110000000000000000e+02
0.000000000000000000e+00,1.000000000000000000e+00,0.000000000000000000e+00,6.200000000000000000e+01,1.442100000000000000e+04,3.397579193115234375e-01,1.676828861236572266e+00,3.501787935598818513e-01,0.000000000000000000e+00,1.110000000000000000e+02
0.000000000000000000e+00,1.000000000000000000e+00,0.000000000000000000e+00,6.600000000000000000e+01,1.448700000000000000e+04,3.846230506896972656e-01,2.007898092269897461e+00,6.244822082781346095e-01,0.000000000000000000e+00,1.110000000000000000e+02
0.000000000000000000e+00,1.000000000000000000e+00,0.000000000000000000e+00,6.400000000000000000e+01,1.455100000000000000e+04,3.255059719085693359e-01,1.900294065475463867e+00,5.915245098731767293e-01,0.000000000000000000e+00,1.110000000000000000e+02
0.000000000000000000e+00,1.000000000000000000e+00,0.000000000000000000e+00,6.900000000000000000e+01,1.462000000000000000e+04,2.856378555297851562e-01,1.826060056686401367e+00,5.509758278430398892e-01,0.000000000000000000e+00,1.110000000000000000e+02
1.000000000000000000e+00,1.000000000000000000e+00,1.000000000000000000e+00,6.200000000000000000e+01,1.468200000000000000e+04,4.693500995635986328e-01,2.100803852081298828e+00,6.350836198877760630e-01,0.000000000000000000e+00,1.110000000000000000e+02
0.000000000000000000e+00,0.000000000000000000e+00,1.000000000000000000e+00,4.200000000000000000e+01,1.472400000000000000e+04,3.503959178924560547e-01,2.069737195968627930e+00,7.214063573881732694e-01,1.000000000000000000e+00,1.120000000000000000e+02
1.000000000000000000e+00,0.000000000000000000e+00,0.000000000000000000e+00,4.600000000000000000e+01,1.477000000000000000e+04,4.048027992248535156e-01,2.046715021133422852e+00,6.516094625537295348e-01,0.000000000000000000e+00,1.120000000000000000e+02
0.000000000000000000e+00,1.000000000000000000e+00,0.000000000000000000e+00,6.800000000000000000e+01,1.483800000000000000e+04,3.298749923706054688e-01,2.080769062042236328e+00,7.489490205060134187e-01,0.000000000000000000e+00,1.120000000000000000e+02
1.000000000000000000e+00,1.000000000000000000e+00,1.000000000000000000e+00,6.900000000000000000e+01,1.490700000000000000e+04,3.206272125244140625e-01,1.811805963516235352e+00,4.944499532273493037e-01,0.000000000000000000e+00,1.120000000000000000e+02
1.000000000000000000e+00,1.000000000000000000e+00,1.000000000000000000e+00,5.900000000000000000e+01,1.496600000000000000e+04,3.206861019134521484e-01,2.050983905792236328e+00,7.451559219111885124e-01,0.000000000000000000e+00,1.120000000000000000e+02
1.000000000000000000e+00,1.000000000000000000e+00,1.000000000000000000e+00,6.500000000000000000e+01,1.503100000000000000e+04,2.577939033508300781e-01,1.561389207839965820e+00,3.237268671750119231e-01,0.000000000000000000e+00,1.120000000000000000e+02
0.000000000000000000e+00,1.000000000000000000e+00,0.000000000000000000e+00,6.600000000000000000e+01,1.509700000000000000e+04,3.531498908996582031e-01,1.607450962066650391e+00,2.645827447968325807e-01,0.000000000000000000e+00,1.120000000000000000e+02
1.000000000000000000e+00,1.000000000000000000e+00,1.000000000000000000e+00,6.200000000000000000e+01,1.515900000000000000e+04,5.591058731079101562e-01,2.276587963104248047e+00,7.407112033274467766e-01,0.000000000000000000e+00,1.120000000000000000e+02
0.000000000000000000e+00,1.000000000000000000e+00,0.000000000000000000e+00,5.700000000000000000e+01,1.521600000000000000e+04,5.729820728302001953e-01,2.285650014877319336e+00,7.264111968647191109e-01,0.000000000000000000e+00,1.120000000000000000e+02
1.000000000000000000e+00,1.000000000000000000e+00,1.000000000000000000e+00,6.600000000000000000e+01,1.528200000000000000e+04,3.247208595275878906e-01,1.602375030517578125e+00,2.959404528214866770e-01,0.000000000000000000e+00,1.120000000000000000e+02
1.000000000000000000e+00,1.000000000000000000e+00,1.000000000000000000e+00,6.600000000000000000e+01,1.534800000000000000e+04,3.147530555725097656e-01,1.569570064544677734e+00,2.655978870703857853e-01,0.000000000000000000e+00,1.120000000000000000e+02
1.000000000000000000e+00,1.000000000000000000e+00,1.000000000000000000e+00,6.200000000000000000e+01,1.541000000000000000e+04,2.985029220581054688e-01,1.855865001678466797e+00,5.544745169781273297e-01,0.000000000000000000e+00,1.120000000000000000e+02
0.000000000000000000e+00,1.000000000000000000e+00,0.000000000000000000e+00,6.900000000000000000e+01,1.547900000000000000e+04,3.485500812530517578e-01,1.838081121444702148e+00,4.926672708998520722e-01,0.000000000000000000e+00,1.120000000000000000e+02
1.000000000000000000e+00,1.000000000000000000e+00,1.000000000000000000e+00,6.300000000000000000e+01,1.554200000000000000e+04,2.493908405303955078e-01,1.790972948074340820e+00,5.502499102806683862e-01,0.000000000000000000e+00,1.120000000000000000e+02
1.000000000000000000e+00,1.000000000000000000e+00,1.000000000000000000e+00,6.200000000000000000e+01,1.560400000000000000e+04,3.373811244964599609e-01,1.723627090454101562e+00,3.907660886839429693e-01,0.000000000000000000e+00,1.120000000000000000e+02
0.000000000000000000e+00,1.000000000000000000e+00,0.000000000000000000e+00,6.400000000000000000e+01,1.566800000000000000e+04,3.387501239776611328e-01,1.795443058013916016e+00,4.694780464931199160e-01,0.000000000000000000e+00,1.120000000000000000e+02
0.000000000000000000e+00,1.000000000000000000e+00,0.000000000000000000e+00,6.100000000000000000e+01,1.572900000000000000e+04,4.088168144226074219e-01,2.017422914505004883e+00,6.201487310250639595e-01,0.000000000000000000e+00,1.120000000000000000e+02
0.000000000000000000e+00,1.000000000000000000e+00,0.000000000000000000e+00,6.600000000000000000e+01,1.579500000000000000e+04,3.612010478973388672e-01,2.089544057846069336e+00,7.262397559442342887e-01,0.000000000000000000e+00,1.120000000000000000e+02
1.000000000000000000e+00,1.000000000000000000e+00,1.000000000000000000e+00,6.200000000000000000e+01,1.585700000000000000e+04,2.509009838104248047e-01,1.602005004882812500e+00,3.620128106636620324e-01,0.000000000000000000e+00,1.120000000000000000e+02
0.000000000000000000e+00,1.000000000000000000e+00,0.000000000000000000e+00,6.400000000000000000e+01,1.592100000000000000e+04,3.500480651855468750e-01,1.714827060699462891e+00,3.768388764580674066e-01,0.000000000000000000e+00,1.120000000000000000e+02
0.000000000000000000e+00,1.000000000000000000e+00,0.000000000000000000e+00,6.800000000000000000e+01,1.598900000000000000e+04,3.565421104431152344e-01,1.643923044204711914e+00,3.042236124139339748e-01,0.000000000000000000e+00,1.120000000000000000e+02
0.000000000000000000e+00,1.000000000000000000e+00,0.000000000000000000e+00,6.400000000000000000e+01,1.605300000000000000e+04,3.714611530303955078e-01,2.009093046188354492e+00,6.463052705582181812e-01,0.000000000000000000e+00,1.120000000000000000e+02
0.000000000000000000e+00,1.000000000000000000e+00,0.000000000000000000e+00,5.700000000000000000e+01,1.611000000000000000e+04,2.985088825225830078e-01,1.578952074050903320e+00,2.923593799923044911e-01,0.000000000000000000e+00,1.120000000000000000e+02
1.000000000000000000e+00,1.000000000000000000e+00,1.000000000000000000e+00,7.100000000000000000e+01,1.618100000000000000e+04,3.373529911041259766e-01,1.630875110626220703e+00,3.065652420644157106e-01,0.000000000000000000e+00,1.120000000000000000e+02
1.000000000000000000e+00,1.000000000000000000e+00,1.000000000000000000e+00,6.400000000000000000e+01,1.624500000000000000e+04,2.979800701141357422e-01,1.659035921096801758e+00,3.655707537136634877e-01,0.000000000000000000e+00,1.120000000000000000e+02
0.000000000000000000e+00,1.000000000000000000e+00,0.000000000000000000e+00,6.200000000000000000e+01,1.630700000000000000e+04,3.633430004119873047e-01,1.734322071075439453e+00,3.665985925202157047e-01,0.000000000000000000e+00,1.120000000000000000e+02
0.000000000000000000e+00,1.000000000000000000e+00,0.000000000000000000e+00,6.300000000000000000e+01,1.637000000000000000e+04,3.500819206237792969e-01,2.089668035507202148e+00,7.392596669386592989e-01,0.000000000000000000e+00,1.120000000000000000e+02
1.000000000000000000e+00,1.000000000000000000e+00,1.000000000000000000e+00,6.700000000000000000e+01,1.643700000000000000e+04,2.448000907897949219e-01,1.909629106521606445e+00,6.823214486455660976e-01,0.000000000000000000e+00,1.120000000000000000e+02
1.000000000000000000e+00,1.000000000000000000e+00,1.000000000000000000e+00,6.400000000000000000e+01,1.650100000000000000e+04,3.422019481658935547e-01,1.856817960739135742e+00,5.226521425041620317e-01,0.000000000000000000e+00,1.120000000000000000e+02
1.000000000000000000e+00,1.000000000000000000e+00,1.000000000000000000e+00,5.500000000000000000e+01,1.655600000000000000e+04,2.882959842681884766e-01,1.963674068450927734e+00,6.861694258396161539e-01,0.000000000000000000e+00,1.120000000000000000e+02
0.000000000000000000e+00,1.000000000000000000e+00,0.000000000000000000e+00,6.100000000000000000e+01,1.661700000000000000e+04,2.847490310668945312e-01,1.927079916000366211e+00,6.466554335921915753e-01,0.000000000000000000e+00,1.120000000000000000e+02
1.000000000000000000e+00,1.000000000000000000e+00,1.000000000000000000e+00,6.600000000000000000e+01,1.668300000000000000e+04,2.932119369506835938e-01,1.698511123657226562e+00,4.287608178481954746e-01,0.000000000000000000e+00,1.120000000000000000e+02
0.000000000000000000e+00,1.000000000000000000e+00,0.000000000000000000e+00,6.100000000000000000e+01,1.674400000000000000e+04,2.691709995269775391e-01,1.634567022323608398e+00,3.800963298268849599e-01,0.000000000000000000e+00,1.120000000000000000e+02
1.000000000000000000e+00,1.000000000000000000e+00,1.000000000000000000e+00,6.200000000000000000e+01,1.680600000000000000e+04,2.758381366729736328e-01,1.573757886886596680e+00,3.206292471032399782e-01,0.000000000000000000e+00,1.120000000000000000e+02
0.000000000000000000e+00,1.000000000000000000e+00,0.000000000000000000e+00,5.900000000000000000e+01,1.686500000000000000e+04,2.625620365142822266e-01,1.829478025436401367e+00,5.665397779352441265e-01,0.000000000000000000e+00,1.120000000000000000e+02
0.000000000000000000e+00,1.000000000000000000e+00,0.000000000000000000e+00,6.700000000000000000e+01,1.693200000000000000e+04,3.513250350952148438e-01,2.051919221878051758e+00,7.016533786208254408e-01,0.000000000000000000e+00,1.120000000000000000e+02
0.000000000000000000e+00,1.000000000000000000e+00,0.000000000000000000e+00,6.200000000000000000e+01,1.699400000000000000e+04,3.453919887542724609e-01,1.889948844909667969e+00,5.418587863642936320e-01,0.000000000000000000e+00,1.120000000000000000e+02
1.000000000000000000e+00,1.000000000000000000e+00,1.000000000000000000e+00,6.100000000000000000e+01,1.705500000000000000e+04,2.741138935089111328e-01,1.573372840881347656e+00,3.154471522797371863e-01,0.000000000000000000e+00,1.120000000000000000e+02
0.000000000000000000e+00,1.000000000000000000e+00,0.000000000000000000e+00,6.600000000000000000e+01,1.712100000000000000e+04,2.648289203643798828e-01,1.552684068679809570e+00,2.848830438810626142e-01,0.000000000000000000e+00,1.120000000000000000e+02
0.000000000000000000e+00,0.000000000000000000e+00,1.000000000000000000e+00,2.800000000000000000e+01,1.714900000000000000e+04,4.758989810943603516e-01,1.722818136215209961e+00,2.577967205899195369e-01,1.000000000000000000e+00,1.110000000000000000e+02
1.000000000000000000e+00,1.000000000000000000e+00,1.000000000000000000e+00,6.600000000000000000e+01,1.721500000000000000e+04,4.282770156860351562e-01,2.016615867614746094e+00,5.907303318694892003e-01,0.000000000000000000e+00,1.110000000000000000e+02
1.000000000000000000e+00,1.000000000000000000e+00,1.000000000000000000e+00,6.000000000000000000e+01,1.727500000000000000e+04,3.357129096984863281e-01,1.683101177215576172e+00,3.574632449974759485e-01,0.000000000000000000e+00,1.110000000000000000e+02
1.000000000000000000e+00,1.000000000000000000e+00,1.000000000000000000e+00,6.400000000000000000e+01,1.733900000000000000e+04,3.754589557647705078e-01,1.844197034835815430e+00,4.848636853412802150e-01,0.000000000000000000e+00,1.110000000000000000e+02
0.000000000000000000e+00,1.000000000000000000e+00,0.000000000000000000e+00,6.900000000000000000e+01,1.740800000000000000e+04,3.385059833526611328e-01,1.743383884429931641e+00,4.117091025946676419e-01,0.000000000000000000e+00,1.110000000000000000e+02
0.000000000000000000e+00,1.000000000000000000e+00,0.000000000000000000e+00,6.600000000000000000e+01,1.747400000000000000e+04,3.392779827117919922e-01,1.622200012207031250e+00,3.007027713241647859e-01,0.000000000000000000e+00,1.110000000000000000e+02
1.000000000000000000e+00,1.000000000000000000e+00,1.000000000000000000e+00,6.900000000000000000e+01,1.754300000000000000e+04,4.009461402893066406e-01,1.814204216003417969e+00,4.148789758136188222e-01,0.000000000000000000e+00,1.110000000000000000e+02
0.000000000000000000e+00,1.000000000000000000e+00,0.000000000000000000e+00,5.700000000000000000e+01,1.760000000000000000e+04,3.180749416351318359e-01,1.963841915130615234e+00,6.618419522399614507e-01,0.000000000000000000e+00,1.110000000000000000e+02
1.000000000000000000e+00,1.000000000000000000e+00,1.000000000000000000e+00,6.300000000000000000e+01,1.766300000000000000e+04,2.673928737640380859e-01,1.927180051803588867e+00,6.723496999727214263e-01,0.000000000000000000e+00,1.110000000000000000e+02
1.000000000000000000e+00,1.000000000000000000e+00,1.000000000000000000e+00,6.500000000000000000e+01,1.772800000000000000e+04,2.661659717559814453e-01,1.647701025009155273e+00,3.870080084788218300e-01,0.000000000000000000e+00,1.110000000000000000e+02
0.000000000000000000e+00,1.000000000000000000e+00,0.000000000000000000e+00,7.100000000000000000e+01,1.779900000000000000e+04,3.132030963897705078e-01,1.748250007629394531e+00,4.352605818306219954e-01,0.000000000000000000e+00,1.110000000000000000e+02
1.000000000000000000e+00,1.000000000000000000e+00,1.000000000000000000e+00,6.800000000000000000e+01,1.786700000000000000e+04,2.642810344696044922e-01,1.964114189147949219e+00,6.990951062765642376e-01,0.000000000000000000e+00,1.110000000000000000e+02
1.000000000000000000e+00,1.000000000000000000e+00,1.000000000000000000e+00,6.300000000000000000e+01,1.793000000000000000e+04,3.356549739837646484e-01,1.902046918869018555e+00,5.680286510971740421e-01,0.000000000000000000e+00,1.110000000000000000e+02
0.000000000000000000e+00,1.000000000000000000e+00,0.000000000000000000e+00,6.200000000000000000e+01,1.799200000000000000e+04,3.606650829315185547e-01,1.909183979034423828e+00,5.605757021642595594e-01,0.000000000000000000e+00,1.110000000000000000e+02
0.000000000000000000e+00,1.000000000000000000e+00,0.000000000000000000e+00,6.800000000000000000e+01,1.806000000000000000e+04,2.837240695953369141e-01,1.748310089111328125e+00,4.756776485720733971e-01,0.000000000000000000e+00,1.110000000000000000e+02
1.000000000000000000e+00,1.000000000000000000e+00,1.000000000000000000e+00,6.500000000000000000e+01,1.812500000000000000e+04,3.418400287628173828e-01,1.900599956512451172e+00,5.761820523203149413e-01,0.000000000000000000e+00,1.110000000000000000e+02
0.000000000000000000e+00,1.000000000000000000e+00,0.000000000000000000e+00,6.500000000000000000e+01,1.819000000000000000e+04,2.868711948394775391e-01,1.681589126586914062e+00,4.080005338483695398e-01,0.000000000000000000e+00,1.110000000000000000e+02
1.000000000000000000e+00,1.000000000000000000e+00,1.000000000000000000e+00,5.900000000000000000e+01,1.824900000000000000e+04,2.775919437408447266e-01,1.721647977828979492e+00,4.463032947936808048e-01,0.000000000000000000e+00,1.110000000000000000e+02
0.000000000000000000e+00,1.000000000000000000e+00,0.000000000000000000e+00,6.800000000000000000e+01,1.831700000000000000e+04,3.049621582031250000e-01,1.760245084762573242e+00,4.732351540029834935e-01,0.000000000000000000e+00,1.110000000000000000e+02
1.000000000000000000e+00,1.000000000000000000e+00,1.000000000000000000e+00,6.400000000000000000e+01,1.838100000000000000e+04,2.853920459747314453e-01,1.715792894363403320e+00,4.390750786619723178e-01,0.000000000000000000e+00,1.110000000000000000e+02
0.000000000000000000e+00,1.000000000000000000e+00,0.000000000000000000e+00,6.000000000000000000e+01,1.844100000000000000e+04,2.778019905090332031e-01,1.704111099243164062e+00,4.432071450378303190e-01,0.000000000000000000e+00,1.110000000000000000e+02
1.000000000000000000e+00,1.000000000000000000e+00,1.000000000000000000e+00,6.400000000000000000e+01,1.850500000000000000e+04,2.558670043945312500e-01,1.667559862136840820e+00,4.275057824712771293e-01,0.000000000000000000e+00,1.110000000000000000e+02
0.000000000000000000e+00,1.000000000000000000e+00,0.000000000000000000e+00,6.200000000000000000e+01,1.856700000000000000e+04,2.742898464202880859e-01,1.694149971008300781e+00,4.383542942476920667e-01,0.000000000000000000e+00,1.110000000000000000e+02
1.000000000000000000e+00,1.000000000000000000e+00,1.000000000000000000e+00,6.500000000000000000e+01,1.863200000000000000e+04,2.673089504241943359e-01,1.963517904281616211e+00,7.015823701804508872e-01,0.000000000000000000e+00,1.110000000000000000e+02
0.000000000000000000e+00,0.000000000000000000e+00,1.000000000000000000e+00,2.700000000000000000e+01,1.865900000000000000e+04,2.727088928222656250e-01,1.819278001785278320e+00,5.543979641294962679e-01,0.000000000000000000e+00,1.110000000000000000e+02
1.000000000000000000e+00,0.000000000000000000e+00,0.000000000000000000e+00,3.400000000000000000e+01,1.869300000000000000e+04,2.881059646606445312e-01,1.959479093551635742e+00,6.804398229754269334e-01,1.000000000000000000e+00,1.120000000000000000e+02
0.000000000000000000e+00,1.000000000000000000e+00,0.000000000000000000e+00,6.400000000000000000e+01,1.875700000000000000e+04,3.131749629974365234e-01,1.970062017440795898e+00,6.672579625406038772e-01,0.000000000000000000e+00,1.120000000000000000e+02
0.000000000000000000e+00,1.000000000000000000e+00,0.000000000000000000e+00,6.800000000000000000e+01,1.882500000000000000e+04,3.898870944976806641e-01,1.795953035354614258e+00,4.134839755166882513e-01,0.000000000000000000e+00,1.120000000000000000e+02
0.000000000000000000e+00,1.000000000000000000e+00,0.000000000000000000e+00,5.900000000000000000e+01,1.888400000000000000e+04,4.057631492614746094e-01,1.980191946029663086e+00,5.935181380116699712e-01,0.000000000000000000e+00,1.120000000000000000e+02
0.000000000000000000e+00,1.000000000000000000e+00,0.000000000000000000e+00,6.100000000000000000e+01,1.894500000000000000e+04,2.963669300079345703e-01,1.943999052047729492e+00,6.541779701934928859e-01,0.000000000000000000e+00,1.120000000000000000e+02
0.000000000000000000e+00,1.000000000000000000e+00,0.000000000000000000e+00,6.300000000000000000e+01,1.900800000000000000e+04,3.414471149444580078e-01,1.725499153137207031e+00,3.966237079908078722e-01,0.000000000000000000e+00,1.120000000000000000e+02
1.000000000000000000e+00,1.000000000000000000e+00,1.000000000000000000e+00,6.800000000000000000e+01,1.907600000000000000e+04,2.998371124267578125e-01,1.731398105621337891e+00,4.446800924551888023e-01,0.000000000000000000e+00,1.120000000000000000e+02
0.000000000000000000e+00,1.000000000000000000e+00,0.000000000000000000e+00,7.000000000000000000e+01,1.914600000000000000e+04,2.945361137390136719e-01,1.817426919937133789e+00,5.286981194134314777e-01,0.000000000000000000e+00,1.120000000000000000e+02
0.000000000000000000e+00,1.000000000000000000e+00,0.000000000000000000e+00,6.200000000000000000e+01,1.920800000000000000e+04,5.339961051940917969e-01,1.960680007934570312e+00,4.395221484092188269e-01,0.000000000000000000e+00,1.120000000000000000e+02
1.000000000000000000e+00,1.000000000000000000e+00,1.000000000000000000e+00,6.700000000000000000e+01,1.927500000000000000e+04,3.173618316650390625e-01,1.746328115463256836e+00,4.358847700646434897e-01,0.000000000000000000e+00,1.120000000000000000e+02
1.000000000000000000e+00,1.000000000000000000e+00,1.000000000000000000e+00,6.000000000000000000e+01,1.933500000000000000e+04,4.588110446929931641e-01,2.037019968032836914e+00,5.728035823228478929e-01,0.000000000000000000e+00,1.120000000000000000e+02
0.000000000000000000e+00,1.000000000000000000e+00,0.000000000000000000e+00,6.200000000000000000e+01,1.939700000000000000e+04,2.803819179534912109e-01,1.794888973236083984e+00,5.178003499767098727e-01,0.000000000000000000e+00,1.120000000000000000e+02
1.000000000000000000e+00,1.000000000000000000e+00,1.000000000000000000e+00,5.900000000000000000e+01,1.945600000000000000e+04,3.031971454620361328e-01,1.819414138793945312e+00,5.205298399883744320e-01,0.000000000000000000e+00,1.120000000000000000e+02
0.000000000000000000e+00,1.000000000000000000e+00,0.000000000000000000e+00,6.600000000000000000e+01,1.952200000000000000e+04,2.996051311492919922e-01,1.728088855743408203e+00,4.320907960251190727e-01,0.000000000000000000e+00,1.120000000000000000e+02
1.000000000000000000e+00,1.000000000000000000e+00,1.000000000000000000e+00,6.200000000000000000e+01,1.958400000000000000e+04,2.362899780273437500e-01,1.777745008468627930e+00,5.430877058958935022e-01,0.000000000000000000e+00,1.120000000000000000e+02
1.000000000000000000e+00,1.000000000000000000e+00,1.000000000000000000e+00,5.600000000000000000e+01,1.964000000000000000e+04,3.767328262329101562e-01,1.643860101699829102e+00,2.872555748868433345e-01,0.000000000000000000e+00,1.120000000000000000e+02
1.000000000000000000e+00,1.000000000000000000e+00,1.000000000000000000e+00,6.900000000000000000e+01,1.970900000000000000e+04,3.337709903717041016e-01,1.705061912536621094e+00,3.755645539490684026e-01,0.000000000000000000e+00,1.120000000000000000e+02
1.000000000000000000e+00,1.000000000000000000e+00,1.000000000000000000e+00,5.500000000000000000e+01,1.976400000000000000e+04,2.638421058654785156e-01,1.788354158401489258e+00,5.304555555451542226e-01,0.000000000000000000e+00,1.120000000000000000e+02
0.000000000000000000e+00,1.000000000000000000e+00,0.000000000000000000e+00,6.200000000000000000e+01,1.982600000000000000e+04,2.745609283447265625e-01,1.592605113983154297e+00,3.399823821146133462e-01,0.000000000000000000e+00,1.120000000000000000e+02
1.000000000000000000e+00,1.000000000000000000e+00,1.000000000000000000e+00,6.000000000000000000e+01,1.988600000000000000e+04,2.606108188629150391e-01,2.009415864944458008e+00,7.490186912026579602e-01,0.000000000000000000e+00,1.120000000000000000e+02
0.000000000000000000e+00,1.000000000000000000e+00,0.000000000000000000e+00,6.000000000000000000e+01,1.994600000000000000e+04,3.080239295959472656e-01,1.962629079818725586e+00,6.617794685236459973e-01,0.000000000000000000e+00,1.120000000000000000e+02
1.000000000000000000e+00,1.000000000000000000e+00,1.000000000000000000e+00,6.300000000000000000e+01,2.000900000000000000e+04,2.380919456481933594e-01,1.953675985336303711e+00,7.320390491679078515e-01,0.000000000000000000e+00,1.120000000000000000e+02
0.000000000000000000e+00,1.000000000000000000e+00,0.000000000000000000e+00,5.600000000000000000e+01,2.006500000000000000e+04,2.265849113464355469e-01,1.904932975769042969e+00,6.870439577434050982e-01,0.000000000000000000e+00,1.120000000000000000e+02
1.000000000000000000e+00,1.000000000000000000e+00,1.000000000000000000e+00,6.300000000000000000e+01,2.012800000000000000e+04,2.467420101165771484e-01,1.837372779846191406e+00,5.912411050570709481e-01,0.000000000000000000e+00,1.120000000000000000e+02
1.000000000000000000e+00,1.000000000000000000e+00,1.000000000000000000e+00,6.500000000000000000e+01,2.019300000000000000e+04,3.123531341552734375e-01,1.813800811767578125e+00,5.051649500878778731e-01,0.000000000000000000e+00,1.120000000000000000e+02
0.000000000000000000e+00,0.000000000000000000e+00,1.000000000000000000e+00,3.900000000000000000e+01,2.023200000000000000e+04,3.536920547485351562e-01,1.919116973876953125e+00,5.742678864208485834e-01,1.000000000000000000e+00,1.110000000000000000e+02
1.000000000000000000e+00,1.000000000000000000e+00,1.000000000000000000e+00,6.100000000000000000e+01,2.029300000000000000e+04,2.451028823852539062e-01,1.886092901229858398e+00,6.436387650555550621e-01,0.000000000000000000e+00,1.110000000000000000e+02
1.000000000000000000e+00,1.000000000000000000e+00,1.000000000000000000e+00,6.000000000000000000e+01,2.035300000000000000e+04,2.838590145111083984e-01,1.919697999954223633e+00,6.466993303211144850e-01,0.000000000000000000e+00,1.110000000000000000e+02
0.000000000000000000e+00,1.000000000000000000e+00,0.000000000000000000e+00,5.400000000000000000e+01,2.040700000000000000e+04,3.153388500213623047e-01,1.662431001663208008e+00,3.594613075956190062e-01,0.000000000000000000e+00,1.110000000000000000e+02
0.000000000000000000e+00,1.000000000000000000e+00,0.000000000000000000e+00,6.200000000000000000e+01,2.046900000000000000e+04,3.647360801696777344e-01,2.054473876953125000e+00,6.969752269898155106e-01,0.000000000000000000e+00,1.110000000000000000e+02
1.000000000000000000e+00,1.000000000000000000e+00,1.000000000000000000e+00,6.000000000000000000e+01,2.052900000000000000e+04,2.048110961914062500e-01,1.839128017425537109e+00,6.528136675722420179e-01,0.000000000000000000e+00,1.110000000000000000e+02
0.000000000000000000e+00,1.000000000000000000e+00,0.000000000000000000e+00,5.500000000000000000e+01,2.058400000000000000e+04,4.198889732360839844e-01,2.075261116027832031e+00,6.614277272324186052e-01,0.000000000000000000e+00,1.110000000000000000e+02
0.000000000000000000e+00,1.000000000000000000e+00,0.000000000000000000e+00,5.900000000000000000e+01,2.064300000000000000e+04,3.063089847564697266e-01,1.828361988067626953e+00,5.399788914114418414e-01,0.000000000000000000e+00,1.110000000000000000e+02
1.000000000000000000e+00,1.000000000000000000e+00,1.000000000000000000e+00,5.900000000000000000e+01,2.070200000000000000e+04,3.530228137969970703e-01,1.716294050216674805e+00,3.731192502429571123e-01,0.000000000000000000e+00,1.110000000000000000e+02
0.000000000000000000e+00,1.000000000000000000e+00,0.000000000000000000e+00,6.000000000000000000e+01,2.076200000000000000e+04,3.023948669433593750e-01,1.563075065612792969e+00,2.697071193179533255e-01,0.000000000000000000e+00,1.110000000000000000e+02
0.000000000000000000e+00,0.000000000000000000e+00,1.000000000000000000e+00,4.200000000000000000e+01,2.080400000000000000e+04,3.857550621032714844e-01,1.725106000900268555e+00,3.447439410727464737e-01,0.000000000000000000e+00,1.110000000000000000e+02
1.000000000000000000e+00,1.000000000000000000e+00,1.000000000000000000e+00,6.000000000000000000e+01,2.086400000000000000e+04,2.993390560150146484e-01,1.705446958541870117e+00,4.168313010183287148e-01,0.000000000000000000e+00,1.110000000000000000e+02
0.000000000000000000e+00,1.000000000000000000e+00,0.000000000000000000e+00,6.100000000000000000e+01,2.092500000000000000e+04,3.425319194793701172e-01,1.772135019302368164e+00,4.389605751529477851e-01,0.000000000000000000e+00,1.110000000000000000e+02
0.000000000000000000e+00,1.000000000000000000e+00,0.000000000000000000e+00,5.500000000000000000e+01,2.098000000000000000e+04,3.319780826568603516e-01,2.061748981475830078e+00,7.337862666428239811e-01,0.000000000000000000e+00,1.110000000000000000e+02
0.000000000000000000e+00,1.000000000000000000e+00,0.000000000000000000e+00,5.700000000000000000e+01,2.103700000000000000e+04,3.073730468750000000e-01,1.887417078018188477e+00,5.880535691408420584e-01,0.000000000000000000e+00,1.110000000000000000e+02
0.000000000000000000e+00,1.000000000000000000e+00,0.000000000000000000e+00,5.600000000000000000e+01,2.109300000000000000e+04,2.951660156250000000e-01,2.022579908370971680e+00,7.271876078443946234e-01,0.000000000000000000e+00,1.110000000000000000e+02
1.000000000000000000e+00,1.000000000000000000e+00,1.000000000000000000e+00,5.900000000000000000e+01,2.115200000000000000e+04,2.755200862884521484e-01,1.591222047805786133e+00,3.354977054679001980e-01,0.000000000000000000e+00,1.110000000000000000e+02
1.000000000000000000e+00,1.000000000000000000e+00,1.000000000000000000e+00,6.400000000000000000e+01,2.121600000000000000e+04,4.045460224151611328e-01,1.854804039001464844e+00,4.568861971364723273e-01,0.000000000000000000e+00,1.110000000000000000e+02
1.000000000000000000e+00,1.000000000000000000e+00,1.000000000000000000e+00,6.100000000000000000e+01,2.127700000000000000e+04,3.205897808074951172e-01,2.020576000213623047e+00,7.105385162150130718e-01,0.000000000000000000e+00,1.110000000000000000e+02
1.000000000000000000e+00,1.000000000000000000e+00,1.000000000000000000e+00,6.100000000000000000e+01,2.133800000000000000e+04,3.130159378051757812e-01,1.654279947280883789e+00,3.486029912513807227e-01,0.000000000000000000e+00,1.110000000000000000e+02
1.000000000000000000e+00,1.000000000000000000e+00,1.000000000000000000e+00,6.000000000000000000e+01,2.139800000000000000e+04,2.920968532562255859e-01,1.858461856842041016e+00,5.901968327243697354e-01,0.000000000000000000e+00,1.110000000000000000e+02
0.000000000000000000e+00,1.000000000000000000e+00,0.000000000000000000e+00,5.600000000000000000e+01,2.145400000000000000e+04,4.233989715576171875e-01,1.819980144500732422e+00,4.104074465034218133e-01,0.000000000000000000e+00,1.110000000000000000e+02
1.000000000000000000e+00,1.000000000000000000e+00,1.000000000000000000e+00,5.700000000000000000e+01,2.151100000000000000e+04,2.898919582366943359e-01,1.614681959152221680e+00,3.418375980459837371e-01,0.000000000000000000e+00,1.110000000000000000e+02
0.000000000000000000e+00,1.000000000000000000e+00,0.000000000000000000e+00,5.900000000000000000e+01,2.157000000000000000e+04,3.192820549011230469e-01,2.023382902145385742e+00,7.148130017514102708e-01,0.000000000000000000e+00,1.110000000000000000e+02
1.000000000000000000e+00,1.000000000000000000e+00,1.000000000000000000e+00,6.200000000000000000e+01,2.163200000000000000e+04,2.646660804748535156e-01,1.865463018417358398e+00,6.137896973462761974e-01,0.000000000000000000e+00,1.110000000000000000e+02
1.000000000000000000e+00,1.000000000000000000e+00,1.000000000000000000e+00,6.000000000000000000e+01,2.169200000000000000e+04,2.720401287078857422e-01,1.824934959411621094e+00,5.721370344956173692e-01,0.000000000000000000e+00,1.110000000000000000e+02
0.000000000000000000e+00,1.000000000000000000e+00,0.000000000000000000e+00,6.500000000000000000e+01,2.175700000000000000e+04,3.687181472778320312e-01,1.817462921142578125e+00,4.564102596251588539e-01,0.000000000000000000e+00,1.110000000000000000e+02
1.000000000000000000e+00,1.000000000000000000e+00,1.000000000000000000e+00,5.600000000000000000e+01,2.181300000000000000e+04,2.641520500183105469e-01,1.674030065536499023e+00,4.138706437850465658e-01,0.000000000000000000e+00,1.110000000000000000e+02
1.000000000000000000e+00,1.000000000000000000e+00,1.000000000000000000e+00,6.000000000000000000e+01,2.187300000000000000e+04,2.585248947143554688e-01,1.867903947830200195e+00,6.315155904506216666e-01,0.000000000000000000e+00,1.110000000000000000e+02
0.000000000000000000e+00,1.000000000000000000e+00,0.000000000000000000e+00,6.000000000000000000e+01,2.193300000000000000e+04,3.450529575347900391e-01,2.078250885009765625e+00,7.430299086148577370e-01,0.000000000000000000e+00,1.110000000000000000e+02
1.000000000000000000e+00,1.000000000000000000e+00,1.000000000000000000e+00,5.600000000000000000e+01,2.198900000000000000e+04,2.287850379943847656e-01,1.891506910324096680e+00,6.679885803587823911e-01,0.000000000000000000e+00,1.110000000000000000e+02
0.000000000000000000e+00,0.000000000000000000e+00,1.000000000000000000e+00,3.900000000000000000e+01,2.202800000000000000e+04,3.027229309082031250e-01,1.902338027954101562e+00,6.037629289254036191e-01,1.000000000000000000e+00,1.120000000000000000e+02
1.000000000000000000e+00,1.000000000000000000e+00,1.000000000000000000e+00,6.300000000000000000e+01,2.209100000000000000e+04,2.328460216522216797e-01,1.874320983886718750e+00,6.447390501564538301e-01,0.000000000000000000e+00,1.120000000000000000e+02
0.000000000000000000e+00,1.000000000000000000e+00,0.000000000000000000e+00,6.100000000000000000e+01,2.215200000000000000e+04,3.402709960937500000e-01,1.596083879470825195e+00,2.746095862951289934e-01,0.000000000000000000e+00,1.120000000000000000e+02
1.000000000000000000e+00,1.000000000000000000e+00,1.000000000000000000e+00,5.600000000000000000e+01,2.220800000000000000e+04,3.872311115264892578e-01,1.944998025894165039e+00,5.693394839610208535e-01,0.000000000000000000e+00,1.120000000000000000e+02
0.000000000000000000e+00,1.000000000000000000e+00,0.000000000000000000e+00,6.400000000000000000e+01,2.227200000000000000e+04,2.664620876312255859e-01,1.893912076950073242e+00,6.298493161735818635e-01,0.000000000000000000e+00,1.120000000000000000e+02
0.000000000000000000e+00,1.000000000000000000e+00,0.000000000000000000e+00,6.200000000000000000e+01,2.233400000000000000e+04,3.390970230102539062e-01,1.650461912155151367e+00,3.306728349399155054e-01,0.000000000000000000e+00,1.120000000000000000e+02
0.000000000000000000e+00,1.000000000000000000e+00,0.000000000000000000e+00,6.000000000000000000e+01,2.239400000000000000e+04,3.202068805694580078e-01,1.559729099273681641e+00,2.571780604368116840e-01,0.000000000000000000e+00,1.120000000000000000e+02
1.000000000000000000e+00,1.000000000000000000e+00,1.000000000000000000e+00,6.100000000000000000e+01,2.245500000000000000e+04,2.964971065521240234e-01,1.821579933166503906e+00,5.284777247397656197e-01,0.000000000000000000e+00,1.120000000000000000e+02
1.000000000000000000e+00,1.000000000000000000e+00,1.000000000000000000e+00,5.900000000000000000e+01,2.251400000000000000e+04,3.729479312896728516e-01,1.967141151428222656e+00,6.122283466377209660e-01,0.000000000000000000e+00,1.120000000000000000e+02
0.000000000000000000e+00,1.000000000000000000e+00,0.000000000000000000e+00,5.200000000000000000e+01,2.256600000000000000e+04,2.573559284210205078e-01,1.584886074066162109e+00,3.474231535445372332e-01,0.000000000000000000e+00,1.120000000000000000e+02
1.000000000000000000e+00,1.000000000000000000e+00,1.000000000000000000e+00,5.300000000000000000e+01,2.261900000000000000e+04,2.431879043579101562e-01,1.817404031753540039e+00,5.812954343167353599e-01,0.000000000000000000e+00,1.120000000000000000e+02
1.000000000000000000e+00,1.000000000000000000e+00,1.000000000000000000e+00,5.700000000000000000e+01,2.267600000000000000e+04,2.684731483459472656e-01,1.626890897750854492e+00,3.751067509646942577e-01,0.000000000000000000e+00,1.120000000000000000e+02
0.000000000000000000e+00,1.000000000000000000e+00,0.000000000000000000e+00,6.000000000000000000e+01,2.273600000000000000e+04,3.332250118255615234e-01,1.656412124633789062e+00,3.316069734630264776e-01,0.000000000000000000e+00,1.120000000000000000e+02
1.000000000000000000e+00,1.000000000000000000e+00,1.000000000000000000e+00,5.600000000000000000e+01,2.279200000000000000e+04,2.642579078674316406e-01,1.507375955581665039e+00,2.557630795947046787e-01,0.000000000000000000e+00,1.120000000000000000e+02
0.000000000000000000e+00,1.000000000000000000e+00,0.000000000000000000e+00,6.000000000000000000e+01,2.285200000000000000e+04,3.096699714660644531e-01,1.818764209747314453e+00,5.242463510197683529e-01,0.000000000000000000e+00,1.120000000000000000e+02
1.000000000000000000e+00,1.000000000000000000e+00,1.000000000000000000e+00,5.600000000000000000e+01,2.290800000000000000e+04,2.530369758605957031e-01,1.608536958694458008e+00,3.663226906074832367e-01,0.000000000000000000e+00,1.120000000000000000e+02
1.000000000000000000e+00,1.000000000000000000e+00,1.000000000000000000e+00,6.700000000000000000e+01,2.297500000000000000e+04,3.194260597229003906e-01,1.748753070831298828e+00,4.317026638237204117e-01,0.000000000000000000e+00,1.120000000000000000e+02
1.000000000000000000e+00,1.000000000000000000e+00,1.000000000000000000e+00,6.200000000000000000e+01,2.303700000000000000e+04,2.611010074615478516e-01,1.773077011108398438e+00,5.380510973792415053e-01,0.000000000000000000e+00,1.120000000000000000e+02
0.000000000000000000e+00,1.000000000000000000e+00,0.000000000000000000e+00,5.900000000000000000e+01,2.309600000000000000e+04,2.989778518676757812e-01,2.014801025390625000e+00,7.193801400190229511e-01,0.000000000000000000e+00,1.120000000000000000e+02
1.000000000000000000e+00,1.000000000000000000e+00,1.000000000000000000e+00,6.300000000000000000e+01,2.315900000000000000e+04,2.433021068572998047e-01,1.612266063690185547e+00,3.819965770009896566e-01,0.000000000000000000e+00,1.120000000000000000e+02
1.000000000000000000e+00,1.000000000000000000e+00,1.000000000000000000e+00,6.200000000000000000e+01,2.322100000000000000e+04,3.913438320159912109e-01,1.982062816619873047e+00,6.138682248408389164e-01,0.000000000000000000e+00,1.120000000000000000e+02
1.000000000000000000e+00,0.000000000000000000e+00,0.000000000000000000e+00,4.200000000000000000e+01,2.326300000000000000e+04,2.730379104614257812e-01,1.964626073837280273e+00,7.117027216600488870e-01,1.000000000000000000e+00,1.110000000000000000e+02
0.000000000000000000e+00,0.000000000000000000e+00,1.000000000000000000e+00,4.500000000000000000e+01,2.330800000000000000e+04,3.244678974151611328e-01,1.681488037109375000e+00,3.769503902999652434e-01,0.000000000000000000e+00,1.110000000000000000e+02
1.000000000000000000e+00,0.000000000000000000e+00,0.000000000000000000e+00,4.600000000000000000e+01,2.335400000000000000e+04,2.711641788482666016e-01,1.849237918853759766e+00,5.926621383779413499e-01,0.000000000000000000e+00,1.110000000000000000e+02
1.000000000000000000e+00,1.000000000000000000e+00,1.000000000000000000e+00,5.600000000000000000e+01,2.341000000000000000e+04,2.612338066101074219e-01,1.980966806411743164e+00,7.401820835959362910e-01,0.000000000000000000e+00,1.110000000000000000e+02
1.000000000000000000e+00,1.000000000000000000e+00,1.000000000000000000e+00,5.000000000000000000e+01,2.346000000000000000e+04,3.489918708801269531e-01,1.928771972656250000e+00,5.858208022425746009e-01,0.000000000000000000e+00,1.110000000000000000e+02
0.000000000000000000e+00,1.000000000000000000e+00,0.000000000000000000e+00,5.900000000000000000e+01,2.351900000000000000e+04,4.827618598937988281e-01,2.064990043640136719e+00,5.842003659612358124e-01,0.000000000000000000e+00,1.110000000000000000e+02
1.000000000000000000e+00,1.000000000000000000e+00,1.000000000000000000e+00,5.400000000000000000e+01,2.357300000000000000e+04,3.580880165100097656e-01,1.968071937561035156e+00,6.189686309489577098e-01,0.000000000000000000e+00,1.110000000000000000e+02
0.000000000000000000e+00,1.000000000000000000e+00,0.000000000000000000e+00,5.900000000000000000e+01,2.363200000000000000e+04,2.626359462738037109e-01,1.666850090026855469e+00,4.026723462018541588e-01,0.000000000000000000e+00,1.110000000000000000e+02
0.000000000000000000e+00,1.000000000000000000e+00,0.000000000000000000e+00,5.300000000000000000e+01,2.368500000000000000e+04,5.138428211212158203e-01,2.084265947341918945e+00,5.701098147338206079e-01,0.000000000000000000e+00,1.110000000000000000e+02
0.000000000000000000e+00,1.000000000000000000e+00,0.000000000000000000e+00,6.000000000000000000e+01,2.374500000000000000e+04,4.037098884582519531e-01,1.957792043685913086e+00,5.612920786191641920e-01,0.000000000000000000e+00,1.110000000000000000e+02
0.000000000000000000e+00,1.000000000000000000e+00,0.000000000000000000e+00,5.400000000000000000e+01,2.379900000000000000e+04,3.326480388641357422e-01,1.939435958862304688e+00,6.174012757459843570e-01,0.000000000000000000e+00,1.110000000000000000e+02
0.000000000000000000e+00,1.000000000000000000e+00,0.000000000000000000e+00,5.600000000000000000e+01,2.385500000000000000e+04,3.207600116729736328e-01,1.983669996261596680e+00,6.677244972670304257e-01,0.000000000000000000e+00,1.110000000000000000e+02
1.000000000000000000e+00,1.000000000000000000e+00,1.000000000000000000e+00,6.400000000000000000e+01,2.391900000000000000e+04,3.435029983520507812e-01,1.923167943954467773e+00,5.909759131959597678e-01,0.000000000000000000e+00,1.110000000000000000e+02
1.000000000000000000e+00,1.000000000000000000e+00,1.000000000000000000e+00,5.700000000000000000e+01,2.397600000000000000e+04,3.369359970092773438e-01,1.678938150405883789e+00,3.535607330853028363e-01,0.000000000000000000e+00,1.110000000000000000e+02
