choice, accuracy, solution,  reward, cumulative_reward, rt,  total_trial_time, iti, cp_with_slow_fast, high_val_cue
1.000000000000000000e+00,1.000000000000000000e+00,1.000000000000000000e+00,5.700000000000000000e+01,5.700000000000000000e+01,7.872550487518310547e-01,2.204550981521606445e+00,4.228410963241697185e-01,0.000000000000000000e+00,1.120000000000000000e+02
1.000000000000000000e+00,1.000000000000000000e+00,1.000000000000000000e+00,5.600000000000000000e+01,1.130000000000000000e+02,3.223431110382080078e-01,1.905586004257202148e+00,5.949977420856449317e-01,0.000000000000000000e+00,1.120000000000000000e+02
1.000000000000000000e+00,1.000000000000000000e+00,1.000000000000000000e+00,6.100000000000000000e+01,1.740000000000000000e+02,2.944059371948242188e-01,1.937774181365966797e+00,6.494243653893634338e-01,0.000000000000000000e+00,1.120000000000000000e+02
0.000000000000000000e+00,1.000000000000000000e+00,0.000000000000000000e+00,5.600000000000000000e+01,2.300000000000000000e+02,3.034551143646240234e-01,1.939959049224853516e+00,6.394947837783616640e-01,0.000000000000000000e+00,1.120000000000000000e+02
0.000000000000000000e+00,1.000000000000000000e+00,0.000000000000000000e+00,5.900000000000000000e+01,2.890000000000000000e+02,3.042800426483154297e-01,1.895262956619262695e+00,6.015057270894547115e-01,0.000000000000000000e+00,1.120000000000000000e+02
1.000000000000000000e+00,1.000000000000000000e+00,1.000000000000000000e+00,5.900000000000000000e+01,3.480000000000000000e+02,2.832961082458496094e-01,1.599357128143310547e+00,3.178551602126787889e-01,0.000000000000000000e+00,1.120000000000000000e+02
1.000000000000000000e+00,1.000000000000000000e+00,1.000000000000000000e+00,5.200000000000000000e+01,4.000000000000000000e+02,3.373069763183593750e-01,1.983153820037841797e+00,6.507305618763365995e-01,0.000000000000000000e+00,1.120000000000000000e+02
0.000000000000000000e+00,1.000000000000000000e+00,0.000000000000000000e+00,5.100000000000000000e+01,4.510000000000000000e+02,3.190081119537353516e-01,1.824022054672241211e+00,5.083094826104885833e-01,0.000000000000000000e+00,1.120000000000000000e+02
1.000000000000000000e+00,1.000000000000000000e+00,1.000000000000000000e+00,5.100000000000000000e+01,5.020000000000000000e+02,3.625109195709228516e-01,1.907160043716430664e+00,5.488512176292014155e-01,0.000000000000000000e+00,1.120000000000000000e+02
0.000000000000000000e+00,1.000000000000000000e+00,0.000000000000000000e+00,5.600000000000000000e+01,5.580000000000000000e+02,2.588930130004882812e-01,1.818412065505981445e+00,5.672809269266977372e-01,0.000000000000000000e+00,1.120000000000000000e+02
1.000000000000000000e+00,1.000000000000000000e+00,1.000000000000000000e+00,5.600000000000000000e+01,6.140000000000000000e+02,2.412340641021728516e-01,1.856905937194824219e+00,6.242347776943485416e-01,0.000000000000000000e+00,1.120000000000000000e+02
1.000000000000000000e+00,1.000000000000000000e+00,1.000000000000000000e+00,6.300000000000000000e+01,6.770000000000000000e+02,3.003818988800048828e-01,2.007508039474487305e+00,7.150085051235997025e-01,0.000000000000000000e+00,1.120000000000000000e+02
0.000000000000000000e+00,1.000000000000000000e+00,0.000000000000000000e+00,5.200000000000000000e+01,7.290000000000000000e+02,2.914319038391113281e-01,1.916218996047973633e+00,6.480583870764491383e-01,0.000000000000000000e+00,1.120000000000000000e+02
0.000000000000000000e+00,1.000000000000000000e+00,0.000000000000000000e+00,6.100000000000000000e+01,7.900000000000000000e+02,2.678060531616210938e-01,1.786802053451538086e+00,5.350669514224908330e-01,0.000000000000000000e+00,1.120000000000000000e+02
0.000000000000000000e+00,1.000000000000000000e+00,0.000000000000000000e+00,5.900000000000000000e+01,8.490000000000000000e+02,2.778570652008056641e-01,1.900920152664184570e+00,6.359184261766017698e-01,0.000000000000000000e+00,1.120000000000000000e+02
1.000000000000000000e+00,1.000000000000000000e+00,1.000000000000000000e+00,5.900000000000000000e+01,9.080000000000000000e+02,2.819278240203857422e-01,1.733972072601318359e+00,4.534361135249354025e-01,0.000000000000000000e+00,1.120000000000000000e+02
1.000000000000000000e+00,1.000000000000000000e+00,1.000000000000000000e+00,5.700000000000000000e+01,9.650000000000000000e+02,3.727278709411621094e-01,2.037225008010864258e+00,6.738363836468433954e-01,0.000000000000000000e+00,1.120000000000000000e+02
0.000000000000000000e+00,1.000000000000000000e+00,0.000000000000000000e+00,5.200000000000000000e+01,1.017000000000000000e+03,2.823259830474853516e-01,2.015590906143188477e+00,7.393959553750428793e-01,0.000000000000000000e+00,1.120000000000000000e+02
1.000000000000000000e+00,1.000000000000000000e+00,1.000000000000000000e+00,5.600000000000000000e+01,1.073000000000000000e+03,2.507638931274414062e-01,1.891484975814819336e+00,6.477366694175707984e-01,0.000000000000000000e+00,1.120000000000000000e+02
1.000000000000000000e+00,1.000000000000000000e+00,1.000000000000000000e+00,5.500000000000000000e+01,1.128000000000000000e+03,3.314630985260009766e-01,1.907370090484619141e+00,5.885757020527391248e-01,0.000000000000000000e+00,1.120000000000000000e+02
1.000000000000000000e+00,1.000000000000000000e+00,1.000000000000000000e+00,6.000000000000000000e+01,1.188000000000000000e+03,2.978808879852294922e-01,1.644977092742919922e+00,3.505467050072501589e-01,0.000000000000000000e+00,1.120000000000000000e+02
0.000000000000000000e+00,1.000000000000000000e+00,0.000000000000000000e+00,6.200000000000000000e+01,1.250000000000000000e+03,4.518949985504150391e-01,2.073514938354492188e+00,6.238241782332548668e-01,0.000000000000000000e+00,1.120000000000000000e+02
1.000000000000000000e+00,1.000000000000000000e+00,1.000000000000000000e+00,5.900000000000000000e+01,1.309000000000000000e+03,2.582459449768066406e-01,1.791074991226196289e+00,5.483810886072929547e-01,0.000000000000000000e+00,1.120000000000000000e+02
0.000000000000000000e+00,1.000000000000000000e+00,0.000000000000000000e+00,5.700000000000000000e+01,1.366000000000000000e+03,2.610020637512207031e-01,1.731040000915527344e+00,4.961671060284437162e-01,0.000000000000000000e+00,1.120000000000000000e+02
1.000000000000000000e+00,0.000000000000000000e+00,0.000000000000000000e+00,3.900000000000000000e+01,1.405000000000000000e+03,2.568008899688720703e-01,1.832807064056396484e+00,5.956265382938592534e-01,0.000000000000000000e+00,1.120000000000000000e+02
1.000000000000000000e+00,1.000000000000000000e+00,1.000000000000000000e+00,6.000000000000000000e+01,1.465000000000000000e+03,3.504569530487060547e-01,1.713353157043457031e+00,3.759482010823450016e-01,0.000000000000000000e+00,1.120000000000000000e+02
0.000000000000000000e+00,1.000000000000000000e+00,0.000000000000000000e+00,6.100000000000000000e+01,1.526000000000000000e+03,2.618350982666015625e-01,1.592808008193969727e+00,3.354900182933724384e-01,0.000000000000000000e+00,1.120000000000000000e+02
1.000000000000000000e+00,1.000000000000000000e+00,1.000000000000000000e+00,6.200000000000000000e+01,1.588000000000000000e+03,2.398860454559326172e-01,1.509968996047973633e+00,2.789281351720089841e-01,0.000000000000000000e+00,1.120000000000000000e+02
1.000000000000000000e+00,1.000000000000000000e+00,1.000000000000000000e+00,5.400000000000000000e+01,1.642000000000000000e+03,2.889869213104248047e-01,2.011461973190307617e+00,7.399559844578742496e-01,0.000000000000000000e+00,1.120000000000000000e+02
0.000000000000000000e+00,1.000000000000000000e+00,0.000000000000000000e+00,5.900000000000000000e+01,1.701000000000000000e+03,2.523200511932373047e-01,1.878126144409179688e+00,6.349253555634069013e-01,0.000000000000000000e+00,1.120000000000000000e+02
0.000000000000000000e+00,1.000000000000000000e+00,0.000000000000000000e+00,5.600000000000000000e+01,1.757000000000000000e+03,2.591087818145751953e-01,1.683393955230712891e+00,4.352517258280081403e-01,0.000000000000000000e+00,1.120000000000000000e+02
0.000000000000000000e+00,1.000000000000000000e+00,0.000000000000000000e+00,5.600000000000000000e+01,1.813000000000000000e+03,2.627711296081542969e-01,1.841187000274658203e+00,5.763616056787257413e-01,0.000000000000000000e+00,1.120000000000000000e+02
1.000000000000000000e+00,1.000000000000000000e+00,1.000000000000000000e+00,5.600000000000000000e+01,1.869000000000000000e+03,2.515270709991455078e-01,1.904607057571411133e+00,6.642667462475972950e-01,0.000000000000000000e+00,1.120000000000000000e+02
1.000000000000000000e+00,1.000000000000000000e+00,1.000000000000000000e+00,5.500000000000000000e+01,1.924000000000000000e+03,2.826039791107177734e-01,1.799625873565673828e+00,5.307312815436338038e-01,0.000000000000000000e+00,1.120000000000000000e+02
1.000000000000000000e+00,1.000000000000000000e+00,1.000000000000000000e+00,5.500000000000000000e+01,1.979000000000000000e+03,2.636559009552001953e-01,1.506138086318969727e+00,2.539051292309922880e-01,0.000000000000000000e+00,1.120000000000000000e+02
1.000000000000000000e+00,1.000000000000000000e+00,1.000000000000000000e+00,5.700000000000000000e+01,2.036000000000000000e+03,4.300642013549804688e-01,2.049379110336303711e+00,6.196400709609546364e-01,0.000000000000000000e+00,1.120000000000000000e+02
1.000000000000000000e+00,1.000000000000000000e+00,1.000000000000000000e+00,5.600000000000000000e+01,2.092000000000000000e+03,2.511389255523681641e-01,1.635501861572265625e+00,3.887691098723227712e-01,0.000000000000000000e+00,1.120000000000000000e+02
1.000000000000000000e+00,1.000000000000000000e+00,1.000000000000000000e+00,5.700000000000000000e+01,2.149000000000000000e+03,2.598519325256347656e-01,1.978674888610839844e+00,7.338315359548087669e-01,0.000000000000000000e+00,1.120000000000000000e+02
0.000000000000000000e+00,1.000000000000000000e+00,0.000000000000000000e+00,5.600000000000000000e+01,2.205000000000000000e+03,3.965759277343750000e-01,1.740139961242675781e+00,3.410955275793021158e-01,0.000000000000000000e+00,1.120000000000000000e+02
1.000000000000000000e+00,1.000000000000000000e+00,1.000000000000000000e+00,5.500000000000000000e+01,2.260000000000000000e+03,2.622931003570556641e-01,1.873985052108764648e+00,6.148676573602440687e-01,0.000000000000000000e+00,1.120000000000000000e+02
0.000000000000000000e+00,1.000000000000000000e+00,0.000000000000000000e+00,5.600000000000000000e+01,2.316000000000000000e+03,2.637259960174560547e-01,1.980394124984741211e+00,7.285336447459176412e-01,0.000000000000000000e+00,1.120000000000000000e+02
0.000000000000000000e+00,1.000000000000000000e+00,0.000000000000000000e+00,5.500000000000000000e+01,2.371000000000000000e+03,4.044430255889892578e-01,1.908746957778930664e+00,5.208952234406861725e-01,0.000000000000000000e+00,1.120000000000000000e+02
1.000000000000000000e+00,1.000000000000000000e+00,1.000000000000000000e+00,5.600000000000000000e+01,2.427000000000000000e+03,2.978730201721191406e-01,1.905182838439941406e+00,6.093753899253322448e-01,0.000000000000000000e+00,1.120000000000000000e+02
0.000000000000000000e+00,1.000000000000000000e+00,0.000000000000000000e+00,5.700000000000000000e+01,2.484000000000000000e+03,2.828500270843505859e-01,1.732375860214233398e+00,4.586578831208228402e-01,0.000000000000000000e+00,1.120000000000000000e+02
0.000000000000000000e+00,1.000000000000000000e+00,0.000000000000000000e+00,5.400000000000000000e+01,2.538000000000000000e+03,2.476000785827636719e-01,1.600916147232055664e+00,3.597162839280122482e-01,0.000000000000000000e+00,1.120000000000000000e+02
0.000000000000000000e+00,1.000000000000000000e+00,0.000000000000000000e+00,6.300000000000000000e+01,2.601000000000000000e+03,3.157451152801513672e-01,1.742682933807373047e+00,4.356893776207665936e-01,0.000000000000000000e+00,1.120000000000000000e+02
1.000000000000000000e+00,1.000000000000000000e+00,1.000000000000000000e+00,5.200000000000000000e+01,2.653000000000000000e+03,2.818281650543212891e-01,1.599205017089843750e+00,3.184033348375616135e-01,0.000000000000000000e+00,1.120000000000000000e+02
1.000000000000000000e+00,1.000000000000000000e+00,1.000000000000000000e+00,5.200000000000000000e+01,2.705000000000000000e+03,3.108739852905273438e-01,1.569024085998535156e+00,2.708886770859804116e-01,0.000000000000000000e+00,1.120000000000000000e+02
1.000000000000000000e+00,1.000000000000000000e+00,1.000000000000000000e+00,5.900000000000000000e+01,2.764000000000000000e+03,3.082919120788574219e-01,1.647122144699096680e+00,3.513437948379918296e-01,0.000000000000000000e+00,1.120000000000000000e+02
0.000000000000000000e+00,1.000000000000000000e+00,0.000000000000000000e+00,5.900000000000000000e+01,2.823000000000000000e+03,2.943098545074462891e-01,1.817239999771118164e+00,5.350849131227369826e-01,0.000000000000000000e+00,1.120000000000000000e+02
0.000000000000000000e+00,1.000000000000000000e+00,0.000000000000000000e+00,6.000000000000000000e+01,2.883000000000000000e+03,2.827680110931396484e-01,2.001505851745605469e+00,7.197951415591576918e-01,0.000000000000000000e+00,1.120000000000000000e+02
0.000000000000000000e+00,0.000000000000000000e+00,1.000000000000000000e+00,3.900000000000000000e+01,2.922000000000000000e+03,2.668099403381347656e-01,1.633477926254272461e+00,3.703633123991274534e-01,0.000000000000000000e+00,1.120000000000000000e+02
0.000000000000000000e+00,1.000000000000000000e+00,0.000000000000000000e+00,5.700000000000000000e+01,2.979000000000000000e+03,3.074758052825927734e-01,1.548848152160644531e+00,2.527175836320229574e-01,0.000000000000000000e+00,1.120000000000000000e+02
1.000000000000000000e+00,1.000000000000000000e+00,1.000000000000000000e+00,5.600000000000000000e+01,3.035000000000000000e+03,2.755300998687744141e-01,1.769608974456787109e+00,5.054581940637270510e-01,0.000000000000000000e+00,1.120000000000000000e+02
0.000000000000000000e+00,1.000000000000000000e+00,0.000000000000000000e+00,5.600000000000000000e+01,3.091000000000000000e+03,3.749098777770996094e-01,1.750432014465332031e+00,3.894142283902525814e-01,0.000000000000000000e+00,1.120000000000000000e+02
0.000000000000000000e+00,1.000000000000000000e+00,0.000000000000000000e+00,5.400000000000000000e+01,3.145000000000000000e+03,2.940151691436767578e-01,1.965256929397583008e+00,6.878005996043476955e-01,0.000000000000000000e+00,1.120000000000000000e+02
0.000000000000000000e+00,1.000000000000000000e+00,0.000000000000000000e+00,5.100000000000000000e+01,3.196000000000000000e+03,2.794940471649169922e-01,1.896371126174926758e+00,6.176333952769904601e-01,0.000000000000000000e+00,1.120000000000000000e+02
0.000000000000000000e+00,1.000000000000000000e+00,0.000000000000000000e+00,5.700000000000000000e+01,3.253000000000000000e+03,2.904388904571533203e-01,1.840491056442260742e+00,5.582241172768216408e-01,0.000000000000000000e+00,1.120000000000000000e+02
0.000000000000000000e+00,1.000000000000000000e+00,0.000000000000000000e+00,6.600000000000000000e+01,3.319000000000000000e+03,2.862739562988281250e-01,1.999548912048339844e+00,7.243005494141958600e-01,0.000000000000000000e+00,1.120000000000000000e+02
0.000000000000000000e+00,1.000000000000000000e+00,0.000000000000000000e+00,6.000000000000000000e+01,3.379000000000000000e+03,2.473020553588867188e-01,1.786224126815795898e+00,5.441013620873785817e-01,0.000000000000000000e+00,1.120000000000000000e+02
1.000000000000000000e+00,1.000000000000000000e+00,1.000000000000000000e+00,5.600000000000000000e+01,3.435000000000000000e+03,3.240849971771240234e-01,2.035279989242553711e+00,7.292673443741801709e-01,0.000000000000000000e+00,1.120000000000000000e+02
0.000000000000000000e+00,1.000000000000000000e+00,0.000000000000000000e+00,5.200000000000000000e+01,3.487000000000000000e+03,3.207030296325683594e-01,1.968731880187988281e+00,6.648176094276690984e-01,0.000000000000000000e+00,1.120000000000000000e+02
1.000000000000000000e+00,1.000000000000000000e+00,1.000000000000000000e+00,5.600000000000000000e+01,3.543000000000000000e+03,2.910878658294677734e-01,1.625787019729614258e+00,3.576215493430098813e-01,0.000000000000000000e+00,1.120000000000000000e+02
1.000000000000000000e+00,1.000000000000000000e+00,1.000000000000000000e+00,6.200000000000000000e+01,3.605000000000000000e+03,3.297531604766845703e-01,1.874430894851684570e+00,5.486001460744777125e-01,0.000000000000000000e+00,1.120000000000000000e+02
0.000000000000000000e+00,1.000000000000000000e+00,0.000000000000000000e+00,5.900000000000000000e+01,3.664000000000000000e+03,2.865719795227050781e-01,1.572124958038330078e+00,2.877315269922862129e-01,0.000000000000000000e+00,1.120000000000000000e+02
1.000000000000000000e+00,1.000000000000000000e+00,1.000000000000000000e+00,5.900000000000000000e+01,3.723000000000000000e+03,2.878839969635009766e-01,1.791242122650146484e+00,5.121228170871036101e-01,0.000000000000000000e+00,1.120000000000000000e+02
1.000000000000000000e+00,1.000000000000000000e+00,1.000000000000000000e+00,5.200000000000000000e+01,3.775000000000000000e+03,2.777340412139892578e-01,1.912834882736206055e+00,6.582072916918185745e-01,0.000000000000000000e+00,1.120000000000000000e+02
1.000000000000000000e+00,1.000000000000000000e+00,1.000000000000000000e+00,5.900000000000000000e+01,3.834000000000000000e+03,3.321058750152587891e-01,1.891916990280151367e+00,5.669795073474100944e-01,0.000000000000000000e+00,1.120000000000000000e+02
1.000000000000000000e+00,1.000000000000000000e+00,1.000000000000000000e+00,6.200000000000000000e+01,3.896000000000000000e+03,2.751908302307128906e-01,1.905654191970825195e+00,6.392070934891168621e-01,0.000000000000000000e+00,1.120000000000000000e+02
1.000000000000000000e+00,1.000000000000000000e+00,1.000000000000000000e+00,5.400000000000000000e+01,3.950000000000000000e+03,2.402398586273193359e-01,1.652764797210693359e+00,4.256121289779009609e-01,0.000000000000000000e+00,1.120000000000000000e+02
1.000000000000000000e+00,1.000000000000000000e+00,1.000000000000000000e+00,5.300000000000000000e+01,4.003000000000000000e+03,2.563178539276123047e-01,1.853464841842651367e+00,6.122915482727797620e-01,0.000000000000000000e+00,1.120000000000000000e+02
1.000000000000000000e+00,1.000000000000000000e+00,1.000000000000000000e+00,5.600000000000000000e+01,4.059000000000000000e+03,2.603468894958496094e-01,1.611183881759643555e+00,3.737855944517080586e-01,0.000000000000000000e+00,1.120000000000000000e+02
1.000000000000000000e+00,1.000000000000000000e+00,1.000000000000000000e+00,5.500000000000000000e+01,4.114000000000000000e+03,3.477909564971923828e-01,1.902594089508056641e+00,5.596150167499656103e-01,0.000000000000000000e+00,1.120000000000000000e+02
1.000000000000000000e+00,1.000000000000000000e+00,1.000000000000000000e+00,5.600000000000000000e+01,4.170000000000000000e+03,2.766950130462646484e-01,1.714856863021850586e+00,4.579327134965514579e-01,0.000000000000000000e+00,1.120000000000000000e+02
1.000000000000000000e+00,1.000000000000000000e+00,1.000000000000000000e+00,5.900000000000000000e+01,4.229000000000000000e+03,2.402009963989257812e-01,1.525401830673217773e+00,3.002070095228580593e-01,0.000000000000000000e+00,1.120000000000000000e+02
0.000000000000000000e+00,1.000000000000000000e+00,0.000000000000000000e+00,5.900000000000000000e+01,4.288000000000000000e+03,2.910759449005126953e-01,1.757661104202270508e+00,4.744233373232880635e-01,0.000000000000000000e+00,1.120000000000000000e+02
1.000000000000000000e+00,1.000000000000000000e+00,1.000000000000000000e+00,6.100000000000000000e+01,4.349000000000000000e+03,3.029348850250244141e-01,1.671063899993896484e+00,3.789773536321172087e-01,0.000000000000000000e+00,1.120000000000000000e+02
1.000000000000000000e+00,1.000000000000000000e+00,1.000000000000000000e+00,5.900000000000000000e+01,4.408000000000000000e+03,3.223528861999511719e-01,1.740616083145141602e+00,4.362602352644874837e-01,0.000000000000000000e+00,1.120000000000000000e+02
1.000000000000000000e+00,1.000000000000000000e+00,1.000000000000000000e+00,5.900000000000000000e+01,4.467000000000000000e+03,3.124320507049560547e-01,1.884699106216430664e+00,5.708846104079660089e-01,0.000000000000000000e+00,1.120000000000000000e+02
1.000000000000000000e+00,1.000000000000000000e+00,1.000000000000000000e+00,5.600000000000000000e+01,4.523000000000000000e+03,2.271239757537841797e-01,1.633358955383300781e+00,4.211155619775516223e-01,0.000000000000000000e+00,1.120000000000000000e+02
0.000000000000000000e+00,1.000000000000000000e+00,0.000000000000000000e+00,5.900000000000000000e+01,4.582000000000000000e+03,3.228659629821777344e-01,1.734822988510131836e+00,4.226612957085267852e-01,0.000000000000000000e+00,1.120000000000000000e+02
0.000000000000000000e+00,1.000000000000000000e+00,0.000000000000000000e+00,5.500000000000000000e+01,4.637000000000000000e+03,2.406439781188964844e-01,1.688896894454956055e+00,4.616012614910171563e-01,0.000000000000000000e+00,1.120000000000000000e+02
0.000000000000000000e+00,0.000000000000000000e+00,1.000000000000000000e+00,4.500000000000000000e+01,4.682000000000000000e+03,2.623629570007324219e-01,1.954591989517211914e+00,6.993099209811379779e-01,1.000000000000000000e+00,1.110000000000000000e+02
1.000000000000000000e+00,1.000000000000000000e+00,1.000000000000000000e+00,6.300000000000000000e+01,4.745000000000000000e+03,2.827329635620117188e-01,1.677068948745727539e+00,3.934287733125578224e-01,0.000000000000000000e+00,1.110000000000000000e+02
0.000000000000000000e+00,1.000000000000000000e+00,0.000000000000000000e+00,6.200000000000000000e+01,4.807000000000000000e+03,2.490999698638916016e-01,1.664896965026855469e+00,4.249957546518403628e-01,0.000000000000000000e+00,1.110000000000000000e+02
0.000000000000000000e+00,1.000000000000000000e+00,0.000000000000000000e+00,5.600000000000000000e+01,4.863000000000000000e+03,2.585620880126953125e-01,1.927309989929199219e+00,6.854363311997095920e-01,0.000000000000000000e+00,1.110000000000000000e+02
1.000000000000000000e+00,1.000000000000000000e+00,1.000000000000000000e+00,5.700000000000000000e+01,4.920000000000000000e+03,2.872450351715087891e-01,1.769816160202026367e+00,4.888706153446437663e-01,0.000000000000000000e+00,1.110000000000000000e+02
0.000000000000000000e+00,1.000000000000000000e+00,0.000000000000000000e+00,5.700000000000000000e+01,4.977000000000000000e+03,2.556359767913818359e-01,1.688402891159057617e+00,4.440420363930927539e-01,0.000000000000000000e+00,1.110000000000000000e+02
0.000000000000000000e+00,1.000000000000000000e+00,0.000000000000000000e+00,5.900000000000000000e+01,5.036000000000000000e+03,2.694261074066162109e-01,1.965279102325439453e+00,7.090846749755298495e-01,0.000000000000000000e+00,1.110000000000000000e+02
0.000000000000000000e+00,1.000000000000000000e+00,0.000000000000000000e+00,6.000000000000000000e+01,5.096000000000000000e+03,2.897529602050781250e-01,1.948716878890991211e+00,6.746401068921328292e-01,0.000000000000000000e+00,1.110000000000000000e+02
1.000000000000000000e+00,1.000000000000000000e+00,1.000000000000000000e+00,6.400000000000000000e+01,5.160000000000000000e+03,2.388842105865478516e-01,1.572099924087524414e+00,3.471191676949174632e-01,0.000000000000000000e+00,1.110000000000000000e+02
1.000000000000000000e+00,1.000000000000000000e+00,1.000000000000000000e+00,6.000000000000000000e+01,5.220000000000000000e+03,2.872338294982910156e-01,1.850116014480590820e+00,5.803788485167513667e-01,0.000000000000000000e+00,1.110000000000000000e+02
0.000000000000000000e+00,1.000000000000000000e+00,0.000000000000000000e+00,5.700000000000000000e+01,5.277000000000000000e+03,2.562651634216308594e-01,1.609616994857788086e+00,3.735722460933846856e-01,0.000000000000000000e+00,1.110000000000000000e+02
1.000000000000000000e+00,1.000000000000000000e+00,1.000000000000000000e+00,5.600000000000000000e+01,5.333000000000000000e+03,2.517929077148437500e-01,1.986088037490844727e+00,7.426316159403847372e-01,0.000000000000000000e+00,1.110000000000000000e+02
0.000000000000000000e+00,1.000000000000000000e+00,0.000000000000000000e+00,5.500000000000000000e+01,5.388000000000000000e+03,3.054881095886230469e-01,2.033520936965942383e+00,7.429046886807471051e-01,0.000000000000000000e+00,1.110000000000000000e+02
1.000000000000000000e+00,1.000000000000000000e+00,1.000000000000000000e+00,6.100000000000000000e+01,5.449000000000000000e+03,2.961738109588623047e-01,1.652763128280639648e+00,3.628130594272530596e-01,0.000000000000000000e+00,1.110000000000000000e+02
1.000000000000000000e+00,1.000000000000000000e+00,1.000000000000000000e+00,6.100000000000000000e+01,5.510000000000000000e+03,2.892100811004638672e-01,1.683357954025268555e+00,4.128691722024150357e-01,0.000000000000000000e+00,1.110000000000000000e+02
1.000000000000000000e+00,1.000000000000000000e+00,1.000000000000000000e+00,5.700000000000000000e+01,5.567000000000000000e+03,3.309059143066406250e-01,1.577749967575073242e+00,2.575069162531523070e-01,0.000000000000000000e+00,1.110000000000000000e+02
0.000000000000000000e+00,1.000000000000000000e+00,0.000000000000000000e+00,6.000000000000000000e+01,5.627000000000000000e+03,3.196318149566650391e-01,1.945217132568359375e+00,6.356809081352001733e-01,0.000000000000000000e+00,1.110000000000000000e+02
1.000000000000000000e+00,1.000000000000000000e+00,1.000000000000000000e+00,5.400000000000000000e+01,5.681000000000000000e+03,2.396788597106933594e-01,1.902956962585449219e+00,6.720409793177588575e-01,0.000000000000000000e+00,1.110000000000000000e+02
0.000000000000000000e+00,1.000000000000000000e+00,0.000000000000000000e+00,6.000000000000000000e+01,5.741000000000000000e+03,3.117501735687255859e-01,2.024922132492065430e+00,7.135984921116393931e-01,0.000000000000000000e+00,1.110000000000000000e+02
0.000000000000000000e+00,1.000000000000000000e+00,0.000000000000000000e+00,6.000000000000000000e+01,5.801000000000000000e+03,3.061301708221435547e-01,2.000746011734008789e+00,7.144826197859578398e-01,0.000000000000000000e+00,1.110000000000000000e+02
1.000000000000000000e+00,1.000000000000000000e+00,1.000000000000000000e+00,5.700000000000000000e+01,5.858000000000000000e+03,2.522990703582763672e-01,1.728893995285034180e+00,4.936224815282763134e-01,0.000000000000000000e+00,1.110000000000000000e+02
1.000000000000000000e+00,1.000000000000000000e+00,1.000000000000000000e+00,5.300000000000000000e+01,5.911000000000000000e+03,2.599780559539794922e-01,1.512975931167602539e+00,2.735640100754935244e-01,0.000000000000000000e+00,1.110000000000000000e+02
1.000000000000000000e+00,1.000000000000000000e+00,1.000000000000000000e+00,5.600000000000000000e+01,5.967000000000000000e+03,2.934010028839111328e-01,1.699501037597656250e+00,4.229633413901090488e-01,0.000000000000000000e+00,1.110000000000000000e+02
0.000000000000000000e+00,1.000000000000000000e+00,0.000000000000000000e+00,5.500000000000000000e+01,6.022000000000000000e+03,3.094360828399658203e-01,1.545917987823486328e+00,2.524456764552152621e-01,0.000000000000000000e+00,1.110000000000000000e+02
0.000000000000000000e+00,1.000000000000000000e+00,0.000000000000000000e+00,6.900000000000000000e+01,6.091000000000000000e+03,2.464771270751953125e-01,1.721822023391723633e+00,4.741212297760643568e-01,0.000000000000000000e+00,1.110000000000000000e+02
1.000000000000000000e+00,1.000000000000000000e+00,1.000000000000000000e+00,5.900000000000000000e+01,6.150000000000000000e+03,2.848439216613769531e-01,1.923764228820800781e+00,6.477130473930041710e-01,0.000000000000000000e+00,1.110000000000000000e+02
0.000000000000000000e+00,1.000000000000000000e+00,0.000000000000000000e+00,6.200000000000000000e+01,6.212000000000000000e+03,2.382478713989257812e-01,1.553910970687866211e+00,3.353680675579961412e-01,0.000000000000000000e+00,1.110000000000000000e+02
0.000000000000000000e+00,1.000000000000000000e+00,0.000000000000000000e+00,6.900000000000000000e+01,6.281000000000000000e+03,3.036630153656005859e-01,1.961684942245483398e+00,6.634545139270351388e-01,0.000000000000000000e+00,1.110000000000000000e+02
1.000000000000000000e+00,1.000000000000000000e+00,1.000000000000000000e+00,5.600000000000000000e+01,6.337000000000000000e+03,2.326149940490722656e-01,1.580367088317871094e+00,3.608442226544373299e-01,0.000000000000000000e+00,1.110000000000000000e+02
0.000000000000000000e+00,1.000000000000000000e+00,0.000000000000000000e+00,6.200000000000000000e+01,6.399000000000000000e+03,2.654809951782226562e-01,1.667599916458129883e+00,4.117816969258987769e-01,0.000000000000000000e+00,1.110000000000000000e+02
1.000000000000000000e+00,1.000000000000000000e+00,1.000000000000000000e+00,5.900000000000000000e+01,6.458000000000000000e+03,2.569310665130615234e-01,1.587473154067993164e+00,3.493727838082838488e-01,0.000000000000000000e+00,1.110000000000000000e+02
0.000000000000000000e+00,1.000000000000000000e+00,0.000000000000000000e+00,5.600000000000000000e+01,6.514000000000000000e+03,2.358369827270507812e-01,1.685483932495117188e+00,4.514671223983464099e-01,0.000000000000000000e+00,1.110000000000000000e+02
0.000000000000000000e+00,1.000000000000000000e+00,0.000000000000000000e+00,6.100000000000000000e+01,6.575000000000000000e+03,2.866017818450927734e-01,1.775232076644897461e+00,4.933669953893270455e-01,0.000000000000000000e+00,1.110000000000000000e+02
1.000000000000000000e+00,1.000000000000000000e+00,1.000000000000000000e+00,5.900000000000000000e+01,6.634000000000000000e+03,2.230701446533203125e-01,1.468118906021118164e+00,2.617853912796345162e-01,0.000000000000000000e+00,1.110000000000000000e+02
0.000000000000000000e+00,1.000000000000000000e+00,0.000000000000000000e+00,5.900000000000000000e+01,6.693000000000000000e+03,2.653858661651611328e-01,1.888231039047241211e+00,6.330143053046977109e-01,0.000000000000000000e+00,1.110000000000000000e+02
1.000000000000000000e+00,1.000000000000000000e+00,1.000000000000000000e+00,6.100000000000000000e+01,6.754000000000000000e+03,2.664320468902587891e-01,1.695683956146240234e+00,4.289644866092017783e-01,0.000000000000000000e+00,1.110000000000000000e+02
1.000000000000000000e+00,1.000000000000000000e+00,1.000000000000000000e+00,5.700000000000000000e+01,6.811000000000000000e+03,2.971999645233154297e-01,1.664168119430541992e+00,3.766042552311064662e-01,0.000000000000000000e+00,1.110000000000000000e+02
1.000000000000000000e+00,1.000000000000000000e+00,1.000000000000000000e+00,5.700000000000000000e+01,6.868000000000000000e+03,2.945699691772460938e-01,1.635102033615112305e+00,3.617695195014755116e-01,0.000000000000000000e+00,1.110000000000000000e+02
0.000000000000000000e+00,1.000000000000000000e+00,0.000000000000000000e+00,6.300000000000000000e+01,6.931000000000000000e+03,2.672579288482666016e-01,1.711502075195312500e+00,4.565569307959387313e-01,0.000000000000000000e+00,1.110000000000000000e+02
1.000000000000000000e+00,1.000000000000000000e+00,1.000000000000000000e+00,6.100000000000000000e+01,6.992000000000000000e+03,2.546949386596679688e-01,1.982177019119262695e+00,7.384664128813513972e-01,0.000000000000000000e+00,1.110000000000000000e+02
1.000000000000000000e+00,1.000000000000000000e+00,1.000000000000000000e+00,6.300000000000000000e+01,7.055000000000000000e+03,2.993922233581542969e-01,1.880548954010009766e+00,5.859553307898546226e-01,0.000000000000000000e+00,1.110000000000000000e+02
0.000000000000000000e+00,1.000000000000000000e+00,0.000000000000000000e+00,5.700000000000000000e+01,7.112000000000000000e+03,2.761890888214111328e-01,1.830922126770019531e+00,5.669533255072973787e-01,0.000000000000000000e+00,1.110000000000000000e+02
1.000000000000000000e+00,1.000000000000000000e+00,1.000000000000000000e+00,5.400000000000000000e+01,7.166000000000000000e+03,2.868487834930419922e-01,1.898779869079589844e+00,6.157600188521120677e-01,0.000000000000000000e+00,1.110000000000000000e+02
0.000000000000000000e+00,1.000000000000000000e+00,0.000000000000000000e+00,6.400000000000000000e+01,7.230000000000000000e+03,2.659251689910888672e-01,1.634180068969726562e+00,3.669271772810638876e-01,0.000000000000000000e+00,1.110000000000000000e+02
1.000000000000000000e+00,1.000000000000000000e+00,1.000000000000000000e+00,6.000000000000000000e+01,7.290000000000000000e+03,3.486580848693847656e-01,2.014664173126220703e+00,6.646519808734310253e-01,0.000000000000000000e+00,1.110000000000000000e+02
1.000000000000000000e+00,1.000000000000000000e+00,1.000000000000000000e+00,5.400000000000000000e+01,7.344000000000000000e+03,2.068738937377929688e-01,1.521252870559692383e+00,3.363284981319642486e-01,0.000000000000000000e+00,1.110000000000000000e+02
1.000000000000000000e+00,1.000000000000000000e+00,1.000000000000000000e+00,6.200000000000000000e+01,7.406000000000000000e+03,3.204319477081298828e-01,1.753300189971923828e+00,4.395632143339756048e-01,0.000000000000000000e+00,1.110000000000000000e+02
1.000000000000000000e+00,1.000000000000000000e+00,1.000000000000000000e+00,5.300000000000000000e+01,7.459000000000000000e+03,3.504800796508789062e-01,1.847383022308349609e+00,5.036037673117115254e-01,0.000000000000000000e+00,1.110000000000000000e+02
1.000000000000000000e+00,1.000000000000000000e+00,1.000000000000000000e+00,5.600000000000000000e+01,7.515000000000000000e+03,3.046979904174804688e-01,1.670209884643554688e+00,3.740200907392974838e-01,0.000000000000000000e+00,1.110000000000000000e+02
0.000000000000000000e+00,1.000000000000000000e+00,0.000000000000000000e+00,6.000000000000000000e+01,7.575000000000000000e+03,3.059298992156982422e-01,1.931632041931152344e+00,6.387867240233338073e-01,0.000000000000000000e+00,1.110000000000000000e+02
1.000000000000000000e+00,1.000000000000000000e+00,1.000000000000000000e+00,6.000000000000000000e+01,7.635000000000000000e+03,2.716658115386962891e-01,1.961719036102294922e+00,7.004935870695903066e-01,0.000000000000000000e+00,1.110000000000000000e+02
1.000000000000000000e+00,1.000000000000000000e+00,1.000000000000000000e+00,5.900000000000000000e+01,7.694000000000000000e+03,2.960748672485351562e-01,1.988098144531250000e+00,6.886823109402993026e-01,0.000000000000000000e+00,1.110000000000000000e+02
0.000000000000000000e+00,1.000000000000000000e+00,0.000000000000000000e+00,5.400000000000000000e+01,7.748000000000000000e+03,2.698969841003417969e-01,1.983592033386230469e+00,7.222829996443007605e-01,0.000000000000000000e+00,1.110000000000000000e+02
0.000000000000000000e+00,1.000000000000000000e+00,0.000000000000000000e+00,6.100000000000000000e+01,7.809000000000000000e+03,3.025629520416259766e-01,1.870427846908569336e+00,5.762751760834804449e-01,0.000000000000000000e+00,1.110000000000000000e+02
1.000000000000000000e+00,1.000000000000000000e+00,1.000000000000000000e+00,5.600000000000000000e+01,7.865000000000000000e+03,2.789549827575683594e-01,1.919113159179687500e+00,6.453780087306707491e-01,0.000000000000000000e+00,1.110000000000000000e+02
0.000000000000000000e+00,1.000000000000000000e+00,0.000000000000000000e+00,5.700000000000000000e+01,7.922000000000000000e+03,2.723510265350341797e-01,1.945394992828369141e+00,6.908172574988753478e-01,0.000000000000000000e+00,1.110000000000000000e+02
0.000000000000000000e+00,1.000000000000000000e+00,0.000000000000000000e+00,5.600000000000000000e+01,7.978000000000000000e+03,3.654580116271972656e-01,2.047766923904418945e+00,6.886479451925865414e-01,0.000000000000000000e+00,1.110000000000000000e+02
0.000000000000000000e+00,1.000000000000000000e+00,0.000000000000000000e+00,6.100000000000000000e+01,8.039000000000000000e+03,2.654640674591064453e-01,1.589125156402587891e+00,3.282103759681727628e-01,0.000000000000000000e+00,1.110000000000000000e+02
0.000000000000000000e+00,1.000000000000000000e+00,0.000000000000000000e+00,6.100000000000000000e+01,8.100000000000000000e+03,2.762010097503662109e-01,1.686591863632202148e+00,4.313989486893134440e-01,0.000000000000000000e+00,1.110000000000000000e+02
1.000000000000000000e+00,1.000000000000000000e+00,1.000000000000000000e+00,5.500000000000000000e+01,8.155000000000000000e+03,2.809638977050781250e-01,1.842861175537109375e+00,5.741620914517491236e-01,0.000000000000000000e+00,1.110000000000000000e+02
0.000000000000000000e+00,1.000000000000000000e+00,0.000000000000000000e+00,5.900000000000000000e+01,8.214000000000000000e+03,2.729690074920654297e-01,1.853739023208618164e+00,5.946419482444531557e-01,0.000000000000000000e+00,1.110000000000000000e+02
1.000000000000000000e+00,1.000000000000000000e+00,1.000000000000000000e+00,5.600000000000000000e+01,8.270000000000000000e+03,3.349249362945556641e-01,2.067538022994995117e+00,7.454204126150973941e-01,0.000000000000000000e+00,1.110000000000000000e+02
1.000000000000000000e+00,1.000000000000000000e+00,1.000000000000000000e+00,5.600000000000000000e+01,8.326000000000000000e+03,3.214561939239501953e-01,1.578032970428466797e+00,2.739987983897722024e-01,0.000000000000000000e+00,1.110000000000000000e+02
1.000000000000000000e+00,1.000000000000000000e+00,1.000000000000000000e+00,5.600000000000000000e+01,8.382000000000000000e+03,4.082529544830322266e-01,2.071247100830078125e+00,6.782128755565173250e-01,0.000000000000000000e+00,1.110000000000000000e+02
0.000000000000000000e+00,1.000000000000000000e+00,0.000000000000000000e+00,6.200000000000000000e+01,8.444000000000000000e+03,2.916469573974609375e-01,1.685678958892822266e+00,4.142520102137692284e-01,0.000000000000000000e+00,1.110000000000000000e+02
0.000000000000000000e+00,1.000000000000000000e+00,0.000000000000000000e+00,5.700000000000000000e+01,8.501000000000000000e+03,2.893440723419189453e-01,1.844973087310791016e+00,5.757965317096844782e-01,0.000000000000000000e+00,1.110000000000000000e+02
0.000000000000000000e+00,1.000000000000000000e+00,0.000000000000000000e+00,6.000000000000000000e+01,8.561000000000000000e+03,3.574109077453613281e-01,1.664927005767822266e+00,3.243664667562827786e-01,0.000000000000000000e+00,1.110000000000000000e+02
0.000000000000000000e+00,1.000000000000000000e+00,0.000000000000000000e+00,5.600000000000000000e+01,8.617000000000000000e+03,2.437980175018310547e-01,1.910645961761474609e+00,6.846882372794121929e-01,0.000000000000000000e+00,1.110000000000000000e+02
1.000000000000000000e+00,1.000000000000000000e+00,1.000000000000000000e+00,6.100000000000000000e+01,8.678000000000000000e+03,2.692110538482666016e-01,1.733386993408203125e+00,4.683724308978019502e-01,0.000000000000000000e+00,1.110000000000000000e+02
1.000000000000000000e+00,1.000000000000000000e+00,1.000000000000000000e+00,6.000000000000000000e+01,8.738000000000000000e+03,2.669360637664794922e-01,1.605634927749633789e+00,3.408697742581272006e-01,0.000000000000000000e+00,1.110000000000000000e+02
0.000000000000000000e+00,1.000000000000000000e+00,0.000000000000000000e+00,6.200000000000000000e+01,8.800000000000000000e+03,3.449850082397460938e-01,2.043698072433471680e+00,7.009101189245035002e-01,0.000000000000000000e+00,1.110000000000000000e+02
0.000000000000000000e+00,1.000000000000000000e+00,0.000000000000000000e+00,6.000000000000000000e+01,8.860000000000000000e+03,3.300659656524658203e-01,2.031785011291503906e+00,6.994464113310343567e-01,0.000000000000000000e+00,1.110000000000000000e+02
1.000000000000000000e+00,1.000000000000000000e+00,1.000000000000000000e+00,5.300000000000000000e+01,8.913000000000000000e+03,2.377510070800781250e-01,1.532939910888671875e+00,2.995299466904136065e-01,0.000000000000000000e+00,1.110000000000000000e+02
1.000000000000000000e+00,1.000000000000000000e+00,1.000000000000000000e+00,6.000000000000000000e+01,8.973000000000000000e+03,3.115479946136474609e-01,2.005062103271484375e+00,6.875513170436277077e-01,0.000000000000000000e+00,1.110000000000000000e+02
1.000000000000000000e+00,1.000000000000000000e+00,1.000000000000000000e+00,6.400000000000000000e+01,9.037000000000000000e+03,2.895529270172119141e-01,1.614175081253051758e+00,3.355064120367920455e-01,0.000000000000000000e+00,1.110000000000000000e+02
1.000000000000000000e+00,1.000000000000000000e+00,1.000000000000000000e+00,6.900000000000000000e+01,9.106000000000000000e+03,2.959480285644531250e-01,1.648812055587768555e+00,3.510264089310752844e-01,0.000000000000000000e+00,1.110000000000000000e+02
1.000000000000000000e+00,1.000000000000000000e+00,1.000000000000000000e+00,5.700000000000000000e+01,9.163000000000000000e+03,3.020839691162109375e-01,1.573111057281494141e+00,2.742893960560464084e-01,0.000000000000000000e+00,1.110000000000000000e+02
0.000000000000000000e+00,1.000000000000000000e+00,0.000000000000000000e+00,5.700000000000000000e+01,9.220000000000000000e+03,2.714009284973144531e-01,1.789040803909301758e+00,5.297656104841406144e-01,0.000000000000000000e+00,1.110000000000000000e+02
1.000000000000000000e+00,1.000000000000000000e+00,1.000000000000000000e+00,5.700000000000000000e+01,9.277000000000000000e+03,2.081220149993896484e-01,1.762681007385253906e+00,5.757858882293498404e-01,0.000000000000000000e+00,1.110000000000000000e+02
1.000000000000000000e+00,1.000000000000000000e+00,1.000000000000000000e+00,6.000000000000000000e+01,9.337000000000000000e+03,3.085150718688964844e-01,1.982778787612915039e+00,6.918603295494258898e-01,0.000000000000000000e+00,1.110000000000000000e+02
1.000000000000000000e+00,1.000000000000000000e+00,1.000000000000000000e+00,6.300000000000000000e+01,9.400000000000000000e+03,3.452980518341064453e-01,2.066788911819458008e+00,7.253367995848962746e-01,0.000000000000000000e+00,1.110000000000000000e+02
0.000000000000000000e+00,1.000000000000000000e+00,0.000000000000000000e+00,5.500000000000000000e+01,9.455000000000000000e+03,2.686569690704345703e-01,1.936562061309814453e+00,6.786966356277106538e-01,0.000000000000000000e+00,1.110000000000000000e+02
1.000000000000000000e+00,1.000000000000000000e+00,1.000000000000000000e+00,6.200000000000000000e+01,9.517000000000000000e+03,2.334260940551757812e-01,1.485333919525146484e+00,2.645295785481124318e-01,0.000000000000000000e+00,1.110000000000000000e+02
0.000000000000000000e+00,0.000000000000000000e+00,1.000000000000000000e+00,4.100000000000000000e+01,9.558000000000000000e+03,3.560659885406494141e-01,1.907980203628540039e+00,5.721979157343251021e-01,0.000000000000000000e+00,1.110000000000000000e+02
1.000000000000000000e+00,1.000000000000000000e+00,1.000000000000000000e+00,5.500000000000000000e+01,9.613000000000000000e+03,3.146159648895263672e-01,1.831331014633178711e+00,5.203394103277951821e-01,0.000000000000000000e+00,1.110000000000000000e+02
0.000000000000000000e+00,1.000000000000000000e+00,0.000000000000000000e+00,6.400000000000000000e+01,9.677000000000000000e+03,2.901899814605712891e-01,1.694413900375366211e+00,4.149345111619968107e-01,0.000000000000000000e+00,1.110000000000000000e+02
0.000000000000000000e+00,1.000000000000000000e+00,0.000000000000000000e+00,5.700000000000000000e+01,9.734000000000000000e+03,3.140199184417724609e-01,1.707094907760620117e+00,4.054142513319229368e-01,0.000000000000000000e+00,1.110000000000000000e+02
1.000000000000000000e+00,1.000000000000000000e+00,1.000000000000000000e+00,5.600000000000000000e+01,9.790000000000000000e+03,2.683460712432861328e-01,1.719699144363403320e+00,4.584622292583602765e-01,0.000000000000000000e+00,1.110000000000000000e+02
1.000000000000000000e+00,0.000000000000000000e+00,0.000000000000000000e+00,3.800000000000000000e+01,9.828000000000000000e+03,2.538568973541259766e-01,1.914516925811767578e+00,6.727993304573687272e-01,1.000000000000000000e+00,1.120000000000000000e+02
1.000000000000000000e+00,1.000000000000000000e+00,1.000000000000000000e+00,6.400000000000000000e+01,9.892000000000000000e+03,2.782499790191650391e-01,1.966464042663574219e+00,6.893488835673790005e-01,0.000000000000000000e+00,1.120000000000000000e+02
0.000000000000000000e+00,1.000000000000000000e+00,0.000000000000000000e+00,6.100000000000000000e+01,9.953000000000000000e+03,2.662899494171142578e-01,1.978260040283203125e+00,7.176158753929471334e-01,0.000000000000000000e+00,1.120000000000000000e+02
0.000000000000000000e+00,1.000000000000000000e+00,0.000000000000000000e+00,6.900000000000000000e+01,1.002200000000000000e+04,3.282980918884277344e-01,1.790133953094482422e+00,4.580877668806485614e-01,0.000000000000000000e+00,1.120000000000000000e+02
0.000000000000000000e+00,1.000000000000000000e+00,0.000000000000000000e+00,5.700000000000000000e+01,1.007900000000000000e+04,2.570288181304931641e-01,1.956740140914916992e+00,7.146094426901676844e-01,0.000000000000000000e+00,1.120000000000000000e+02
0.000000000000000000e+00,1.000000000000000000e+00,0.000000000000000000e+00,5.900000000000000000e+01,1.013800000000000000e+04,2.821149826049804688e-01,1.692528963088989258e+00,4.241837112201268245e-01,0.000000000000000000e+00,1.120000000000000000e+02
1.000000000000000000e+00,1.000000000000000000e+00,1.000000000000000000e+00,6.700000000000000000e+01,1.020500000000000000e+04,4.911580085754394531e-01,1.959647893905639648e+00,4.838320093580881776e-01,0.000000000000000000e+00,1.120000000000000000e+02
1.000000000000000000e+00,1.000000000000000000e+00,1.000000000000000000e+00,6.000000000000000000e+01,1.026500000000000000e+04,2.445509433746337891e-01,1.983438014984130859e+00,7.337307497323409811e-01,0.000000000000000000e+00,1.120000000000000000e+02
0.000000000000000000e+00,1.000000000000000000e+00,0.000000000000000000e+00,6.200000000000000000e+01,1.032700000000000000e+04,3.053169250488281250e-01,1.860813856124877930e+00,5.614694924267460419e-01,0.000000000000000000e+00,1.120000000000000000e+02
1.000000000000000000e+00,1.000000000000000000e+00,1.000000000000000000e+00,6.800000000000000000e+01,1.039500000000000000e+04,3.863680362701416016e-01,1.880553960800170898e+00,5.088332401417983153e-01,0.000000000000000000e+00,1.120000000000000000e+02
1.000000000000000000e+00,1.000000000000000000e+00,1.000000000000000000e+00,6.100000000000000000e+01,1.045600000000000000e+04,4.211590290069580078e-01,1.746805906295776367e+00,3.391966497537932113e-01,0.000000000000000000e+00,1.120000000000000000e+02
1.000000000000000000e+00,1.000000000000000000e+00,1.000000000000000000e+00,6.200000000000000000e+01,1.051800000000000000e+04,2.730829715728759766e-01,1.759199142456054688e+00,4.982927945131494507e-01,0.000000000000000000e+00,1.120000000000000000e+02
1.000000000000000000e+00,1.000000000000000000e+00,1.000000000000000000e+00,6.400000000000000000e+01,1.058200000000000000e+04,2.872200012207031250e-01,1.626150846481323242e+00,3.579911039651359483e-01,0.000000000000000000e+00,1.120000000000000000e+02
0.000000000000000000e+00,1.000000000000000000e+00,0.000000000000000000e+00,6.400000000000000000e+01,1.064600000000000000e+04,3.100600242614746094e-01,1.636578083038330078e+00,3.446299360500547637e-01,0.000000000000000000e+00,1.120000000000000000e+02
0.000000000000000000e+00,1.000000000000000000e+00,0.000000000000000000e+00,6.400000000000000000e+01,1.071000000000000000e+04,2.836570739746093750e-01,1.864417076110839844e+00,5.921717731451012767e-01,0.000000000000000000e+00,1.120000000000000000e+02
1.000000000000000000e+00,1.000000000000000000e+00,1.000000000000000000e+00,6.100000000000000000e+01,1.077100000000000000e+04,2.440440654754638672e-01,1.822423934936523438e+00,5.647167872094800423e-01,0.000000000000000000e+00,1.120000000000000000e+02
0.000000000000000000e+00,1.000000000000000000e+00,0.000000000000000000e+00,6.100000000000000000e+01,1.083200000000000000e+04,2.944328784942626953e-01,1.920112848281860352e+00,6.514286132635428439e-01,0.000000000000000000e+00,1.120000000000000000e+02
1.000000000000000000e+00,0.000000000000000000e+00,0.000000000000000000e+00,3.900000000000000000e+01,1.087100000000000000e+04,3.111839294433593750e-01,1.778710126876831055e+00,4.637403729125117446e-01,0.000000000000000000e+00,1.120000000000000000e+02
1.000000000000000000e+00,1.000000000000000000e+00,1.000000000000000000e+00,6.500000000000000000e+01,1.093600000000000000e+04,3.105940818786621094e-01,1.715911865234375000e+00,4.131254874973000479e-01,0.000000000000000000e+00,1.120000000000000000e+02
1.000000000000000000e+00,1.000000000000000000e+00,1.000000000000000000e+00,6.800000000000000000e+01,1.100400000000000000e+04,3.229968547821044922e-01,2.006313085556030273e+00,7.025002163914717546e-01,0.000000000000000000e+00,1.120000000000000000e+02
0.000000000000000000e+00,1.000000000000000000e+00,0.000000000000000000e+00,6.700000000000000000e+01,1.107100000000000000e+04,2.684509754180908203e-01,1.700441122055053711e+00,4.365708053351909923e-01,0.000000000000000000e+00,1.120000000000000000e+02
0.000000000000000000e+00,1.000000000000000000e+00,0.000000000000000000e+00,5.600000000000000000e+01,1.112700000000000000e+04,2.864439487457275391e-01,1.763129949569702148e+00,4.830560916951248118e-01,0.000000000000000000e+00,1.120000000000000000e+02
0.000000000000000000e+00,1.000000000000000000e+00,0.000000000000000000e+00,6.000000000000000000e+01,1.118700000000000000e+04,2.547781467437744141e-01,1.760613203048706055e+00,5.103816335354580680e-01,0.000000000000000000e+00,1.120000000000000000e+02
0.000000000000000000e+00,1.000000000000000000e+00,0.000000000000000000e+00,6.100000000000000000e+01,1.124800000000000000e+04,2.518870830535888672e-01,1.807938814163208008e+00,5.683341870320568479e-01,0.000000000000000000e+00,1.120000000000000000e+02
1.000000000000000000e+00,1.000000000000000000e+00,1.000000000000000000e+00,5.600000000000000000e+01,1.130400000000000000e+04,3.472099304199218750e-01,1.659314155578613281e+00,3.113179957773003492e-01,0.000000000000000000e+00,1.120000000000000000e+02
0.000000000000000000e+00,1.000000000000000000e+00,0.000000000000000000e+00,7.000000000000000000e+01,1.137400000000000000e+04,2.703261375427246094e-01,1.917024850845336914e+00,6.613795134048646718e-01,0.000000000000000000e+00,1.120000000000000000e+02
0.000000000000000000e+00,1.000000000000000000e+00,0.000000000000000000e+00,5.600000000000000000e+01,1.143000000000000000e+04,3.326880931854248047e-01,1.985920906066894531e+00,6.640626902890802707e-01,0.000000000000000000e+00,1.120000000000000000e+02
0.000000000000000000e+00,1.000000000000000000e+00,0.000000000000000000e+00,5.900000000000000000e+01,1.148900000000000000e+04,2.794449329376220703e-01,1.602423906326293945e+00,3.335132909488376929e-01,0.000000000000000000e+00,1.120000000000000000e+02
0.000000000000000000e+00,1.000000000000000000e+00,0.000000000000000000e+00,6.500000000000000000e+01,1.155400000000000000e+04,3.188219070434570312e-01,1.609414815902709961e+00,2.930530570157025005e-01,0.000000000000000000e+00,1.120000000000000000e+02
1.000000000000000000e+00,1.000000000000000000e+00,1.000000000000000000e+00,6.700000000000000000e+01,1.162100000000000000e+04,3.509171009063720703e-01,2.041483163833618164e+00,7.008479559167639650e-01,0.000000000000000000e+00,1.120000000000000000e+02
0.000000000000000000e+00,1.000000000000000000e+00,0.000000000000000000e+00,6.100000000000000000e+01,1.168200000000000000e+04,2.569899559020996094e-01,1.564545869827270508e+00,3.158610089090255202e-01,0.000000000000000000e+00,1.120000000000000000e+02
1.000000000000000000e+00,1.000000000000000000e+00,1.000000000000000000e+00,6.300000000000000000e+01,1.174500000000000000e+04,2.975289821624755859e-01,1.704097032546997070e+00,4.032354299774207340e-01,0.000000000000000000e+00,1.120000000000000000e+02
0.000000000000000000e+00,1.000000000000000000e+00,0.000000000000000000e+00,6.100000000000000000e+01,1.180600000000000000e+04,2.984349727630615234e-01,1.720623016357421875e+00,4.239308586157032321e-01,0.000000000000000000e+00,1.120000000000000000e+02
1.000000000000000000e+00,1.000000000000000000e+00,1.000000000000000000e+00,6.400000000000000000e+01,1.187000000000000000e+04,3.149089813232421875e-01,1.847940921783447266e+00,5.384603268324460457e-01,0.000000000000000000e+00,1.120000000000000000e+02
1.000000000000000000e+00,1.000000000000000000e+00,1.000000000000000000e+00,5.600000000000000000e+01,1.192600000000000000e+04,2.949700355529785156e-01,1.798340082168579102e+00,5.035551217016295267e-01,0.000000000000000000e+00,1.120000000000000000e+02
0.000000000000000000e+00,1.000000000000000000e+00,0.000000000000000000e+00,6.200000000000000000e+01,1.198800000000000000e+04,2.629480361938476562e-01,1.807293891906738281e+00,5.441930134156796051e-01,0.000000000000000000e+00,1.120000000000000000e+02
1.000000000000000000e+00,1.000000000000000000e+00,1.000000000000000000e+00,6.200000000000000000e+01,1.205000000000000000e+04,2.409429550170898438e-01,1.858062982559204102e+00,6.355704950894616179e-01,0.000000000000000000e+00,1.120000000000000000e+02
0.000000000000000000e+00,1.000000000000000000e+00,0.000000000000000000e+00,6.600000000000000000e+01,1.211600000000000000e+04,3.105258941650390625e-01,2.055393218994140625e+00,7.408793990677207120e-01,0.000000000000000000e+00,1.120000000000000000e+02
1.000000000000000000e+00,1.000000000000000000e+00,1.000000000000000000e+00,6.200000000000000000e+01,1.217800000000000000e+04,2.765879631042480469e-01,2.010776996612548828e+00,7.351060562083100436e-01,0.000000000000000000e+00,1.120000000000000000e+02
1.000000000000000000e+00,1.000000000000000000e+00,1.000000000000000000e+00,6.000000000000000000e+01,1.223800000000000000e+04,2.728788852691650391e-01,1.860641956329345703e+00,5.959362000404373472e-01,0.000000000000000000e+00,1.120000000000000000e+02
0.000000000000000000e+00,1.000000000000000000e+00,0.000000000000000000e+00,6.500000000000000000e+01,1.230300000000000000e+04,2.699520587921142578e-01,1.920711040496826172e+00,6.666888717049086477e-01,0.000000000000000000e+00,1.120000000000000000e+02
0.000000000000000000e+00,1.000000000000000000e+00,0.000000000000000000e+00,6.300000000000000000e+01,1.236600000000000000e+04,3.216488361358642578e-01,1.833271980285644531e+00,5.168173593344196348e-01,0.000000000000000000e+00,1.120000000000000000e+02
1.000000000000000000e+00,1.000000000000000000e+00,1.000000000000000000e+00,6.000000000000000000e+01,1.242600000000000000e+04,3.084471225738525391e-01,1.721574068069458008e+00,4.219019213966735404e-01,0.000000000000000000e+00,1.120000000000000000e+02
1.000000000000000000e+00,1.000000000000000000e+00,1.000000000000000000e+00,6.200000000000000000e+01,1.248800000000000000e+04,3.178210258483886719e-01,1.948501110076904297e+00,6.369265224234594847e-01,0.000000000000000000e+00,1.120000000000000000e+02
0.000000000000000000e+00,1.000000000000000000e+00,0.000000000000000000e+00,5.700000000000000000e+01,1.254500000000000000e+04,2.809400558471679688e-01,1.656799077987670898e+00,3.773718073763565051e-01,0.000000000000000000e+00,1.120000000000000000e+02
1.000000000000000000e+00,1.000000000000000000e+00,1.000000000000000000e+00,5.700000000000000000e+01,1.260200000000000000e+04,2.350230216979980469e-01,1.693792819976806641e+00,4.711180431291681070e-01,0.000000000000000000e+00,1.120000000000000000e+02
1.000000000000000000e+00,1.000000000000000000e+00,1.000000000000000000e+00,6.200000000000000000e+01,1.266400000000000000e+04,3.669991493225097656e-01,2.002511024475097656e+00,6.401760475630153824e-01,0.000000000000000000e+00,1.120000000000000000e+02
0.000000000000000000e+00,1.000000000000000000e+00,0.000000000000000000e+00,7.100000000000000000e+01,1.273500000000000000e+04,3.350570201873779297e-01,2.002656936645507812e+00,6.761911655445391744e-01,0.000000000000000000e+00,1.120000000000000000e+02
1.000000000000000000e+00,1.000000000000000000e+00,1.000000000000000000e+00,6.300000000000000000e+01,1.279800000000000000e+04,2.571549415588378906e-01,1.733558893203735352e+00,4.933611139621046915e-01,0.000000000000000000e+00,1.120000000000000000e+02
1.000000000000000000e+00,1.000000000000000000e+00,1.000000000000000000e+00,6.100000000000000000e+01,1.285900000000000000e+04,3.019120693206787109e-01,1.825736045837402344e+00,5.357485865929509927e-01,0.000000000000000000e+00,1.120000000000000000e+02
1.000000000000000000e+00,1.000000000000000000e+00,1.000000000000000000e+00,6.700000000000000000e+01,1.292600000000000000e+04,3.745918273925781250e-01,1.729889154434204102e+00,3.659084411096308886e-01,0.000000000000000000e+00,1.120000000000000000e+02
0.000000000000000000e+00,1.000000000000000000e+00,0.000000000000000000e+00,5.700000000000000000e+01,1.298300000000000000e+04,3.433871269226074219e-01,2.061103105545043945e+00,7.100207653446215517e-01,0.000000000000000000e+00,1.120000000000000000e+02
1.000000000000000000e+00,0.000000000000000000e+00,0.000000000000000000e+00,3.500000000000000000e+01,1.301800000000000000e+04,2.744319438934326172e-01,1.636364936828613281e+00,3.801507324251998110e-01,0.000000000000000000e+00,1.120000000000000000e+02
1.000000000000000000e+00,1.000000000000000000e+00,1.000000000000000000e+00,5.600000000000000000e+01,1.307400000000000000e+04,3.051631450653076172e-01,1.598796129226684570e+00,3.124004277072666147e-01,0.000000000000000000e+00,1.120000000000000000e+02
1.000000000000000000e+00,1.000000000000000000e+00,1.000000000000000000e+00,7.000000000000000000e+01,1.314400000000000000e+04,3.292579650878906250e-01,1.838635921478271484e+00,5.175300615171858354e-01,0.000000000000000000e+00,1.120000000000000000e+02
0.000000000000000000e+00,1.000000000000000000e+00,0.000000000000000000e+00,5.700000000000000000e+01,1.320100000000000000e+04,2.811751365661621094e-01,1.977370023727416992e+00,6.948048384142408995e-01,0.000000000000000000e+00,1.120000000000000000e+02
0.000000000000000000e+00,0.000000000000000000e+00,1.000000000000000000e+00,4.300000000000000000e+01,1.324400000000000000e+04,2.787129878997802734e-01,1.633491992950439453e+00,3.620413385782248472e-01,0.000000000000000000e+00,1.120000000000000000e+02
1.000000000000000000e+00,1.000000000000000000e+00,1.000000000000000000e+00,6.000000000000000000e+01,1.330400000000000000e+04,2.923200130462646484e-01,1.944637775421142578e+00,6.730426407563089297e-01,0.000000000000000000e+00,1.120000000000000000e+02
0.000000000000000000e+00,0.000000000000000000e+00,1.000000000000000000e+00,3.800000000000000000e+01,1.334200000000000000e+04,2.823638916015625000e-01,1.648317098617553711e+00,3.717619715233218547e-01,0.000000000000000000e+00,1.120000000000000000e+02
0.000000000000000000e+00,1.000000000000000000e+00,0.000000000000000000e+00,6.900000000000000000e+01,1.341100000000000000e+04,3.724439144134521484e-01,1.935113906860351562e+00,5.734179652060662491e-01,0.000000000000000000e+00,1.120000000000000000e+02
0.000000000000000000e+00,1.000000000000000000e+00,0.000000000000000000e+00,6.000000000000000000e+01,1.347100000000000000e+04,3.572821617126464844e-01,2.025444030761718750e+00,6.821487451871768304e-01,0.000000000000000000e+00,1.120000000000000000e+02
0.000000000000000000e+00,1.000000000000000000e+00,0.000000000000000000e+00,6.200000000000000000e+01,1.353300000000000000e+04,3.340198993682861328e-01,1.906571865081787109e+00,5.722343090806500943e-01,0.000000000000000000e+00,1.120000000000000000e+02
0.000000000000000000e+00,1.000000000000000000e+00,0.000000000000000000e+00,6.000000000000000000e+01,1.359300000000000000e+04,2.990870475769042969e-01,1.709970951080322266e+00,4.157720670310525724e-01,0.000000000000000000e+00,1.120000000000000000e+02
1.000000000000000000e+00,1.000000000000000000e+00,1.000000000000000000e+00,6.800000000000000000e+01,1.366100000000000000e+04,3.264200687408447266e-01,1.610772132873535156e+00,2.933624972261248409e-01,0.000000000000000000e+00,1.120000000000000000e+02
0.000000000000000000e+00,1.000000000000000000e+00,0.000000000000000000e+00,6.500000000000000000e+01,1.372600000000000000e+04,3.706340789794921875e-01,1.769827842712402344e+00,4.131209011124424846e-01,0.000000000000000000e+00,1.120000000000000000e+02
0.000000000000000000e+00,1.000000000000000000e+00,0.000000000000000000e+00,6.500000000000000000e+01,1.379100000000000000e+04,3.538420200347900391e-01,2.048485040664672852e+00,7.113480669897402908e-01,0.000000000000000000e+00,1.120000000000000000e+02
0.000000000000000000e+00,1.000000000000000000e+00,0.000000000000000000e+00,6.100000000000000000e+01,1.385200000000000000e+04,2.778980731964111328e-01,1.720091104507446289e+00,4.651120195180034611e-01,0.000000000000000000e+00,1.120000000000000000e+02
0.000000000000000000e+00,1.000000000000000000e+00,0.000000000000000000e+00,6.800000000000000000e+01,1.392000000000000000e+04,3.203580379486083984e-01,1.552752017974853516e+00,2.515141435929451608e-01,0.000000000000000000e+00,1.120000000000000000e+02
0.000000000000000000e+00,1.000000000000000000e+00,0.000000000000000000e+00,6.200000000000000000e+01,1.398200000000000000e+04,3.166830539703369141e-01,1.784495115280151367e+00,4.691181132938619935e-01,0.000000000000000000e+00,1.120000000000000000e+02
1.000000000000000000e+00,1.000000000000000000e+00,1.000000000000000000e+00,6.200000000000000000e+01,1.404400000000000000e+04,3.013601303100585938e-01,1.811378955841064453e+00,5.138124121041829362e-01,0.000000000000000000e+00,1.120000000000000000e+02
1.000000000000000000e+00,1.000000000000000000e+00,1.000000000000000000e+00,6.200000000000000000e+01,1.410600000000000000e+04,2.854089736938476562e-01,1.637484073638916016e+00,3.681903661909127767e-01,0.000000000000000000e+00,1.120000000000000000e+02
0.000000000000000000e+00,1.000000000000000000e+00,0.000000000000000000e+00,6.300000000000000000e+01,1.416900000000000000e+04,3.704631328582763672e-01,1.754894018173217773e+00,3.897830531037310142e-01,0.000000000000000000e+00,1.120000000000000000e+02
0.000000000000000000e+00,1.000000000000000000e+00,0.000000000000000000e+00,6.600000000000000000e+01,1.423500000000000000e+04,2.555332183837890625e-01,1.908991098403930664e+00,6.652373519556354919e-01,0.000000000000000000e+00,1.120000000000000000e+02
0.000000000000000000e+00,1.000000000000000000e+00,0.000000000000000000e+00,5.600000000000000000e+01,1.429100000000000000e+04,2.849569320678710938e-01,1.650592088699340820e+00,3.661532701887066366e-01,0.000000000000000000e+00,1.120000000000000000e+02
0.000000000000000000e+00,1.000000000000000000e+00,0.000000000000000000e+00,6.300000000000000000e+01,1.435400000000000000e+04,2.840051651000976562e-01,1.807471036911010742e+00,5.235275339333992362e-01,0.000000000000000000e+00,1.120000000000000000e+02
0.000000000000000000e+00,1.000000000000000000e+00,0.000000000000000000e+00,6.700000000000000000e+01,1.442100000000000000e+04,2.860670089721679688e-01,1.832609891891479492e+00,5.561857118558475310e-01,0.000000000000000000e+00,1.120000000000000000e+02
0.000000000000000000e+00,1.000000000000000000e+00,0.000000000000000000e+00,6.400000000000000000e+01,1.448500000000000000e+04,3.108420372009277344e-01,2.018808841705322266e+00,7.248726841319030889e-01,0.000000000000000000e+00,1.120000000000000000e+02
1.000000000000000000e+00,1.000000000000000000e+00,1.000000000000000000e+00,5.700000000000000000e+01,1.454200000000000000e+04,3.541750907897949219e-01,1.670817136764526367e+00,3.295076783486990957e-01,0.000000000000000000e+00,1.120000000000000000e+02
0.000000000000000000e+00,1.000000000000000000e+00,0.000000000000000000e+00,6.600000000000000000e+01,1.460800000000000000e+04,3.606970310211181641e-01,1.605259895324707031e+00,2.682354327778271874e-01,0.000000000000000000e+00,1.120000000000000000e+02
0.000000000000000000e+00,1.000000000000000000e+00,0.000000000000000000e+00,6.000000000000000000e+01,1.466800000000000000e+04,2.860739231109619141e-01,1.639283180236816406e+00,3.574696923735447562e-01,0.000000000000000000e+00,1.120000000000000000e+02
0.000000000000000000e+00,1.000000000000000000e+00,0.000000000000000000e+00,6.200000000000000000e+01,1.473000000000000000e+04,2.658009529113769531e-01,1.872786998748779297e+00,6.133863194424229448e-01,0.000000000000000000e+00,1.120000000000000000e+02
0.000000000000000000e+00,1.000000000000000000e+00,0.000000000000000000e+00,6.500000000000000000e+01,1.479500000000000000e+04,2.842350006103515625e-01,1.817583084106445312e+00,5.477440178986670016e-01,0.000000000000000000e+00,1.120000000000000000e+02
0.000000000000000000e+00,1.000000000000000000e+00,0.000000000000000000e+00,5.700000000000000000e+01,1.485200000000000000e+04,2.386322021484375000e-01,1.787238836288452148e+00,5.683481137109941406e-01,0.000000000000000000e+00,1.120000000000000000e+02
1.000000000000000000e+00,1.000000000000000000e+00,1.000000000000000000e+00,6.200000000000000000e+01,1.491400000000000000e+04,3.016529083251953125e-01,1.641318082809448242e+00,3.433532474920266142e-01,0.000000000000000000e+00,1.120000000000000000e+02
0.000000000000000000e+00,1.000000000000000000e+00,0.000000000000000000e+00,6.600000000000000000e+01,1.498000000000000000e+04,2.863800525665283203e-01,1.560758113861083984e+00,2.875413128012493380e-01,0.000000000000000000e+00,1.120000000000000000e+02
0.000000000000000000e+00,1.000000000000000000e+00,0.000000000000000000e+00,6.400000000000000000e+01,1.504400000000000000e+04,2.687978744506835938e-01,1.603010892868041992e+00,3.405377090974042176e-01,0.000000000000000000e+00,1.120000000000000000e+02
1.000000000000000000e+00,1.000000000000000000e+00,1.000000000000000000e+00,6.500000000000000000e+01,1.510900000000000000e+04,4.179289340972900391e-01,1.764389038085937500e+00,3.549670985906436260e-01,0.000000000000000000e+00,1.120000000000000000e+02
1.000000000000000000e+00,1.000000000000000000e+00,1.000000000000000000e+00,6.300000000000000000e+01,1.517200000000000000e+04,3.452589511871337891e-01,1.615729093551635742e+00,2.708528159696258486e-01,0.000000000000000000e+00,1.120000000000000000e+02
1.000000000000000000e+00,1.000000000000000000e+00,1.000000000000000000e+00,6.600000000000000000e+01,1.523800000000000000e+04,3.396308422088623047e-01,1.831675052642822266e+00,5.023296135018421316e-01,0.000000000000000000e+00,1.120000000000000000e+02
1.000000000000000000e+00,1.000000000000000000e+00,1.000000000000000000e+00,5.700000000000000000e+01,1.529500000000000000e+04,6.563818454742431641e-01,2.034049987792968750e+00,3.865772790150975857e-01,0.000000000000000000e+00,1.120000000000000000e+02
0.000000000000000000e+00,1.000000000000000000e+00,0.000000000000000000e+00,5.900000000000000000e+01,1.535400000000000000e+04,2.771310806274414062e-01,1.614259004592895508e+00,3.509320016301067380e-01,0.000000000000000000e+00,1.120000000000000000e+02
1.000000000000000000e+00,1.000000000000000000e+00,1.000000000000000000e+00,5.900000000000000000e+01,1.541300000000000000e+04,2.724251747131347656e-01,1.592337131500244141e+00,3.266843926163555678e-01,0.000000000000000000e+00,1.120000000000000000e+02
0.000000000000000000e+00,1.000000000000000000e+00,0.000000000000000000e+00,6.200000000000000000e+01,1.547500000000000000e+04,2.842371463775634766e-01,1.910893917083740234e+00,6.373419040339285413e-01,0.000000000000000000e+00,1.120000000000000000e+02
1.000000000000000000e+00,1.000000000000000000e+00,1.000000000000000000e+00,6.600000000000000000e+01,1.554100000000000000e+04,2.905960083007812500e-01,2.013885021209716797e+00,7.345276274509620063e-01,0.000000000000000000e+00,1.120000000000000000e+02
0.000000000000000000e+00,1.000000000000000000e+00,0.000000000000000000e+00,6.400000000000000000e+01,1.560500000000000000e+04,2.630248069763183594e-01,1.982806921005249023e+00,7.174231824237047306e-01,0.000000000000000000e+00,1.120000000000000000e+02
0.000000000000000000e+00,1.000000000000000000e+00,0.000000000000000000e+00,6.300000000000000000e+01,1.566800000000000000e+04,2.717559337615966797e-01,1.544672012329101562e+00,2.792654758434314211e-01,0.000000000000000000e+00,1.120000000000000000e+02
1.000000000000000000e+00,1.000000000000000000e+00,1.000000000000000000e+00,6.200000000000000000e+01,1.573000000000000000e+04,3.304309844970703125e-01,2.002036094665527344e+00,6.809318436997011670e-01,0.000000000000000000e+00,1.120000000000000000e+02
0.000000000000000000e+00,1.000000000000000000e+00,0.000000000000000000e+00,6.500000000000000000e+01,1.579500000000000000e+04,2.975189685821533203e-01,1.828020095825195312e+00,5.424787098470738034e-01,0.000000000000000000e+00,1.120000000000000000e+02
0.000000000000000000e+00,1.000000000000000000e+00,0.000000000000000000e+00,6.000000000000000000e+01,1.585500000000000000e+04,3.112769126892089844e-01,1.866124868392944336e+00,5.586604128991903284e-01,0.000000000000000000e+00,1.120000000000000000e+02
1.000000000000000000e+00,1.000000000000000000e+00,1.000000000000000000e+00,6.400000000000000000e+01,1.591900000000000000e+04,3.146870136260986328e-01,1.965748786926269531e+00,6.577084146178251434e-01,0.000000000000000000e+00,1.120000000000000000e+02
1.000000000000000000e+00,1.000000000000000000e+00,1.000000000000000000e+00,6.500000000000000000e+01,1.598400000000000000e+04,3.561038970947265625e-01,1.846331834793090820e+00,5.042593591860609070e-01,0.000000000000000000e+00,1.120000000000000000e+02
1.000000000000000000e+00,1.000000000000000000e+00,1.000000000000000000e+00,6.800000000000000000e+01,1.605200000000000000e+04,3.251202106475830078e-01,1.915727853775024414e+00,6.032749246450670455e-01,0.000000000000000000e+00,1.120000000000000000e+02
0.000000000000000000e+00,1.000000000000000000e+00,0.000000000000000000e+00,6.400000000000000000e+01,1.611600000000000000e+04,2.974841594696044922e-01,1.743926048278808594e+00,4.474346211223474423e-01,0.000000000000000000e+00,1.120000000000000000e+02
0.000000000000000000e+00,1.000000000000000000e+00,0.000000000000000000e+00,6.000000000000000000e+01,1.617600000000000000e+04,2.722358703613281250e-01,1.502429008483886719e+00,2.501246032142421805e-01,0.000000000000000000e+00,1.120000000000000000e+02
1.000000000000000000e+00,1.000000000000000000e+00,1.000000000000000000e+00,6.300000000000000000e+01,1.623900000000000000e+04,2.696230411529541016e-01,1.542809009552001953e+00,2.762993579219138462e-01,0.000000000000000000e+00,1.120000000000000000e+02
1.000000000000000000e+00,0.000000000000000000e+00,0.000000000000000000e+00,4.100000000000000000e+01,1.628000000000000000e+04,3.274140357971191406e-01,2.005465030670166016e+00,6.814002789035267238e-01,1.000000000000000000e+00,1.110000000000000000e+02
0.000000000000000000e+00,1.000000000000000000e+00,0.000000000000000000e+00,6.300000000000000000e+01,1.634300000000000000e+04,2.973859310150146484e-01,1.736114025115966797e+00,4.511360543341923490e-01,0.000000000000000000e+00,1.110000000000000000e+02
1.000000000000000000e+00,1.000000000000000000e+00,1.000000000000000000e+00,5.600000000000000000e+01,1.639900000000000000e+04,2.625148296356201172e-01,1.871373891830444336e+00,6.057782429958384895e-01,0.000000000000000000e+00,1.110000000000000000e+02
1.000000000000000000e+00,1.000000000000000000e+00,1.000000000000000000e+00,5.900000000000000000e+01,1.645800000000000000e+04,3.939070701599121094e-01,1.936489105224609375e+00,5.590816432023946181e-01,0.000000000000000000e+00,1.110000000000000000e+02
1.000000000000000000e+00,1.000000000000000000e+00,1.000000000000000000e+00,6.300000000000000000e+01,1.652100000000000000e+04,2.935788631439208984e-01,1.532871961593627930e+00,2.590133074610450614e-01,0.000000000000000000e+00,1.110000000000000000e+02
0.000000000000000000e+00,1.000000000000000000e+00,0.000000000000000000e+00,5.600000000000000000e+01,1.657700000000000000e+04,3.383159637451171875e-01,1.920058965682983398e+00,5.953903567179399392e-01,0.000000000000000000e+00,1.110000000000000000e+02
0.000000000000000000e+00,1.000000000000000000e+00,0.000000000000000000e+00,6.400000000000000000e+01,1.664100000000000000e+04,3.326780796051025391e-01,1.813091039657592773e+00,4.919882291488285042e-01,0.000000000000000000e+00,1.110000000000000000e+02
1.000000000000000000e+00,1.000000000000000000e+00,1.000000000000000000e+00,6.500000000000000000e+01,1.670600000000000000e+04,2.570970058441162109e-01,1.989517927169799805e+00,7.479544925036378800e-01,0.000000000000000000e+00,1.110000000000000000e+02
1.000000000000000000e+00,1.000000000000000000e+00,1.000000000000000000e+00,6.300000000000000000e+01,1.676900000000000000e+04,2.998390197753906250e-01,1.609838008880615234e+00,3.249727517815328426e-01,0.000000000000000000e+00,1.110000000000000000e+02
0.000000000000000000e+00,1.000000000000000000e+00,0.000000000000000000e+00,6.300000000000000000e+01,1.683200000000000000e+04,4.172348976135253906e-01,1.694489002227783203e+00,2.862235444574472987e-01,0.000000000000000000e+00,1.110000000000000000e+02
0.000000000000000000e+00,1.000000000000000000e+00,0.000000000000000000e+00,6.900000000000000000e+01,1.690100000000000000e+04,3.053159713745117188e-01,1.689396142959594727e+00,3.922082151264446037e-01,0.000000000000000000e+00,1.110000000000000000e+02
0.000000000000000000e+00,1.000000000000000000e+00,0.000000000000000000e+00,5.900000000000000000e+01,1.696000000000000000e+04,2.851381301879882812e-01,1.688320875167846680e+00,4.139323936294820316e-01,0.000000000000000000e+00,1.110000000000000000e+02
1.000000000000000000e+00,1.000000000000000000e+00,1.000000000000000000e+00,6.000000000000000000e+01,1.702000000000000000e+04,2.616970539093017578e-01,1.706308126449584961e+00,4.535552580264842759e-01,0.000000000000000000e+00,1.110000000000000000e+02
1.000000000000000000e+00,1.000000000000000000e+00,1.000000000000000000e+00,6.200000000000000000e+01,1.708200000000000000e+04,2.960329055786132812e-01,1.889745950698852539e+00,5.932284283764901467e-01,0.000000000000000000e+00,1.110000000000000000e+02
1.000000000000000000e+00,1.000000000000000000e+00,1.000000000000000000e+00,6.600000000000000000e+01,1.714800000000000000e+04,2.719960212707519531e-01,1.669764995574951172e+00,4.132462792736758539e-01,0.000000000000000000e+00,1.110000000000000000e+02
0.000000000000000000e+00,1.000000000000000000e+00,0.000000000000000000e+00,6.400000000000000000e+01,1.721200000000000000e+04,4.212589263916015625e-01,1.851260900497436523e+00,4.478747791449455562e-01,0.000000000000000000e+00,1.110000000000000000e+02
1.000000000000000000e+00,1.000000000000000000e+00,1.000000000000000000e+00,5.600000000000000000e+01,1.726800000000000000e+04,2.513990402221679688e-01,1.895779848098754883e+00,6.601718698685532516e-01,0.000000000000000000e+00,1.110000000000000000e+02
0.000000000000000000e+00,1.000000000000000000e+00,0.000000000000000000e+00,6.300000000000000000e+01,1.733100000000000000e+04,2.763338088989257812e-01,1.630066156387329102e+00,3.739112690927622329e-01,0.000000000000000000e+00,1.110000000000000000e+02
1.000000000000000000e+00,1.000000000000000000e+00,1.000000000000000000e+00,6.300000000000000000e+01,1.739400000000000000e+04,2.810790538787841797e-01,1.798746109008789062e+00,5.226386895814835176e-01,0.000000000000000000e+00,1.110000000000000000e+02
0.000000000000000000e+00,1.000000000000000000e+00,0.000000000000000000e+00,6.700000000000000000e+01,1.746100000000000000e+04,2.971949577331542969e-01,1.666422843933105469e+00,3.725509804386198387e-01,0.000000000000000000e+00,1.110000000000000000e+02
0.000000000000000000e+00,1.000000000000000000e+00,0.000000000000000000e+00,6.400000000000000000e+01,1.752500000000000000e+04,2.985548973083496094e-01,1.813419818878173828e+00,5.192089035406566300e-01,0.000000000000000000e+00,1.110000000000000000e+02
0.000000000000000000e+00,1.000000000000000000e+00,0.000000000000000000e+00,6.700000000000000000e+01,1.759200000000000000e+04,2.769780158996582031e-01,1.898336172103881836e+00,6.174984053695102837e-01,0.000000000000000000e+00,1.110000000000000000e+02
1.000000000000000000e+00,1.000000000000000000e+00,1.000000000000000000e+00,6.000000000000000000e+01,1.765200000000000000e+04,2.820980548858642578e-01,1.774178981781005859e+00,4.918766197994914324e-01,0.000000000000000000e+00,1.110000000000000000e+02
1.000000000000000000e+00,1.000000000000000000e+00,1.000000000000000000e+00,6.400000000000000000e+01,1.771600000000000000e+04,3.264009952545166016e-01,1.765170097351074219e+00,4.571435835876324627e-01,0.000000000000000000e+00,1.110000000000000000e+02
1.000000000000000000e+00,1.000000000000000000e+00,1.000000000000000000e+00,6.400000000000000000e+01,1.778000000000000000e+04,3.108451366424560547e-01,1.718994855880737305e+00,4.262400488440241664e-01,0.000000000000000000e+00,1.110000000000000000e+02
0.000000000000000000e+00,1.000000000000000000e+00,0.000000000000000000e+00,6.600000000000000000e+01,1.784600000000000000e+04,2.701830863952636719e-01,1.541660070419311523e+00,2.847419647552323907e-01,0.000000000000000000e+00,1.110000000000000000e+02
1.000000000000000000e+00,1.000000000000000000e+00,1.000000000000000000e+00,6.400000000000000000e+01,1.791000000000000000e+04,3.012938499450683594e-01,1.835411071777343750e+00,5.366169347531679623e-01,0.000000000000000000e+00,1.110000000000000000e+02
0.000000000000000000e+00,1.000000000000000000e+00,0.000000000000000000e+00,6.400000000000000000e+01,1.797400000000000000e+04,2.700347900390625000e-01,1.673413038253784180e+00,4.102505811345441566e-01,0.000000000000000000e+00,1.110000000000000000e+02
0.000000000000000000e+00,1.000000000000000000e+00,0.000000000000000000e+00,6.100000000000000000e+01,1.803500000000000000e+04,2.845170497894287109e-01,1.935158014297485352e+00,6.618328027480373521e-01,0.000000000000000000e+00,1.110000000000000000e+02
0.000000000000000000e+00,1.000000000000000000e+00,0.000000000000000000e+00,6.100000000000000000e+01,1.809600000000000000e+04,2.730689048767089844e-01,1.891154050827026367e+00,6.364581212963253964e-01,0.000000000000000000e+00,1.110000000000000000e+02
0.000000000000000000e+00,1.000000000000000000e+00,0.000000000000000000e+00,6.100000000000000000e+01,1.815700000000000000e+04,2.532670497894287109e-01,1.498434066772460938e+00,2.519940723701566410e-01,0.000000000000000000e+00,1.110000000000000000e+02
0.000000000000000000e+00,1.000000000000000000e+00,0.000000000000000000e+00,6.500000000000000000e+01,1.822200000000000000e+04,3.332099914550781250e-01,1.653234004974365234e+00,3.219166857061636633e-01,0.000000000000000000e+00,1.110000000000000000e+02
1.000000000000000000e+00,1.000000000000000000e+00,1.000000000000000000e+00,6.400000000000000000e+01,1.828600000000000000e+04,3.032090663909912109e-01,1.638385057449340820e+00,3.436453265474544438e-01,0.000000000000000000e+00,1.110000000000000000e+02
1.000000000000000000e+00,1.000000000000000000e+00,1.000000000000000000e+00,6.300000000000000000e+01,1.834900000000000000e+04,3.420431613922119141e-01,1.969474077224731445e+00,6.461968366621868576e-01,0.000000000000000000e+00,1.110000000000000000e+02
0.000000000000000000e+00,1.000000000000000000e+00,0.000000000000000000e+00,5.600000000000000000e+01,1.840500000000000000e+04,3.404331207275390625e-01,1.652410984039306641e+00,3.323265256887252272e-01,0.000000000000000000e+00,1.110000000000000000e+02
0.000000000000000000e+00,1.000000000000000000e+00,0.000000000000000000e+00,6.000000000000000000e+01,1.846500000000000000e+04,3.768420219421386719e-01,1.832876920700073242e+00,4.484655473449349339e-01,0.000000000000000000e+00,1.110000000000000000e+02
1.000000000000000000e+00,1.000000000000000000e+00,1.000000000000000000e+00,6.000000000000000000e+01,1.852500000000000000e+04,2.552371025085449219e-01,1.648478984832763672e+00,4.137047166060782155e-01,0.000000000000000000e+00,1.110000000000000000e+02
0.000000000000000000e+00,1.000000000000000000e+00,0.000000000000000000e+00,5.400000000000000000e+01,1.857900000000000000e+04,2.082939147949218750e-01,1.705232143402099609e+00,5.189069766003603368e-01,0.000000000000000000e+00,1.110000000000000000e+02
1.000000000000000000e+00,1.000000000000000000e+00,1.000000000000000000e+00,6.300000000000000000e+01,1.864200000000000000e+04,2.436580657958984375e-01,1.923449039459228516e+00,6.922406993921377261e-01,0.000000000000000000e+00,1.110000000000000000e+02
0.000000000000000000e+00,1.000000000000000000e+00,0.000000000000000000e+00,6.100000000000000000e+01,1.870300000000000000e+04,2.770540714263916016e-01,1.803565979003906250e+00,5.293449102190631583e-01,0.000000000000000000e+00,1.110000000000000000e+02
1.000000000000000000e+00,1.000000000000000000e+00,1.000000000000000000e+00,6.200000000000000000e+01,1.876500000000000000e+04,2.681570053100585938e-01,1.791954040527343750e+00,5.380349936772033104e-01,0.000000000000000000e+00,1.110000000000000000e+02
1.000000000000000000e+00,1.000000000000000000e+00,1.000000000000000000e+00,6.400000000000000000e+01,1.882900000000000000e+04,3.001148700714111328e-01,1.629743099212646484e+00,3.347359238719884167e-01,0.000000000000000000e+00,1.110000000000000000e+02
0.000000000000000000e+00,1.000000000000000000e+00,0.000000000000000000e+00,6.500000000000000000e+01,1.889400000000000000e+04,2.899401187896728516e-01,1.630146980285644531e+00,3.482195956893364697e-01,0.000000000000000000e+00,1.110000000000000000e+02
1.000000000000000000e+00,0.000000000000000000e+00,0.000000000000000000e+00,3.400000000000000000e+01,1.892800000000000000e+04,2.703459262847900391e-01,1.502166986465454102e+00,2.505850471238221244e-01,0.000000000000000000e+00,1.110000000000000000e+02
0.000000000000000000e+00,1.000000000000000000e+00,0.000000000000000000e+00,6.100000000000000000e+01,1.898900000000000000e+04,3.218150138854980469e-01,1.841031074523925781e+00,5.246733414466584478e-01,0.000000000000000000e+00,1.110000000000000000e+02
0.000000000000000000e+00,1.000000000000000000e+00,0.000000000000000000e+00,6.100000000000000000e+01,1.905000000000000000e+04,2.464959621429443359e-01,1.832641839981079102e+00,5.906612127203302309e-01,0.000000000000000000e+00,1.110000000000000000e+02
1.000000000000000000e+00,1.000000000000000000e+00,1.000000000000000000e+00,5.900000000000000000e+01,1.910900000000000000e+04,3.131759166717529297e-01,1.892822027206420898e+00,5.835570728850849598e-01,0.000000000000000000e+00,1.110000000000000000e+02
1.000000000000000000e+00,1.000000000000000000e+00,1.000000000000000000e+00,6.500000000000000000e+01,1.917400000000000000e+04,3.322441577911376953e-01,1.856774091720581055e+00,5.237554970966045165e-01,0.000000000000000000e+00,1.110000000000000000e+02
0.000000000000000000e+00,1.000000000000000000e+00,0.000000000000000000e+00,5.900000000000000000e+01,1.923300000000000000e+04,2.792968750000000000e-01,1.646285057067871094e+00,3.702848403994854487e-01,0.000000000000000000e+00,1.110000000000000000e+02
1.000000000000000000e+00,1.000000000000000000e+00,1.000000000000000000e+00,6.100000000000000000e+01,1.929400000000000000e+04,2.843580245971679688e-01,1.739583969116210938e+00,4.598421052514832241e-01,0.000000000000000000e+00,1.110000000000000000e+02
0.000000000000000000e+00,1.000000000000000000e+00,0.000000000000000000e+00,5.600000000000000000e+01,1.935000000000000000e+04,2.691109180450439453e-01,1.964735984802246094e+00,7.077255171058157712e-01,0.000000000000000000e+00,1.110000000000000000e+02
1.000000000000000000e+00,1.000000000000000000e+00,1.000000000000000000e+00,6.100000000000000000e+01,1.941100000000000000e+04,1.242301464080810547e-01,1.703238964080810547e+00,5.942895951729885162e-01,0.000000000000000000e+00,1.110000000000000000e+02
0.000000000000000000e+00,1.000000000000000000e+00,0.000000000000000000e+00,6.300000000000000000e+01,1.947400000000000000e+04,2.746138572692871094e-01,1.674988031387329102e+00,4.196909862943209446e-01,0.000000000000000000e+00,1.110000000000000000e+02
1.000000000000000000e+00,1.000000000000000000e+00,1.000000000000000000e+00,6.000000000000000000e+01,1.953400000000000000e+04,2.862470149993896484e-01,1.672792911529541016e+00,3.920250534405931853e-01,0.000000000000000000e+00,1.110000000000000000e+02
0.000000000000000000e+00,1.000000000000000000e+00,0.000000000000000000e+00,6.200000000000000000e+01,1.959600000000000000e+04,2.827010154724121094e-01,1.711301803588867188e+00,4.372177831136941917e-01,0.000000000000000000e+00,1.110000000000000000e+02
0.000000000000000000e+00,1.000000000000000000e+00,0.000000000000000000e+00,5.400000000000000000e+01,1.965000000000000000e+04,2.940461635589599609e-01,1.911471843719482422e+00,6.318906825143512096e-01,0.000000000000000000e+00,1.110000000000000000e+02
1.000000000000000000e+00,1.000000000000000000e+00,1.000000000000000000e+00,6.400000000000000000e+01,1.971400000000000000e+04,5.864279270172119141e-01,2.248527050018310547e+00,6.638078837030494395e-01,0.000000000000000000e+00,1.110000000000000000e+02
1.000000000000000000e+00,1.000000000000000000e+00,1.000000000000000000e+00,6.500000000000000000e+01,1.977900000000000000e+04,2.861409187316894531e-01,1.703027009963989258e+00,4.337867067955880618e-01,0.000000000000000000e+00,1.110000000000000000e+02
0.000000000000000000e+00,1.000000000000000000e+00,0.000000000000000000e+00,6.200000000000000000e+01,1.984100000000000000e+04,3.115751743316650391e-01,1.620728969573974609e+00,3.047055656147914515e-01,0.000000000000000000e+00,1.110000000000000000e+02
1.000000000000000000e+00,1.000000000000000000e+00,1.000000000000000000e+00,6.900000000000000000e+01,1.991000000000000000e+04,2.879149913787841797e-01,1.796070814132690430e+00,5.172979839299947091e-01,0.000000000000000000e+00,1.110000000000000000e+02
1.000000000000000000e+00,1.000000000000000000e+00,1.000000000000000000e+00,6.200000000000000000e+01,1.997200000000000000e+04,2.821700572967529297e-01,1.933468103408813477e+00,6.506866258262051783e-01,0.000000000000000000e+00,1.110000000000000000e+02
0.000000000000000000e+00,1.000000000000000000e+00,0.000000000000000000e+00,6.100000000000000000e+01,2.003300000000000000e+04,2.728049755096435547e-01,1.675904989242553711e+00,4.102106967997561360e-01,0.000000000000000000e+00,1.110000000000000000e+02
0.000000000000000000e+00,1.000000000000000000e+00,0.000000000000000000e+00,6.000000000000000000e+01,2.009300000000000000e+04,3.111739158630371094e-01,1.732316970825195312e+00,4.259036382967243406e-01,0.000000000000000000e+00,1.110000000000000000e+02
0.000000000000000000e+00,1.000000000000000000e+00,0.000000000000000000e+00,5.500000000000000000e+01,2.014800000000000000e+04,3.889329433441162109e-01,2.071923017501831055e+00,6.976380195717784005e-01,0.000000000000000000e+00,1.110000000000000000e+02
0.000000000000000000e+00,1.000000000000000000e+00,0.000000000000000000e+00,6.200000000000000000e+01,2.021000000000000000e+04,3.413040637969970703e-01,1.868620872497558594e+00,5.498314264166551668e-01,0.000000000000000000e+00,1.110000000000000000e+02
0.000000000000000000e+00,1.000000000000000000e+00,0.000000000000000000e+00,6.600000000000000000e+01,2.027600000000000000e+04,2.940659523010253906e-01,1.738569021224975586e+00,4.385264402672156003e-01,0.000000000000000000e+00,1.110000000000000000e+02
0.000000000000000000e+00,1.000000000000000000e+00,0.000000000000000000e+00,6.400000000000000000e+01,2.034000000000000000e+04,6.717810630798339844e-01,2.163272142410278320e+00,5.018552883424988176e-01,0.000000000000000000e+00,1.110000000000000000e+02
1.000000000000000000e+00,1.000000000000000000e+00,1.000000000000000000e+00,6.200000000000000000e+01,2.040200000000000000e+04,2.791500091552734375e-01,2.015705823898315430e+00,7.340624121724230733e-01,0.000000000000000000e+00,1.110000000000000000e+02
1.000000000000000000e+00,1.000000000000000000e+00,1.000000000000000000e+00,6.200000000000000000e+01,2.046400000000000000e+04,2.766160964965820312e-01,1.758685827255249023e+00,4.930263064736583045e-01,0.000000000000000000e+00,1.110000000000000000e+02
1.000000000000000000e+00,1.000000000000000000e+00,1.000000000000000000e+00,6.600000000000000000e+01,2.053000000000000000e+04,4.016561508178710938e-01,2.003319025039672852e+00,6.129380566075228742e-01,0.000000000000000000e+00,1.110000000000000000e+02
0.000000000000000000e+00,1.000000000000000000e+00,0.000000000000000000e+00,6.100000000000000000e+01,2.059100000000000000e+04,3.207190036773681641e-01,2.012570142745971680e+00,7.088113675299152483e-01,0.000000000000000000e+00,1.110000000000000000e+02
1.000000000000000000e+00,1.000000000000000000e+00,1.000000000000000000e+00,6.900000000000000000e+01,2.066000000000000000e+04,3.132290840148925781e-01,1.881970882415771484e+00,5.743148412645686651e-01,0.000000000000000000e+00,1.110000000000000000e+02
0.000000000000000000e+00,1.000000000000000000e+00,0.000000000000000000e+00,6.500000000000000000e+01,2.072500000000000000e+04,2.808508872985839844e-01,1.715434789657592773e+00,4.399777797329634810e-01,0.000000000000000000e+00,1.110000000000000000e+02
0.000000000000000000e+00,1.000000000000000000e+00,0.000000000000000000e+00,6.400000000000000000e+01,2.078900000000000000e+04,3.112430572509765625e-01,1.573928833007812500e+00,2.641607645076137767e-01,0.000000000000000000e+00,1.110000000000000000e+02
1.000000000000000000e+00,1.000000000000000000e+00,1.000000000000000000e+00,6.200000000000000000e+01,2.085100000000000000e+04,5.356750488281250000e-01,1.956864833831787109e+00,4.375461474907906823e-01,0.000000000000000000e+00,1.110000000000000000e+02
0.000000000000000000e+00,1.000000000000000000e+00,0.000000000000000000e+00,5.900000000000000000e+01,2.091000000000000000e+04,3.320620059967041016e-01,1.588756084442138672e+00,2.598766597883735430e-01,0.000000000000000000e+00,1.110000000000000000e+02
0.000000000000000000e+00,1.000000000000000000e+00,0.000000000000000000e+00,6.400000000000000000e+01,2.097400000000000000e+04,3.527228832244873047e-01,1.911920070648193359e+00,5.715506465098951772e-01,0.000000000000000000e+00,1.110000000000000000e+02
1.000000000000000000e+00,1.000000000000000000e+00,1.000000000000000000e+00,6.000000000000000000e+01,2.103400000000000000e+04,2.791759967803955078e-01,1.861689090728759766e+00,5.832695843758208820e-01,0.000000000000000000e+00,1.110000000000000000e+02
0.000000000000000000e+00,1.000000000000000000e+00,0.000000000000000000e+00,6.300000000000000000e+01,2.109700000000000000e+04,2.645239830017089844e-01,1.563241958618164062e+00,2.968749429895158887e-01,0.000000000000000000e+00,1.110000000000000000e+02
0.000000000000000000e+00,1.000000000000000000e+00,0.000000000000000000e+00,6.600000000000000000e+01,2.116300000000000000e+04,3.716449737548828125e-01,1.629099130630493164e+00,2.760462802138921590e-01,0.000000000000000000e+00,1.110000000000000000e+02
1.000000000000000000e+00,1.000000000000000000e+00,1.000000000000000000e+00,6.200000000000000000e+01,2.122500000000000000e+04,2.833299636840820312e-01,1.761656045913696289e+00,4.875290159035888249e-01,0.000000000000000000e+00,1.110000000000000000e+02
1.000000000000000000e+00,1.000000000000000000e+00,1.000000000000000000e+00,5.400000000000000000e+01,2.127900000000000000e+04,3.288030624389648438e-01,1.813557863235473633e+00,4.844967930738560691e-01,0.000000000000000000e+00,1.110000000000000000e+02
1.000000000000000000e+00,1.000000000000000000e+00,1.000000000000000000e+00,6.400000000000000000e+01,2.134300000000000000e+04,3.960998058319091797e-01,1.890421152114868164e+00,4.916427146966730888e-01,0.000000000000000000e+00,1.110000000000000000e+02
0.000000000000000000e+00,1.000000000000000000e+00,0.000000000000000000e+00,6.600000000000000000e+01,2.140900000000000000e+04,2.667689323425292969e-01,1.830389976501464844e+00,5.719932052845603243e-01,0.000000000000000000e+00,1.110000000000000000e+02
0.000000000000000000e+00,1.000000000000000000e+00,0.000000000000000000e+00,5.900000000000000000e+01,2.146800000000000000e+04,2.834730148315429688e-01,1.548914909362792969e+00,2.712881328143088577e-01,0.000000000000000000e+00,1.110000000000000000e+02
1.000000000000000000e+00,1.000000000000000000e+00,1.000000000000000000e+00,6.800000000000000000e+01,2.153600000000000000e+04,3.395919799804687500e-01,1.908468008041381836e+00,5.794950320989366022e-01,0.000000000000000000e+00,1.110000000000000000e+02
1.000000000000000000e+00,1.000000000000000000e+00,1.000000000000000000e+00,6.300000000000000000e+01,2.159900000000000000e+04,3.276920318603515625e-01,1.936277151107788086e+00,6.324389121318285678e-01,0.000000000000000000e+00,1.110000000000000000e+02
1.000000000000000000e+00,1.000000000000000000e+00,1.000000000000000000e+00,7.200000000000000000e+01,2.167100000000000000e+04,3.198099136352539062e-01,1.690916061401367188e+00,3.736860175229261838e-01,0.000000000000000000e+00,1.110000000000000000e+02
0.000000000000000000e+00,1.000000000000000000e+00,0.000000000000000000e+00,6.100000000000000000e+01,2.173200000000000000e+04,2.834241390228271484e-01,1.535089015960693359e+00,2.589622113191717978e-01,0.000000000000000000e+00,1.110000000000000000e+02
0.000000000000000000e+00,1.000000000000000000e+00,0.000000000000000000e+00,6.600000000000000000e+01,2.179800000000000000e+04,3.132131099700927734e-01,2.019562005996704102e+00,7.114331233280137834e-01,0.000000000000000000e+00,1.110000000000000000e+02
0.000000000000000000e+00,1.000000000000000000e+00,0.000000000000000000e+00,6.600000000000000000e+01,2.186400000000000000e+04,3.055820465087890625e-01,1.882002115249633789e+00,5.936305312382648136e-01,0.000000000000000000e+00,1.110000000000000000e+02
1.000000000000000000e+00,1.000000000000000000e+00,1.000000000000000000e+00,6.700000000000000000e+01,2.193100000000000000e+04,2.963731288909912109e-01,1.540549993515014648e+00,2.512847714945450894e-01,0.000000000000000000e+00,1.110000000000000000e+02
0.000000000000000000e+00,1.000000000000000000e+00,0.000000000000000000e+00,5.900000000000000000e+01,2.199000000000000000e+04,3.533780574798583984e-01,1.606504917144775391e+00,2.578728700903757387e-01,0.000000000000000000e+00,1.110000000000000000e+02
0.000000000000000000e+00,1.000000000000000000e+00,0.000000000000000000e+00,5.500000000000000000e+01,2.204500000000000000e+04,3.115479946136474609e-01,1.890477895736694336e+00,5.814026741772424511e-01,0.000000000000000000e+00,1.110000000000000000e+02
1.000000000000000000e+00,1.000000000000000000e+00,1.000000000000000000e+00,6.600000000000000000e+01,2.211100000000000000e+04,2.302708625793457031e-01,1.696882009506225586e+00,4.784618506235650548e-01,0.000000000000000000e+00,1.110000000000000000e+02
1.000000000000000000e+00,1.000000000000000000e+00,1.000000000000000000e+00,6.400000000000000000e+01,2.217500000000000000e+04,3.033418655395507812e-01,1.807090044021606445e+00,5.188806546040252154e-01,0.000000000000000000e+00,1.110000000000000000e+02
0.000000000000000000e+00,1.000000000000000000e+00,0.000000000000000000e+00,6.700000000000000000e+01,2.224200000000000000e+04,2.915699481964111328e-01,1.744704008102416992e+00,4.637301927181808336e-01,0.000000000000000000e+00,1.110000000000000000e+02
1.000000000000000000e+00,1.000000000000000000e+00,1.000000000000000000e+00,5.600000000000000000e+01,2.229800000000000000e+04,2.483949661254882812e-01,1.824285030364990234e+00,5.878888029023512374e-01,0.000000000000000000e+00,1.110000000000000000e+02
1.000000000000000000e+00,1.000000000000000000e+00,1.000000000000000000e+00,6.100000000000000000e+01,2.235900000000000000e+04,3.160769939422607422e-01,1.773889064788818359e+00,4.619715460488931780e-01,0.000000000000000000e+00,1.110000000000000000e+02
1.000000000000000000e+00,1.000000000000000000e+00,1.000000000000000000e+00,6.200000000000000000e+01,2.242100000000000000e+04,2.714548110961914062e-01,1.836496114730834961e+00,5.817550327336236116e-01,0.000000000000000000e+00,1.110000000000000000e+02
1.000000000000000000e+00,1.000000000000000000e+00,1.000000000000000000e+00,5.600000000000000000e+01,2.247700000000000000e+04,2.951650619506835938e-01,1.789963006973266602e+00,5.051726689209337096e-01,0.000000000000000000e+00,1.110000000000000000e+02
1.000000000000000000e+00,1.000000000000000000e+00,1.000000000000000000e+00,5.700000000000000000e+01,2.253400000000000000e+04,2.573230266571044922e-01,1.680087089538574219e+00,4.354122593768999239e-01,0.000000000000000000e+00,1.110000000000000000e+02
0.000000000000000000e+00,1.000000000000000000e+00,0.000000000000000000e+00,5.600000000000000000e+01,2.259000000000000000e+04,5.060100555419921875e-01,1.991111040115356445e+00,4.931657304078518322e-01,0.000000000000000000e+00,1.110000000000000000e+02
1.000000000000000000e+00,1.000000000000000000e+00,1.000000000000000000e+00,6.200000000000000000e+01,2.265200000000000000e+04,2.836611270904541016e-01,1.811652898788452148e+00,5.381848841930128025e-01,0.000000000000000000e+00,1.110000000000000000e+02
1.000000000000000000e+00,1.000000000000000000e+00,1.000000000000000000e+00,5.700000000000000000e+01,2.270900000000000000e+04,2.820780277252197266e-01,1.726678133010864258e+00,4.483644982186329453e-01,0.000000000000000000e+00,1.110000000000000000e+02
1.000000000000000000e+00,1.000000000000000000e+00,1.000000000000000000e+00,6.300000000000000000e+01,2.277200000000000000e+04,3.145458698272705078e-01,1.783797979354858398e+00,4.821676926062880564e-01,0.000000000000000000e+00,1.110000000000000000e+02
0.000000000000000000e+00,1.000000000000000000e+00,0.000000000000000000e+00,6.000000000000000000e+01,2.283200000000000000e+04,2.755908966064453125e-01,1.550449132919311523e+00,2.828768868006953374e-01,0.000000000000000000e+00,1.110000000000000000e+02
0.000000000000000000e+00,1.000000000000000000e+00,0.000000000000000000e+00,5.700000000000000000e+01,2.288900000000000000e+04,3.345870971679687500e-01,1.882258892059326172e+00,5.482846065803315128e-01,0.000000000000000000e+00,1.110000000000000000e+02
1.000000000000000000e+00,1.000000000000000000e+00,1.000000000000000000e+00,6.000000000000000000e+01,2.294900000000000000e+04,2.520239353179931641e-01,1.970829963684082031e+00,7.356098075708212836e-01,0.000000000000000000e+00,1.110000000000000000e+02
1.000000000000000000e+00,1.000000000000000000e+00,1.000000000000000000e+00,6.500000000000000000e+01,2.301400000000000000e+04,2.407660484313964844e-01,1.847030162811279297e+00,6.161865655543433684e-01,0.000000000000000000e+00,1.110000000000000000e+02
0.000000000000000000e+00,1.000000000000000000e+00,0.000000000000000000e+00,5.600000000000000000e+01,2.307000000000000000e+04,2.647449970245361328e-01,1.987850904464721680e+00,7.206773260304997208e-01,0.000000000000000000e+00,1.110000000000000000e+02
1.000000000000000000e+00,1.000000000000000000e+00,1.000000000000000000e+00,5.700000000000000000e+01,2.312700000000000000e+04,2.854690551757812500e-01,1.592036962509155273e+00,3.131750485060936784e-01,0.000000000000000000e+00,1.110000000000000000e+02
1.000000000000000000e+00,1.000000000000000000e+00,1.000000000000000000e+00,6.000000000000000000e+01,2.318700000000000000e+04,3.081769943237304688e-01,1.863483905792236328e+00,5.764192401859300485e-01,0.000000000000000000e+00,1.110000000000000000e+02
1.000000000000000000e+00,0.000000000000000000e+00,0.000000000000000000e+00,4.200000000000000000e+01,2.322900000000000000e+04,3.315989971160888672e-01,1.847559928894042969e+00,5.241123160825968963e-01,1.000000000000000000e+00,1.120000000000000000e+02
1.000000000000000000e+00,1.000000000000000000e+00,1.000000000000000000e+00,5.700000000000000000e+01,2.328600000000000000e+04,4.036350250244140625e-01,1.685284852981567383e+00,2.930469343207636745e-01,0.000000000000000000e+00,1.120000000000000000e+02
1.000000000000000000e+00,1.000000000000000000e+00,1.000000000000000000e+00,6.000000000000000000e+01,2.334600000000000000e+04,3.154039382934570312e-01,1.799310207366943359e+00,4.922189771439023365e-01,0.000000000000000000e+00,1.120000000000000000e+02
0.000000000000000000e+00,1.000000000000000000e+00,0.000000000000000000e+00,5.600000000000000000e+01,2.340200000000000000e+04,2.664818763732910156e-01,1.994056940078735352e+00,7.360698838657453447e-01,0.000000000000000000e+00,1.120000000000000000e+02
0.000000000000000000e+00,1.000000000000000000e+00,0.000000000000000000e+00,6.100000000000000000e+01,2.346300000000000000e+04,3.145079612731933594e-01,1.820027112960815430e+00,5.064538261135895780e-01,0.000000000000000000e+00,1.120000000000000000e+02
0.000000000000000000e+00,1.000000000000000000e+00,0.000000000000000000e+00,5.600000000000000000e+01,2.351900000000000000e+04,3.030080795288085938e-01,1.606559991836547852e+00,3.132278063143242308e-01,0.000000000000000000e+00,1.120000000000000000e+02
0.000000000000000000e+00,1.000000000000000000e+00,0.000000000000000000e+00,6.300000000000000000e+01,2.358200000000000000e+04,3.270368576049804688e-01,1.622540950775146484e+00,3.025012742698440782e-01,0.000000000000000000e+00,1.120000000000000000e+02
1.000000000000000000e+00,1.000000000000000000e+00,1.000000000000000000e+00,5.500000000000000000e+01,2.363700000000000000e+04,3.017191886901855469e-01,1.568241119384765625e+00,2.708305176223136934e-01,0.000000000000000000e+00,1.120000000000000000e+02
0.000000000000000000e+00,1.000000000000000000e+00,0.000000000000000000e+00,5.200000000000000000e+01,2.368900000000000000e+04,2.861940860748291016e-01,1.980446100234985352e+00,7.008887016187624885e-01,0.000000000000000000e+00,1.120000000000000000e+02
0.000000000000000000e+00,1.000000000000000000e+00,0.000000000000000000e+00,5.700000000000000000e+01,2.374600000000000000e+04,3.069200515747070312e-01,1.882385015487670898e+00,5.834448593046317466e-01,0.000000000000000000e+00,1.120000000000000000e+02
1.000000000000000000e+00,1.000000000000000000e+00,1.000000000000000000e+00,6.200000000000000000e+01,2.380800000000000000e+04,2.696261405944824219e-01,1.736491918563842773e+00,4.701361827829850237e-01,0.000000000000000000e+00,1.120000000000000000e+02
