choice, accuracy, solution,  reward, cumulative_reward, rt,  total_trial_time, iti, cp_with_slow_fast, high_val_cue
0.000000000000000000e+00,1.000000000000000000e+00,0.000000000000000000e+00,5.700000000000000000e+01,5.700000000000000000e+01,9.543368816375732422e-01,2.583025932312011719e+00,6.344728493104920819e-01,0.000000000000000000e+00,1.120000000000000000e+02
1.000000000000000000e+00,1.000000000000000000e+00,1.000000000000000000e+00,6.200000000000000000e+01,1.190000000000000000e+02,4.162211418151855469e-01,2.066033124923706055e+00,6.505302843546147962e-01,0.000000000000000000e+00,1.120000000000000000e+02
1.000000000000000000e+00,1.000000000000000000e+00,1.000000000000000000e+00,6.700000000000000000e+01,1.860000000000000000e+02,2.626419067382812500e-01,1.665817022323608398e+00,3.999774611512805222e-01,0.000000000000000000e+00,1.120000000000000000e+02
1.000000000000000000e+00,1.000000000000000000e+00,1.000000000000000000e+00,6.200000000000000000e+01,2.480000000000000000e+02,2.609939575195312500e-01,1.934793949127197266e+00,6.679331738826048692e-01,0.000000000000000000e+00,1.120000000000000000e+02
1.000000000000000000e+00,1.000000000000000000e+00,1.000000000000000000e+00,6.200000000000000000e+01,3.100000000000000000e+02,3.687319755554199219e-01,1.815231800079345703e+00,4.501016256112014280e-01,0.000000000000000000e+00,1.120000000000000000e+02
1.000000000000000000e+00,1.000000000000000000e+00,1.000000000000000000e+00,6.200000000000000000e+01,3.720000000000000000e+02,2.711780071258544922e-01,1.951892852783203125e+00,6.851789657382033605e-01,0.000000000000000000e+00,1.120000000000000000e+02
1.000000000000000000e+00,1.000000000000000000e+00,1.000000000000000000e+00,6.000000000000000000e+01,4.320000000000000000e+02,2.402348518371582031e-01,1.979930162429809570e+00,7.484009750870646016e-01,0.000000000000000000e+00,1.120000000000000000e+02
1.000000000000000000e+00,1.000000000000000000e+00,1.000000000000000000e+00,5.700000000000000000e+01,4.890000000000000000e+02,2.289588451385498047e-01,1.811961889266967773e+00,5.772991041663244616e-01,0.000000000000000000e+00,1.120000000000000000e+02
1.000000000000000000e+00,1.000000000000000000e+00,1.000000000000000000e+00,5.500000000000000000e+01,5.440000000000000000e+02,2.690141201019287109e-01,1.822618007659912109e+00,5.666776138684302966e-01,0.000000000000000000e+00,1.120000000000000000e+02
1.000000000000000000e+00,1.000000000000000000e+00,1.000000000000000000e+00,6.300000000000000000e+01,6.070000000000000000e+02,2.627360820770263672e-01,1.827030897140502930e+00,5.604047963878433514e-01,0.000000000000000000e+00,1.120000000000000000e+02
0.000000000000000000e+00,1.000000000000000000e+00,0.000000000000000000e+00,5.600000000000000000e+01,6.630000000000000000e+02,2.861480712890625000e-01,1.923706054687500000e+00,6.507692714688663171e-01,0.000000000000000000e+00,1.120000000000000000e+02
1.000000000000000000e+00,1.000000000000000000e+00,1.000000000000000000e+00,5.600000000000000000e+01,7.190000000000000000e+02,2.357759475708007812e-01,1.576498031616210938e+00,3.443125819273996635e-01,0.000000000000000000e+00,1.120000000000000000e+02
1.000000000000000000e+00,1.000000000000000000e+00,1.000000000000000000e+00,5.900000000000000000e+01,7.780000000000000000e+02,3.321590423583984375e-01,1.855674982070922852e+00,5.331652659133466754e-01,0.000000000000000000e+00,1.120000000000000000e+02
0.000000000000000000e+00,1.000000000000000000e+00,0.000000000000000000e+00,6.300000000000000000e+01,8.410000000000000000e+02,4.186620712280273438e-01,1.741431951522827148e+00,3.249037341029850645e-01,0.000000000000000000e+00,1.120000000000000000e+02
1.000000000000000000e+00,1.000000000000000000e+00,1.000000000000000000e+00,6.300000000000000000e+01,9.040000000000000000e+02,2.592480182647705078e-01,1.853524923324584961e+00,6.115050060908143736e-01,0.000000000000000000e+00,1.120000000000000000e+02
0.000000000000000000e+00,1.000000000000000000e+00,0.000000000000000000e+00,6.100000000000000000e+01,9.650000000000000000e+02,2.802648544311523438e-01,1.966195106506347656e+00,6.943568861894787725e-01,0.000000000000000000e+00,1.120000000000000000e+02
1.000000000000000000e+00,1.000000000000000000e+00,1.000000000000000000e+00,6.700000000000000000e+01,1.032000000000000000e+03,2.177369594573974609e-01,1.802462816238403320e+00,5.969923277052973098e-01,0.000000000000000000e+00,1.120000000000000000e+02
0.000000000000000000e+00,1.000000000000000000e+00,0.000000000000000000e+00,5.600000000000000000e+01,1.088000000000000000e+03,2.948329448699951172e-01,1.994678020477294922e+00,7.082931509877925524e-01,0.000000000000000000e+00,1.120000000000000000e+02
0.000000000000000000e+00,1.000000000000000000e+00,0.000000000000000000e+00,5.600000000000000000e+01,1.144000000000000000e+03,3.258459568023681641e-01,1.660149812698364258e+00,3.522158854857229127e-01,0.000000000000000000e+00,1.120000000000000000e+02
1.000000000000000000e+00,1.000000000000000000e+00,1.000000000000000000e+00,6.400000000000000000e+01,1.208000000000000000e+03,3.032679557800292969e-01,1.899691104888916016e+00,6.016437867666498684e-01,0.000000000000000000e+00,1.120000000000000000e+02
0.000000000000000000e+00,1.000000000000000000e+00,0.000000000000000000e+00,6.700000000000000000e+01,1.275000000000000000e+03,2.903339862823486328e-01,1.747287988662719727e+00,4.658512538662197278e-01,0.000000000000000000e+00,1.120000000000000000e+02
0.000000000000000000e+00,1.000000000000000000e+00,0.000000000000000000e+00,6.300000000000000000e+01,1.338000000000000000e+03,3.723690509796142578e-01,1.927185058593750000e+00,5.596698789344802805e-01,0.000000000000000000e+00,1.120000000000000000e+02
0.000000000000000000e+00,1.000000000000000000e+00,0.000000000000000000e+00,5.700000000000000000e+01,1.395000000000000000e+03,2.749698162078857422e-01,1.686708211898803711e+00,4.299447409285092614e-01,0.000000000000000000e+00,1.120000000000000000e+02
0.000000000000000000e+00,1.000000000000000000e+00,0.000000000000000000e+00,6.300000000000000000e+01,1.458000000000000000e+03,3.296117782592773438e-01,1.905071973800659180e+00,5.848650353669879731e-01,0.000000000000000000e+00,1.120000000000000000e+02
0.000000000000000000e+00,1.000000000000000000e+00,0.000000000000000000e+00,5.900000000000000000e+01,1.517000000000000000e+03,2.970509529113769531e-01,1.948805093765258789e+00,6.503332791837284077e-01,0.000000000000000000e+00,1.120000000000000000e+02
0.000000000000000000e+00,1.000000000000000000e+00,0.000000000000000000e+00,6.100000000000000000e+01,1.578000000000000000e+03,2.039561271667480469e-01,1.783772945404052734e+00,5.842324750048903947e-01,0.000000000000000000e+00,1.120000000000000000e+02
1.000000000000000000e+00,1.000000000000000000e+00,1.000000000000000000e+00,6.200000000000000000e+01,1.640000000000000000e+03,2.487711906433105469e-01,1.794082164764404297e+00,5.451260572030312002e-01,0.000000000000000000e+00,1.120000000000000000e+02
0.000000000000000000e+00,0.000000000000000000e+00,1.000000000000000000e+00,3.500000000000000000e+01,1.675000000000000000e+03,1.975271701812744141e-01,1.823305845260620117e+00,6.350367386806989867e-01,0.000000000000000000e+00,1.120000000000000000e+02
0.000000000000000000e+00,1.000000000000000000e+00,0.000000000000000000e+00,6.100000000000000000e+01,1.736000000000000000e+03,2.931959629058837891e-01,2.015625000000000000e+00,7.339630164274386637e-01,0.000000000000000000e+00,1.120000000000000000e+02
0.000000000000000000e+00,1.000000000000000000e+00,0.000000000000000000e+00,5.700000000000000000e+01,1.793000000000000000e+03,2.925860881805419922e-01,1.915543079376220703e+00,6.330209915706770385e-01,0.000000000000000000e+00,1.120000000000000000e+02
1.000000000000000000e+00,1.000000000000000000e+00,1.000000000000000000e+00,5.900000000000000000e+01,1.852000000000000000e+03,2.449550628662109375e-01,1.890535116195678711e+00,6.402919822093433577e-01,0.000000000000000000e+00,1.120000000000000000e+02
0.000000000000000000e+00,1.000000000000000000e+00,0.000000000000000000e+00,5.400000000000000000e+01,1.906000000000000000e+03,2.736690044403076172e-01,1.610245943069458008e+00,3.508910636592347809e-01,0.000000000000000000e+00,1.120000000000000000e+02
1.000000000000000000e+00,1.000000000000000000e+00,1.000000000000000000e+00,6.100000000000000000e+01,1.967000000000000000e+03,3.132069110870361328e-01,1.671685218811035156e+00,3.559655701251648319e-01,0.000000000000000000e+00,1.120000000000000000e+02
0.000000000000000000e+00,0.000000000000000000e+00,1.000000000000000000e+00,3.700000000000000000e+01,2.004000000000000000e+03,2.625830173492431641e-01,1.853809833526611328e+00,5.929223927388278526e-01,1.000000000000000000e+00,1.110000000000000000e+02
0.000000000000000000e+00,1.000000000000000000e+00,0.000000000000000000e+00,6.500000000000000000e+01,2.069000000000000000e+03,3.246860504150390625e-01,1.999583959579467773e+00,6.924810932289917620e-01,0.000000000000000000e+00,1.110000000000000000e+02
0.000000000000000000e+00,1.000000000000000000e+00,0.000000000000000000e+00,5.700000000000000000e+01,2.126000000000000000e+03,3.767549991607666016e-01,1.791157960891723633e+00,4.339611942279870127e-01,0.000000000000000000e+00,1.110000000000000000e+02
0.000000000000000000e+00,0.000000000000000000e+00,1.000000000000000000e+00,4.000000000000000000e+01,2.166000000000000000e+03,3.637290000915527344e-01,2.114247083663940430e+00,7.479598508571657645e-01,0.000000000000000000e+00,1.110000000000000000e+02
1.000000000000000000e+00,1.000000000000000000e+00,1.000000000000000000e+00,6.500000000000000000e+01,2.231000000000000000e+03,4.228401184082031250e-01,2.070038080215454102e+00,6.681628835857367221e-01,0.000000000000000000e+00,1.110000000000000000e+02
1.000000000000000000e+00,1.000000000000000000e+00,1.000000000000000000e+00,6.500000000000000000e+01,2.296000000000000000e+03,2.576889991760253906e-01,1.647175073623657227e+00,3.990339163305856585e-01,0.000000000000000000e+00,1.110000000000000000e+02
1.000000000000000000e+00,1.000000000000000000e+00,1.000000000000000000e+00,5.700000000000000000e+01,2.353000000000000000e+03,2.886018753051757812e-01,1.562697887420654297e+00,2.785881786729189624e-01,0.000000000000000000e+00,1.110000000000000000e+02
0.000000000000000000e+00,1.000000000000000000e+00,0.000000000000000000e+00,6.700000000000000000e+01,2.420000000000000000e+03,3.167569637298583984e-01,2.035886049270629883e+00,7.307017424318810184e-01,0.000000000000000000e+00,1.110000000000000000e+02
1.000000000000000000e+00,1.000000000000000000e+00,1.000000000000000000e+00,5.900000000000000000e+01,2.479000000000000000e+03,2.303619384765625000e-01,1.789245128631591797e+00,5.701983260981258184e-01,0.000000000000000000e+00,1.110000000000000000e+02
0.000000000000000000e+00,1.000000000000000000e+00,0.000000000000000000e+00,6.600000000000000000e+01,2.545000000000000000e+03,2.924370765686035156e-01,1.788163900375366211e+00,5.085261398438669644e-01,0.000000000000000000e+00,1.110000000000000000e+02
0.000000000000000000e+00,1.000000000000000000e+00,0.000000000000000000e+00,6.300000000000000000e+01,2.608000000000000000e+03,4.783530235290527344e-01,2.182397127151489258e+00,7.074016134645260134e-01,0.000000000000000000e+00,1.110000000000000000e+02
1.000000000000000000e+00,1.000000000000000000e+00,1.000000000000000000e+00,6.500000000000000000e+01,2.673000000000000000e+03,2.699110507965087891e-01,1.719856023788452148e+00,4.609254346335662778e-01,0.000000000000000000e+00,1.110000000000000000e+02
1.000000000000000000e+00,1.000000000000000000e+00,1.000000000000000000e+00,6.000000000000000000e+01,2.733000000000000000e+03,3.142809867858886719e-01,1.662832021713256836e+00,3.572637996424299356e-01,0.000000000000000000e+00,1.110000000000000000e+02
1.000000000000000000e+00,1.000000000000000000e+00,1.000000000000000000e+00,6.300000000000000000e+01,2.796000000000000000e+03,3.137168884277343750e-01,1.713379144668579102e+00,4.039846659105185700e-01,0.000000000000000000e+00,1.110000000000000000e+02
1.000000000000000000e+00,1.000000000000000000e+00,1.000000000000000000e+00,6.100000000000000000e+01,2.857000000000000000e+03,2.731900215148925781e-01,1.913712024688720703e+00,6.508527646687560786e-01,0.000000000000000000e+00,1.110000000000000000e+02
0.000000000000000000e+00,1.000000000000000000e+00,0.000000000000000000e+00,5.600000000000000000e+01,2.913000000000000000e+03,2.309701442718505859e-01,1.749171018600463867e+00,5.168813551383015792e-01,0.000000000000000000e+00,1.110000000000000000e+02
0.000000000000000000e+00,1.000000000000000000e+00,0.000000000000000000e+00,6.400000000000000000e+01,2.977000000000000000e+03,2.926599979400634766e-01,1.563524007797241211e+00,2.807125308582412715e-01,0.000000000000000000e+00,1.110000000000000000e+02
1.000000000000000000e+00,1.000000000000000000e+00,1.000000000000000000e+00,6.600000000000000000e+01,3.043000000000000000e+03,3.077309131622314453e-01,1.810776948928833008e+00,5.246074436787553363e-01,0.000000000000000000e+00,1.110000000000000000e+02
1.000000000000000000e+00,1.000000000000000000e+00,1.000000000000000000e+00,6.500000000000000000e+01,3.108000000000000000e+03,2.820949554443359375e-01,1.905581951141357422e+00,6.301240967290732131e-01,0.000000000000000000e+00,1.110000000000000000e+02
0.000000000000000000e+00,1.000000000000000000e+00,0.000000000000000000e+00,5.600000000000000000e+01,3.164000000000000000e+03,2.392179965972900391e-01,1.650949001312255859e+00,4.313483090031490219e-01,0.000000000000000000e+00,1.110000000000000000e+02
0.000000000000000000e+00,1.000000000000000000e+00,0.000000000000000000e+00,6.000000000000000000e+01,3.224000000000000000e+03,2.992529869079589844e-01,1.612635850906372070e+00,3.275106300917334790e-01,0.000000000000000000e+00,1.110000000000000000e+02
0.000000000000000000e+00,1.000000000000000000e+00,0.000000000000000000e+00,6.400000000000000000e+01,3.288000000000000000e+03,2.776079177856445312e-01,2.013195037841796875e+00,7.402773456998857915e-01,0.000000000000000000e+00,1.110000000000000000e+02
1.000000000000000000e+00,1.000000000000000000e+00,1.000000000000000000e+00,6.800000000000000000e+01,3.356000000000000000e+03,2.201409339904785156e-01,1.594247817993164062e+00,3.850223276640613590e-01,0.000000000000000000e+00,1.110000000000000000e+02
0.000000000000000000e+00,1.000000000000000000e+00,0.000000000000000000e+00,5.700000000000000000e+01,3.413000000000000000e+03,2.650749683380126953e-01,1.766246080398559570e+00,5.011891535524592989e-01,0.000000000000000000e+00,1.110000000000000000e+02
1.000000000000000000e+00,1.000000000000000000e+00,1.000000000000000000e+00,6.400000000000000000e+01,3.477000000000000000e+03,2.844660282135009766e-01,1.692118167877197266e+00,4.101230620440751151e-01,0.000000000000000000e+00,1.110000000000000000e+02
0.000000000000000000e+00,0.000000000000000000e+00,1.000000000000000000e+00,4.300000000000000000e+01,3.520000000000000000e+03,1.532039642333984375e-01,1.421201944351196289e+00,2.815165519117339143e-01,0.000000000000000000e+00,1.110000000000000000e+02
0.000000000000000000e+00,1.000000000000000000e+00,0.000000000000000000e+00,6.400000000000000000e+01,3.584000000000000000e+03,3.755908012390136719e-01,1.866256952285766602e+00,5.142503399257325469e-01,0.000000000000000000e+00,1.110000000000000000e+02
0.000000000000000000e+00,0.000000000000000000e+00,1.000000000000000000e+00,3.600000000000000000e+01,3.620000000000000000e+03,5.869829654693603516e-01,1.846138000488281250e+00,2.773831890834541625e-01,1.000000000000000000e+00,1.120000000000000000e+02
0.000000000000000000e+00,1.000000000000000000e+00,0.000000000000000000e+00,6.200000000000000000e+01,3.682000000000000000e+03,4.390590190887451172e-01,2.112472057342529297e+00,6.894714711112044370e-01,0.000000000000000000e+00,1.120000000000000000e+02
1.000000000000000000e+00,1.000000000000000000e+00,1.000000000000000000e+00,6.200000000000000000e+01,3.744000000000000000e+03,2.644369602203369141e-01,1.517436981201171875e+00,2.574377942268901709e-01,0.000000000000000000e+00,1.120000000000000000e+02
0.000000000000000000e+00,1.000000000000000000e+00,0.000000000000000000e+00,6.400000000000000000e+01,3.808000000000000000e+03,3.419380187988281250e-01,1.849090814590454102e+00,5.229699087493876464e-01,0.000000000000000000e+00,1.120000000000000000e+02
0.000000000000000000e+00,1.000000000000000000e+00,0.000000000000000000e+00,6.000000000000000000e+01,3.868000000000000000e+03,2.858500480651855469e-01,1.797376871109008789e+00,5.204112313448668869e-01,0.000000000000000000e+00,1.120000000000000000e+02
1.000000000000000000e+00,1.000000000000000000e+00,1.000000000000000000e+00,5.700000000000000000e+01,3.925000000000000000e+03,2.688839435577392578e-01,1.927728176116943359e+00,6.646873000898168016e-01,0.000000000000000000e+00,1.120000000000000000e+02
1.000000000000000000e+00,1.000000000000000000e+00,1.000000000000000000e+00,5.700000000000000000e+01,3.982000000000000000e+03,2.293820381164550781e-01,1.652277946472167969e+00,4.339805408998827496e-01,0.000000000000000000e+00,1.120000000000000000e+02
0.000000000000000000e+00,1.000000000000000000e+00,0.000000000000000000e+00,6.800000000000000000e+01,4.050000000000000000e+03,3.118090629577636719e-01,1.705385923385620117e+00,3.894794618426000166e-01,0.000000000000000000e+00,1.120000000000000000e+02
0.000000000000000000e+00,1.000000000000000000e+00,0.000000000000000000e+00,6.100000000000000000e+01,4.111000000000000000e+03,3.038859367370605469e-01,1.623572826385498047e+00,3.298302488703947488e-01,0.000000000000000000e+00,1.120000000000000000e+02
1.000000000000000000e+00,1.000000000000000000e+00,1.000000000000000000e+00,6.900000000000000000e+01,4.180000000000000000e+03,3.401241302490234375e-01,2.058400869369506836e+00,7.379232564056608101e-01,0.000000000000000000e+00,1.120000000000000000e+02
1.000000000000000000e+00,1.000000000000000000e+00,1.000000000000000000e+00,5.700000000000000000e+01,4.237000000000000000e+03,2.715361118316650391e-01,1.595976114273071289e+00,3.343323636413987332e-01,0.000000000000000000e+00,1.120000000000000000e+02
0.000000000000000000e+00,1.000000000000000000e+00,0.000000000000000000e+00,6.100000000000000000e+01,4.298000000000000000e+03,2.986021041870117188e-01,1.837826967239379883e+00,5.386895632346342389e-01,0.000000000000000000e+00,1.120000000000000000e+02
0.000000000000000000e+00,1.000000000000000000e+00,0.000000000000000000e+00,6.400000000000000000e+01,4.362000000000000000e+03,3.233039379119873047e-01,1.762632131576538086e+00,4.514514846367699841e-01,0.000000000000000000e+00,1.120000000000000000e+02
1.000000000000000000e+00,1.000000000000000000e+00,1.000000000000000000e+00,5.700000000000000000e+01,4.419000000000000000e+03,2.618548870086669922e-01,1.842972040176391602e+00,5.777127352986604070e-01,0.000000000000000000e+00,1.120000000000000000e+02
0.000000000000000000e+00,1.000000000000000000e+00,0.000000000000000000e+00,6.700000000000000000e+01,4.486000000000000000e+03,2.925779819488525391e-01,1.747832059860229492e+00,4.756891145655135489e-01,0.000000000000000000e+00,1.120000000000000000e+02
0.000000000000000000e+00,1.000000000000000000e+00,0.000000000000000000e+00,6.300000000000000000e+01,4.549000000000000000e+03,3.066329956054687500e-01,1.641851902008056641e+00,3.510552517876449063e-01,0.000000000000000000e+00,1.120000000000000000e+02
1.000000000000000000e+00,1.000000000000000000e+00,1.000000000000000000e+00,6.200000000000000000e+01,4.611000000000000000e+03,2.636091709136962891e-01,1.879746913909912109e+00,6.139296922738712858e-01,0.000000000000000000e+00,1.120000000000000000e+02
0.000000000000000000e+00,1.000000000000000000e+00,0.000000000000000000e+00,6.000000000000000000e+01,4.671000000000000000e+03,2.710819244384765625e-01,1.725769042968750000e+00,4.732481287906181722e-01,0.000000000000000000e+00,1.120000000000000000e+02
0.000000000000000000e+00,1.000000000000000000e+00,0.000000000000000000e+00,6.500000000000000000e+01,4.736000000000000000e+03,2.808320522308349609e-01,1.628661155700683594e+00,3.520896947561028556e-01,0.000000000000000000e+00,1.120000000000000000e+02
0.000000000000000000e+00,1.000000000000000000e+00,0.000000000000000000e+00,5.600000000000000000e+01,4.792000000000000000e+03,3.204150199890136719e-01,1.872633934020996094e+00,5.578924110394373193e-01,0.000000000000000000e+00,1.120000000000000000e+02
0.000000000000000000e+00,1.000000000000000000e+00,0.000000000000000000e+00,6.200000000000000000e+01,4.854000000000000000e+03,2.699279785156250000e-01,1.890407085418701172e+00,6.316240253301779184e-01,0.000000000000000000e+00,1.120000000000000000e+02
0.000000000000000000e+00,1.000000000000000000e+00,0.000000000000000000e+00,6.000000000000000000e+01,4.914000000000000000e+03,2.606651782989501953e-01,1.984158039093017578e+00,7.490570711334648690e-01,0.000000000000000000e+00,1.120000000000000000e+02
0.000000000000000000e+00,1.000000000000000000e+00,0.000000000000000000e+00,5.600000000000000000e+01,4.970000000000000000e+03,2.727081775665283203e-01,1.820375919342041016e+00,5.530466251183985271e-01,0.000000000000000000e+00,1.120000000000000000e+02
1.000000000000000000e+00,1.000000000000000000e+00,1.000000000000000000e+00,6.800000000000000000e+01,5.038000000000000000e+03,3.261218070983886719e-01,1.814081192016601562e+00,5.006007111483559147e-01,0.000000000000000000e+00,1.120000000000000000e+02
1.000000000000000000e+00,1.000000000000000000e+00,1.000000000000000000e+00,6.400000000000000000e+01,5.102000000000000000e+03,2.745480537414550781e-01,1.607920885086059570e+00,3.420651962806197099e-01,0.000000000000000000e+00,1.120000000000000000e+02
0.000000000000000000e+00,1.000000000000000000e+00,0.000000000000000000e+00,6.300000000000000000e+01,5.165000000000000000e+03,2.564768791198730469e-01,1.559914112091064453e+00,3.187209478291567200e-01,0.000000000000000000e+00,1.120000000000000000e+02
1.000000000000000000e+00,1.000000000000000000e+00,1.000000000000000000e+00,6.500000000000000000e+01,5.230000000000000000e+03,2.748789787292480469e-01,1.797353982925415039e+00,5.325810519477639504e-01,0.000000000000000000e+00,1.120000000000000000e+02
0.000000000000000000e+00,1.000000000000000000e+00,0.000000000000000000e+00,6.700000000000000000e+01,5.297000000000000000e+03,2.699329853057861328e-01,1.825120925903320312e+00,5.577271957307734507e-01,0.000000000000000000e+00,1.120000000000000000e+02
1.000000000000000000e+00,1.000000000000000000e+00,1.000000000000000000e+00,6.200000000000000000e+01,5.359000000000000000e+03,1.983089447021484375e-01,1.834056138992309570e+00,6.417406385773480881e-01,0.000000000000000000e+00,1.120000000000000000e+02
1.000000000000000000e+00,1.000000000000000000e+00,1.000000000000000000e+00,6.400000000000000000e+01,5.423000000000000000e+03,3.030569553375244141e-01,1.894379138946533203e+00,6.029200726442203173e-01,0.000000000000000000e+00,1.120000000000000000e+02
1.000000000000000000e+00,1.000000000000000000e+00,1.000000000000000000e+00,5.500000000000000000e+01,5.478000000000000000e+03,2.431521415710449219e-01,1.917631864547729492e+00,6.871628496470192360e-01,0.000000000000000000e+00,1.120000000000000000e+02
1.000000000000000000e+00,1.000000000000000000e+00,1.000000000000000000e+00,6.200000000000000000e+01,5.540000000000000000e+03,2.595341205596923828e-01,1.667835950851440430e+00,4.220281116431742197e-01,0.000000000000000000e+00,1.120000000000000000e+02
0.000000000000000000e+00,1.000000000000000000e+00,0.000000000000000000e+00,6.100000000000000000e+01,5.601000000000000000e+03,2.729070186614990234e-01,1.516039133071899414e+00,2.549727948365154151e-01,0.000000000000000000e+00,1.120000000000000000e+02
1.000000000000000000e+00,1.000000000000000000e+00,1.000000000000000000e+00,7.000000000000000000e+01,5.671000000000000000e+03,2.542598247528076172e-01,1.568538904190063477e+00,3.234950298873225938e-01,0.000000000000000000e+00,1.120000000000000000e+02
1.000000000000000000e+00,1.000000000000000000e+00,1.000000000000000000e+00,6.000000000000000000e+01,5.731000000000000000e+03,3.028068542480468750e-01,1.582791090011596680e+00,2.897067644349076154e-01,0.000000000000000000e+00,1.120000000000000000e+02
1.000000000000000000e+00,0.000000000000000000e+00,0.000000000000000000e+00,3.800000000000000000e+01,5.769000000000000000e+03,2.555170059204101562e-01,1.926856994628906250e+00,6.828490344380825361e-01,1.000000000000000000e+00,1.110000000000000000e+02
1.000000000000000000e+00,1.000000000000000000e+00,1.000000000000000000e+00,6.200000000000000000e+01,5.831000000000000000e+03,2.802469730377197266e-01,1.789298057556152344e+00,5.057615594287353522e-01,0.000000000000000000e+00,1.110000000000000000e+02
0.000000000000000000e+00,1.000000000000000000e+00,0.000000000000000000e+00,7.100000000000000000e+01,5.902000000000000000e+03,2.758588790893554688e-01,1.623298883438110352e+00,3.625977345755790893e-01,0.000000000000000000e+00,1.110000000000000000e+02
0.000000000000000000e+00,1.000000000000000000e+00,0.000000000000000000e+00,6.200000000000000000e+01,5.964000000000000000e+03,2.992539405822753906e-01,1.829993009567260742e+00,5.424251607394886543e-01,0.000000000000000000e+00,1.110000000000000000e+02
1.000000000000000000e+00,1.000000000000000000e+00,1.000000000000000000e+00,6.200000000000000000e+01,6.026000000000000000e+03,2.679789066314697266e-01,1.533380031585693359e+00,2.761876815644667693e-01,0.000000000000000000e+00,1.110000000000000000e+02
1.000000000000000000e+00,1.000000000000000000e+00,1.000000000000000000e+00,6.400000000000000000e+01,6.090000000000000000e+03,2.867381572723388672e-01,1.950870990753173828e+00,6.766832262740769544e-01,0.000000000000000000e+00,1.110000000000000000e+02
1.000000000000000000e+00,1.000000000000000000e+00,1.000000000000000000e+00,6.900000000000000000e+01,6.159000000000000000e+03,2.257859706878662109e-01,1.709998130798339844e+00,5.036021992578831874e-01,0.000000000000000000e+00,1.110000000000000000e+02
0.000000000000000000e+00,1.000000000000000000e+00,0.000000000000000000e+00,6.400000000000000000e+01,6.223000000000000000e+03,2.662138938903808594e-01,1.870955944061279297e+00,6.078422902464775124e-01,0.000000000000000000e+00,1.110000000000000000e+02
1.000000000000000000e+00,1.000000000000000000e+00,1.000000000000000000e+00,6.600000000000000000e+01,6.289000000000000000e+03,2.465817928314208984e-01,1.699722051620483398e+00,4.577566190660932177e-01,0.000000000000000000e+00,1.110000000000000000e+02
1.000000000000000000e+00,1.000000000000000000e+00,1.000000000000000000e+00,6.600000000000000000e+01,6.355000000000000000e+03,2.416749000549316406e-01,1.669692993164062500e+00,4.442090605538810966e-01,0.000000000000000000e+00,1.110000000000000000e+02
0.000000000000000000e+00,1.000000000000000000e+00,0.000000000000000000e+00,6.400000000000000000e+01,6.419000000000000000e+03,2.900347709655761719e-01,1.535389900207519531e+00,2.631894830056666912e-01,0.000000000000000000e+00,1.110000000000000000e+02
1.000000000000000000e+00,1.000000000000000000e+00,1.000000000000000000e+00,6.600000000000000000e+01,6.485000000000000000e+03,2.578601837158203125e-01,1.847948789596557617e+00,6.108158403157641914e-01,0.000000000000000000e+00,1.110000000000000000e+02
1.000000000000000000e+00,1.000000000000000000e+00,1.000000000000000000e+00,6.700000000000000000e+01,6.552000000000000000e+03,2.627661228179931641e-01,1.855443000793457031e+00,5.996787261232292554e-01,0.000000000000000000e+00,1.110000000000000000e+02
0.000000000000000000e+00,1.000000000000000000e+00,0.000000000000000000e+00,6.200000000000000000e+01,6.614000000000000000e+03,2.842581272125244141e-01,1.609358072280883789e+00,3.260435076167854107e-01,0.000000000000000000e+00,1.110000000000000000e+02
1.000000000000000000e+00,0.000000000000000000e+00,0.000000000000000000e+00,3.200000000000000000e+01,6.646000000000000000e+03,2.042601108551025391e-01,1.750641822814941406e+00,5.598599645192059437e-01,0.000000000000000000e+00,1.110000000000000000e+02
1.000000000000000000e+00,1.000000000000000000e+00,1.000000000000000000e+00,6.600000000000000000e+01,6.712000000000000000e+03,2.624289989471435547e-01,1.555367946624755859e+00,2.988804924854964740e-01,0.000000000000000000e+00,1.110000000000000000e+02
1.000000000000000000e+00,1.000000000000000000e+00,1.000000000000000000e+00,6.100000000000000000e+01,6.773000000000000000e+03,3.332269191741943359e-01,1.644554853439331055e+00,2.934767644468843084e-01,0.000000000000000000e+00,1.110000000000000000e+02
1.000000000000000000e+00,1.000000000000000000e+00,1.000000000000000000e+00,6.300000000000000000e+01,6.836000000000000000e+03,2.705991268157958984e-01,1.990379095077514648e+00,7.334733435615414798e-01,0.000000000000000000e+00,1.110000000000000000e+02
0.000000000000000000e+00,1.000000000000000000e+00,0.000000000000000000e+00,5.900000000000000000e+01,6.895000000000000000e+03,3.425099849700927734e-01,1.640180110931396484e+00,3.074660775074664065e-01,0.000000000000000000e+00,1.110000000000000000e+02
1.000000000000000000e+00,1.000000000000000000e+00,1.000000000000000000e+00,6.600000000000000000e+01,6.961000000000000000e+03,2.442390918731689453e-01,1.762290954589843750e+00,5.362743068918538469e-01,0.000000000000000000e+00,1.110000000000000000e+02
0.000000000000000000e+00,1.000000000000000000e+00,0.000000000000000000e+00,6.200000000000000000e+01,7.023000000000000000e+03,2.996628284454345703e-01,1.876657962799072266e+00,5.795842431208351186e-01,0.000000000000000000e+00,1.110000000000000000e+02
0.000000000000000000e+00,1.000000000000000000e+00,0.000000000000000000e+00,6.400000000000000000e+01,7.087000000000000000e+03,2.811338901519775391e-01,1.717324018478393555e+00,4.471385829288969660e-01,0.000000000000000000e+00,1.110000000000000000e+02
1.000000000000000000e+00,1.000000000000000000e+00,1.000000000000000000e+00,6.500000000000000000e+01,7.152000000000000000e+03,2.835528850555419922e-01,1.900347232818603516e+00,6.306997467337844832e-01,0.000000000000000000e+00,1.110000000000000000e+02
0.000000000000000000e+00,1.000000000000000000e+00,0.000000000000000000e+00,6.700000000000000000e+01,7.219000000000000000e+03,2.955877780914306641e-01,2.024484872817993164e+00,7.384494888456861750e-01,0.000000000000000000e+00,1.110000000000000000e+02
1.000000000000000000e+00,1.000000000000000000e+00,1.000000000000000000e+00,6.700000000000000000e+01,7.286000000000000000e+03,2.623169422149658203e-01,1.765664100646972656e+00,5.044308766690710488e-01,0.000000000000000000e+00,1.110000000000000000e+02
0.000000000000000000e+00,1.000000000000000000e+00,0.000000000000000000e+00,6.700000000000000000e+01,7.353000000000000000e+03,2.687330245971679688e-01,1.627577066421508789e+00,3.655479271691247645e-01,0.000000000000000000e+00,1.110000000000000000e+02
0.000000000000000000e+00,1.000000000000000000e+00,0.000000000000000000e+00,6.500000000000000000e+01,7.418000000000000000e+03,3.034520149230957031e-01,1.956530809402465820e+00,6.551607798841132535e-01,0.000000000000000000e+00,1.110000000000000000e+02
0.000000000000000000e+00,1.000000000000000000e+00,0.000000000000000000e+00,6.300000000000000000e+01,7.481000000000000000e+03,2.605340480804443359e-01,1.764558792114257812e+00,5.032646447546567092e-01,0.000000000000000000e+00,1.110000000000000000e+02
0.000000000000000000e+00,1.000000000000000000e+00,0.000000000000000000e+00,6.400000000000000000e+01,7.545000000000000000e+03,2.359051704406738281e-01,1.618732213973999023e+00,3.888619613669247466e-01,0.000000000000000000e+00,1.110000000000000000e+02
0.000000000000000000e+00,1.000000000000000000e+00,0.000000000000000000e+00,6.300000000000000000e+01,7.608000000000000000e+03,2.752909660339355469e-01,1.879971027374267578e+00,6.186418538481684992e-01,0.000000000000000000e+00,1.110000000000000000e+02
1.000000000000000000e+00,1.000000000000000000e+00,1.000000000000000000e+00,6.200000000000000000e+01,7.670000000000000000e+03,2.490298748016357422e-01,1.727864027023315430e+00,4.800662095470044632e-01,0.000000000000000000e+00,1.110000000000000000e+02
0.000000000000000000e+00,1.000000000000000000e+00,0.000000000000000000e+00,6.600000000000000000e+01,7.736000000000000000e+03,2.444090843200683594e-01,1.476176023483276367e+00,2.565298227198263281e-01,0.000000000000000000e+00,1.110000000000000000e+02
1.000000000000000000e+00,1.000000000000000000e+00,1.000000000000000000e+00,6.800000000000000000e+01,7.804000000000000000e+03,2.951691150665283203e-01,1.878630876541137695e+00,5.848642357668918379e-01,0.000000000000000000e+00,1.110000000000000000e+02
1.000000000000000000e+00,1.000000000000000000e+00,1.000000000000000000e+00,6.600000000000000000e+01,7.870000000000000000e+03,2.818610668182373047e-01,1.667493820190429688e+00,3.859802715872985290e-01,0.000000000000000000e+00,1.110000000000000000e+02
1.000000000000000000e+00,1.000000000000000000e+00,1.000000000000000000e+00,6.400000000000000000e+01,7.934000000000000000e+03,2.813060283660888672e-01,1.577218055725097656e+00,2.966693458004415751e-01,0.000000000000000000e+00,1.110000000000000000e+02
0.000000000000000000e+00,1.000000000000000000e+00,0.000000000000000000e+00,6.200000000000000000e+01,7.996000000000000000e+03,2.707099914550781250e-01,1.694533109664916992e+00,4.410931661155970129e-01,0.000000000000000000e+00,1.110000000000000000e+02
1.000000000000000000e+00,1.000000000000000000e+00,1.000000000000000000e+00,6.300000000000000000e+01,8.059000000000000000e+03,2.256669998168945312e-01,1.600517988204956055e+00,3.917263690314021773e-01,0.000000000000000000e+00,1.110000000000000000e+02
1.000000000000000000e+00,0.000000000000000000e+00,0.000000000000000000e+00,3.800000000000000000e+01,8.097000000000000000e+03,2.777349948883056641e-01,1.873780965805053711e+00,6.153170571094215280e-01,1.000000000000000000e+00,1.120000000000000000e+02
1.000000000000000000e+00,1.000000000000000000e+00,1.000000000000000000e+00,6.100000000000000000e+01,8.158000000000000000e+03,3.155088424682617188e-01,1.703089952468872070e+00,3.854246666291298862e-01,0.000000000000000000e+00,1.120000000000000000e+02
1.000000000000000000e+00,1.000000000000000000e+00,1.000000000000000000e+00,6.300000000000000000e+01,8.221000000000000000e+03,3.145439624786376953e-01,1.634021997451782227e+00,3.195416576014082910e-01,0.000000000000000000e+00,1.120000000000000000e+02
0.000000000000000000e+00,1.000000000000000000e+00,0.000000000000000000e+00,6.100000000000000000e+01,8.282000000000000000e+03,2.832758426666259766e-01,1.566133975982666016e+00,2.857668141228196235e-01,0.000000000000000000e+00,1.120000000000000000e+02
1.000000000000000000e+00,1.000000000000000000e+00,1.000000000000000000e+00,6.100000000000000000e+01,8.343000000000000000e+03,2.726330757141113281e-01,1.686908006668090820e+00,4.225965717917125608e-01,0.000000000000000000e+00,1.120000000000000000e+02
1.000000000000000000e+00,1.000000000000000000e+00,1.000000000000000000e+00,5.700000000000000000e+01,8.400000000000000000e+03,2.613570690155029297e-01,1.532105922698974609e+00,2.882353171100475175e-01,0.000000000000000000e+00,1.120000000000000000e+02
1.000000000000000000e+00,1.000000000000000000e+00,1.000000000000000000e+00,6.200000000000000000e+01,8.462000000000000000e+03,2.300939559936523438e-01,1.954373121261596680e+00,7.255435997858834529e-01,0.000000000000000000e+00,1.120000000000000000e+02
0.000000000000000000e+00,1.000000000000000000e+00,0.000000000000000000e+00,6.300000000000000000e+01,8.525000000000000000e+03,3.072369098663330078e-01,1.610534906387329102e+00,3.198878555851084049e-01,0.000000000000000000e+00,1.120000000000000000e+02
1.000000000000000000e+00,1.000000000000000000e+00,1.000000000000000000e+00,6.600000000000000000e+01,8.591000000000000000e+03,2.496352195739746094e-01,1.965919017791748047e+00,7.187844389306896620e-01,0.000000000000000000e+00,1.120000000000000000e+02
1.000000000000000000e+00,1.000000000000000000e+00,1.000000000000000000e+00,6.900000000000000000e+01,8.660000000000000000e+03,2.721948623657226562e-01,1.695779800415039062e+00,4.316005157522242452e-01,0.000000000000000000e+00,1.120000000000000000e+02
0.000000000000000000e+00,1.000000000000000000e+00,0.000000000000000000e+00,6.200000000000000000e+01,8.722000000000000000e+03,3.307538032531738281e-01,1.600414991378784180e+00,2.822539526780395991e-01,0.000000000000000000e+00,1.120000000000000000e+02
1.000000000000000000e+00,1.000000000000000000e+00,1.000000000000000000e+00,6.000000000000000000e+01,8.782000000000000000e+03,2.653779983520507812e-01,1.619848012924194336e+00,3.353010820354337951e-01,0.000000000000000000e+00,1.120000000000000000e+02
0.000000000000000000e+00,1.000000000000000000e+00,0.000000000000000000e+00,5.600000000000000000e+01,8.838000000000000000e+03,2.564589977264404297e-01,1.498301029205322266e+00,2.505540378525027978e-01,0.000000000000000000e+00,1.120000000000000000e+02
1.000000000000000000e+00,1.000000000000000000e+00,1.000000000000000000e+00,6.200000000000000000e+01,8.900000000000000000e+03,2.205460071563720703e-01,1.607107162475585938e+00,3.908609071043829819e-01,0.000000000000000000e+00,1.120000000000000000e+02
1.000000000000000000e+00,1.000000000000000000e+00,1.000000000000000000e+00,6.300000000000000000e+01,8.963000000000000000e+03,2.895328998565673828e-01,1.931011915206909180e+00,6.549849027866042617e-01,0.000000000000000000e+00,1.120000000000000000e+02
1.000000000000000000e+00,1.000000000000000000e+00,1.000000000000000000e+00,5.500000000000000000e+01,9.018000000000000000e+03,2.662820816040039062e-01,1.525007963180541992e+00,2.637994168124725425e-01,0.000000000000000000e+00,1.120000000000000000e+02
1.000000000000000000e+00,1.000000000000000000e+00,1.000000000000000000e+00,6.400000000000000000e+01,9.082000000000000000e+03,2.556300163269042969e-01,1.576580047607421875e+00,3.403788659573804276e-01,0.000000000000000000e+00,1.120000000000000000e+02
0.000000000000000000e+00,1.000000000000000000e+00,0.000000000000000000e+00,6.100000000000000000e+01,9.143000000000000000e+03,4.290671348571777344e-01,2.089781999588012695e+00,6.632257898810201002e-01,0.000000000000000000e+00,1.120000000000000000e+02
0.000000000000000000e+00,1.000000000000000000e+00,0.000000000000000000e+00,5.600000000000000000e+01,9.199000000000000000e+03,2.931509017944335938e-01,1.755102157592773438e+00,4.852256183602451367e-01,0.000000000000000000e+00,1.120000000000000000e+02
0.000000000000000000e+00,1.000000000000000000e+00,0.000000000000000000e+00,5.900000000000000000e+01,9.258000000000000000e+03,2.625648975372314453e-01,1.927993059158325195e+00,6.630750015082585991e-01,0.000000000000000000e+00,1.120000000000000000e+02
1.000000000000000000e+00,1.000000000000000000e+00,1.000000000000000000e+00,5.600000000000000000e+01,9.314000000000000000e+03,2.689700126647949219e-01,1.785223960876464844e+00,5.318250686072030220e-01,0.000000000000000000e+00,1.120000000000000000e+02
1.000000000000000000e+00,1.000000000000000000e+00,1.000000000000000000e+00,6.100000000000000000e+01,9.375000000000000000e+03,2.877099514007568359e-01,1.797256946563720703e+00,5.291624440317863609e-01,0.000000000000000000e+00,1.120000000000000000e+02
1.000000000000000000e+00,1.000000000000000000e+00,1.000000000000000000e+00,5.600000000000000000e+01,9.431000000000000000e+03,2.427461147308349609e-01,1.914701223373413086e+00,6.937638276274538107e-01,0.000000000000000000e+00,1.120000000000000000e+02
1.000000000000000000e+00,1.000000000000000000e+00,1.000000000000000000e+00,6.000000000000000000e+01,9.491000000000000000e+03,2.861549854278564453e-01,1.807061910629272461e+00,5.344105127736219485e-01,0.000000000000000000e+00,1.120000000000000000e+02
1.000000000000000000e+00,0.000000000000000000e+00,0.000000000000000000e+00,4.000000000000000000e+01,9.531000000000000000e+03,1.855919361114501953e-01,1.668812990188598633e+00,4.866343456411464374e-01,0.000000000000000000e+00,1.120000000000000000e+02
1.000000000000000000e+00,1.000000000000000000e+00,1.000000000000000000e+00,6.300000000000000000e+01,9.594000000000000000e+03,2.819459438323974609e-01,1.993808031082153320e+00,7.135985151575254815e-01,0.000000000000000000e+00,1.120000000000000000e+02
0.000000000000000000e+00,1.000000000000000000e+00,0.000000000000000000e+00,6.500000000000000000e+01,9.659000000000000000e+03,2.377099990844726562e-01,1.779489994049072266e+00,5.599937514647466141e-01,0.000000000000000000e+00,1.120000000000000000e+02
0.000000000000000000e+00,1.000000000000000000e+00,0.000000000000000000e+00,6.700000000000000000e+01,9.726000000000000000e+03,2.904078960418701172e-01,1.968204021453857422e+00,6.947873386206520063e-01,0.000000000000000000e+00,1.120000000000000000e+02
1.000000000000000000e+00,1.000000000000000000e+00,1.000000000000000000e+00,6.600000000000000000e+01,9.792000000000000000e+03,2.828910350799560547e-01,1.795174121856689453e+00,5.235388291756783996e-01,0.000000000000000000e+00,1.120000000000000000e+02
0.000000000000000000e+00,1.000000000000000000e+00,0.000000000000000000e+00,6.600000000000000000e+01,9.858000000000000000e+03,2.479660511016845703e-01,1.512211799621582031e+00,2.694050193419194605e-01,0.000000000000000000e+00,1.120000000000000000e+02
1.000000000000000000e+00,1.000000000000000000e+00,1.000000000000000000e+00,6.400000000000000000e+01,9.922000000000000000e+03,2.942421436309814453e-01,2.026180028915405273e+00,7.284885513987642280e-01,0.000000000000000000e+00,1.120000000000000000e+02
1.000000000000000000e+00,1.000000000000000000e+00,1.000000000000000000e+00,6.700000000000000000e+01,9.989000000000000000e+03,3.676640987396240234e-01,2.014466047286987305e+00,6.597693696140181085e-01,0.000000000000000000e+00,1.120000000000000000e+02
0.000000000000000000e+00,1.000000000000000000e+00,0.000000000000000000e+00,5.400000000000000000e+01,1.004300000000000000e+04,2.660670280456542969e-01,1.915818929672241211e+00,6.590083034873404078e-01,0.000000000000000000e+00,1.120000000000000000e+02
0.000000000000000000e+00,1.000000000000000000e+00,0.000000000000000000e+00,6.600000000000000000e+01,1.010900000000000000e+04,2.964711189270019531e-01,1.573374032974243164e+00,2.828465006551915129e-01,0.000000000000000000e+00,1.120000000000000000e+02
1.000000000000000000e+00,1.000000000000000000e+00,1.000000000000000000e+00,6.200000000000000000e+01,1.017100000000000000e+04,2.771730422973632812e-01,1.984493017196655273e+00,7.169295131609990657e-01,0.000000000000000000e+00,1.120000000000000000e+02
1.000000000000000000e+00,1.000000000000000000e+00,1.000000000000000000e+00,5.600000000000000000e+01,1.022700000000000000e+04,2.579488754272460938e-01,1.770999908447265625e+00,5.215292548649825832e-01,0.000000000000000000e+00,1.120000000000000000e+02
1.000000000000000000e+00,1.000000000000000000e+00,1.000000000000000000e+00,6.100000000000000000e+01,1.028800000000000000e+04,2.743670940399169922e-01,1.881816864013671875e+00,6.199607955909200996e-01,0.000000000000000000e+00,1.120000000000000000e+02
0.000000000000000000e+00,0.000000000000000000e+00,1.000000000000000000e+00,3.700000000000000000e+01,1.032500000000000000e+04,2.160470485687255859e-01,1.730513095855712891e+00,5.173433395035798021e-01,0.000000000000000000e+00,1.120000000000000000e+02
0.000000000000000000e+00,1.000000000000000000e+00,0.000000000000000000e+00,5.400000000000000000e+01,1.037900000000000000e+04,2.816810607910156250e-01,1.868444919586181641e+00,5.857525184811236407e-01,0.000000000000000000e+00,1.120000000000000000e+02
1.000000000000000000e+00,0.000000000000000000e+00,0.000000000000000000e+00,4.100000000000000000e+01,1.042000000000000000e+04,2.541460990905761719e-01,1.893796920776367188e+00,6.462071039460055566e-01,1.000000000000000000e+00,1.110000000000000000e+02
1.000000000000000000e+00,0.000000000000000000e+00,0.000000000000000000e+00,3.600000000000000000e+01,1.045600000000000000e+04,2.888441085815429688e-01,1.814095973968505859e+00,5.438189189592137485e-01,0.000000000000000000e+00,1.110000000000000000e+02
1.000000000000000000e+00,1.000000000000000000e+00,1.000000000000000000e+00,6.700000000000000000e+01,1.052300000000000000e+04,2.814099788665771484e-01,1.805685997009277344e+00,5.329561734975836185e-01,0.000000000000000000e+00,1.110000000000000000e+02
0.000000000000000000e+00,1.000000000000000000e+00,0.000000000000000000e+00,6.300000000000000000e+01,1.058600000000000000e+04,2.827291488647460938e-01,1.809881925582885742e+00,5.261945101265508296e-01,0.000000000000000000e+00,1.110000000000000000e+02
1.000000000000000000e+00,1.000000000000000000e+00,1.000000000000000000e+00,6.300000000000000000e+01,1.064900000000000000e+04,2.498421669006347656e-01,1.985423088073730469e+00,7.447798184649727649e-01,0.000000000000000000e+00,1.110000000000000000e+02
0.000000000000000000e+00,1.000000000000000000e+00,0.000000000000000000e+00,6.400000000000000000e+01,1.071300000000000000e+04,2.825059890747070312e-01,1.563825130462646484e+00,2.924875957257569992e-01,0.000000000000000000e+00,1.110000000000000000e+02
0.000000000000000000e+00,1.000000000000000000e+00,0.000000000000000000e+00,6.100000000000000000e+01,1.077400000000000000e+04,3.229079246520996094e-01,1.752851009368896484e+00,4.452419213473057802e-01,0.000000000000000000e+00,1.110000000000000000e+02
0.000000000000000000e+00,1.000000000000000000e+00,0.000000000000000000e+00,5.900000000000000000e+01,1.083300000000000000e+04,3.601000308990478516e-01,1.819991827011108398e+00,4.652513595412842151e-01,0.000000000000000000e+00,1.110000000000000000e+02
0.000000000000000000e+00,1.000000000000000000e+00,0.000000000000000000e+00,6.400000000000000000e+01,1.089700000000000000e+04,2.703380584716796875e-01,1.655856132507324219e+00,4.045624944717511884e-01,0.000000000000000000e+00,1.110000000000000000e+02
0.000000000000000000e+00,1.000000000000000000e+00,0.000000000000000000e+00,5.700000000000000000e+01,1.095400000000000000e+04,2.376859188079833984e-01,1.778898000717163086e+00,5.500283120658442382e-01,0.000000000000000000e+00,1.110000000000000000e+02
1.000000000000000000e+00,1.000000000000000000e+00,1.000000000000000000e+00,6.300000000000000000e+01,1.101700000000000000e+04,3.064389228820800781e-01,1.854906082153320312e+00,5.550030449565557245e-01,0.000000000000000000e+00,1.110000000000000000e+02
0.000000000000000000e+00,1.000000000000000000e+00,0.000000000000000000e+00,6.400000000000000000e+01,1.108100000000000000e+04,2.915489673614501953e-01,2.005806922912597656e+00,7.273647405846518366e-01,0.000000000000000000e+00,1.110000000000000000e+02
1.000000000000000000e+00,1.000000000000000000e+00,1.000000000000000000e+00,6.300000000000000000e+01,1.114400000000000000e+04,2.895779609680175781e-01,1.689395189285278320e+00,4.171090119110394956e-01,0.000000000000000000e+00,1.110000000000000000e+02
0.000000000000000000e+00,1.000000000000000000e+00,0.000000000000000000e+00,6.400000000000000000e+01,1.120800000000000000e+04,2.646200656890869141e-01,1.897918939590454102e+00,6.315903225759634809e-01,0.000000000000000000e+00,1.110000000000000000e+02
0.000000000000000000e+00,1.000000000000000000e+00,0.000000000000000000e+00,6.300000000000000000e+01,1.127100000000000000e+04,2.474269866943359375e-01,1.541188001632690430e+00,3.064822209002475151e-01,0.000000000000000000e+00,1.110000000000000000e+02
1.000000000000000000e+00,1.000000000000000000e+00,1.000000000000000000e+00,5.600000000000000000e+01,1.132700000000000000e+04,3.074259757995605469e-01,1.632117033004760742e+00,3.386154328197329977e-01,0.000000000000000000e+00,1.110000000000000000e+02
1.000000000000000000e+00,1.000000000000000000e+00,1.000000000000000000e+00,5.700000000000000000e+01,1.138400000000000000e+04,2.772259712219238281e-01,1.556454896926879883e+00,2.785427703638343466e-01,0.000000000000000000e+00,1.110000000000000000e+02
0.000000000000000000e+00,1.000000000000000000e+00,0.000000000000000000e+00,6.100000000000000000e+01,1.144500000000000000e+04,2.542049884796142578e-01,1.922792911529541016e+00,6.843457299130426552e-01,0.000000000000000000e+00,1.110000000000000000e+02
1.000000000000000000e+00,1.000000000000000000e+00,1.000000000000000000e+00,6.800000000000000000e+01,1.151300000000000000e+04,2.589118480682373047e-01,1.720426082611083984e+00,4.716949508093188914e-01,0.000000000000000000e+00,1.110000000000000000e+02
0.000000000000000000e+00,1.000000000000000000e+00,0.000000000000000000e+00,6.500000000000000000e+01,1.157800000000000000e+04,2.692570686340332031e-01,1.776991844177246094e+00,5.153571698795349487e-01,0.000000000000000000e+00,1.110000000000000000e+02
1.000000000000000000e+00,1.000000000000000000e+00,1.000000000000000000e+00,6.800000000000000000e+01,1.164600000000000000e+04,2.271139621734619141e-01,1.928074836730957031e+00,7.100088689370924744e-01,0.000000000000000000e+00,1.110000000000000000e+02
1.000000000000000000e+00,1.000000000000000000e+00,1.000000000000000000e+00,6.500000000000000000e+01,1.171100000000000000e+04,2.555201053619384766e-01,1.532001018524169922e+00,2.924442288507713150e-01,1.000000000000000000e+00,1.120000000000000000e+02
0.000000000000000000e+00,1.000000000000000000e+00,0.000000000000000000e+00,5.900000000000000000e+01,1.177000000000000000e+04,2.992520332336425781e-01,2.017804145812988281e+00,7.265377082610686710e-01,0.000000000000000000e+00,1.120000000000000000e+02
0.000000000000000000e+00,0.000000000000000000e+00,1.000000000000000000e+00,4.500000000000000000e+01,1.181500000000000000e+04,4.138009548187255859e-01,1.724004983901977539e+00,3.176781689827454236e-01,0.000000000000000000e+00,1.120000000000000000e+02
0.000000000000000000e+00,1.000000000000000000e+00,0.000000000000000000e+00,6.100000000000000000e+01,1.187600000000000000e+04,3.173630237579345703e-01,1.854665040969848633e+00,5.388387622612433869e-01,0.000000000000000000e+00,1.120000000000000000e+02
0.000000000000000000e+00,1.000000000000000000e+00,0.000000000000000000e+00,6.300000000000000000e+01,1.193900000000000000e+04,2.903831005096435547e-01,1.583858966827392578e+00,3.063629451470054055e-01,0.000000000000000000e+00,1.120000000000000000e+02
1.000000000000000000e+00,1.000000000000000000e+00,1.000000000000000000e+00,5.600000000000000000e+01,1.199500000000000000e+04,4.121198654174804688e-01,1.671731948852539062e+00,2.615474792274762872e-01,0.000000000000000000e+00,1.120000000000000000e+02
1.000000000000000000e+00,1.000000000000000000e+00,1.000000000000000000e+00,6.300000000000000000e+01,1.205800000000000000e+04,3.005020618438720703e-01,1.809602975845336914e+00,5.209493212406534068e-01,0.000000000000000000e+00,1.120000000000000000e+02
0.000000000000000000e+00,1.000000000000000000e+00,0.000000000000000000e+00,6.200000000000000000e+01,1.212000000000000000e+04,3.139119148254394531e-01,1.836277961730957031e+00,5.239028227552708916e-01,0.000000000000000000e+00,1.120000000000000000e+02
0.000000000000000000e+00,1.000000000000000000e+00,0.000000000000000000e+00,6.400000000000000000e+01,1.218400000000000000e+04,2.466988563537597656e-01,1.840296030044555664e+00,5.975454579240033759e-01,0.000000000000000000e+00,1.120000000000000000e+02
1.000000000000000000e+00,1.000000000000000000e+00,1.000000000000000000e+00,6.500000000000000000e+01,1.224900000000000000e+04,2.513580322265625000e-01,1.867724895477294922e+00,6.319491765455720333e-01,0.000000000000000000e+00,1.120000000000000000e+02
0.000000000000000000e+00,1.000000000000000000e+00,0.000000000000000000e+00,5.900000000000000000e+01,1.230800000000000000e+04,2.541329860687255859e-01,1.925801992416381836e+00,6.744670653564490692e-01,0.000000000000000000e+00,1.120000000000000000e+02
1.000000000000000000e+00,1.000000000000000000e+00,1.000000000000000000e+00,6.400000000000000000e+01,1.237200000000000000e+04,2.595219612121582031e-01,1.623579978942871094e+00,3.817335521879076099e-01,0.000000000000000000e+00,1.120000000000000000e+02
1.000000000000000000e+00,1.000000000000000000e+00,1.000000000000000000e+00,6.300000000000000000e+01,1.243500000000000000e+04,2.748999595642089844e-01,1.590261220932006836e+00,3.387597689702689374e-01,0.000000000000000000e+00,1.120000000000000000e+02
1.000000000000000000e+00,1.000000000000000000e+00,1.000000000000000000e+00,5.700000000000000000e+01,1.249200000000000000e+04,3.310048580169677734e-01,1.713961839675903320e+00,3.860607964000432046e-01,0.000000000000000000e+00,1.120000000000000000e+02
0.000000000000000000e+00,1.000000000000000000e+00,0.000000000000000000e+00,6.500000000000000000e+01,1.255700000000000000e+04,2.483360767364501953e-01,1.686976909637451172e+00,4.397131735076106329e-01,0.000000000000000000e+00,1.120000000000000000e+02
0.000000000000000000e+00,1.000000000000000000e+00,0.000000000000000000e+00,5.700000000000000000e+01,1.261400000000000000e+04,2.630960941314697266e-01,1.921775102615356445e+00,6.613223569894652876e-01,0.000000000000000000e+00,1.120000000000000000e+02
1.000000000000000000e+00,1.000000000000000000e+00,1.000000000000000000e+00,5.400000000000000000e+01,1.266800000000000000e+04,2.294960021972656250e-01,1.904425859451293945e+00,6.824566790895958412e-01,0.000000000000000000e+00,1.120000000000000000e+02
1.000000000000000000e+00,1.000000000000000000e+00,1.000000000000000000e+00,5.900000000000000000e+01,1.272700000000000000e+04,2.739100456237792969e-01,1.757218837738037109e+00,4.899448304492535211e-01,0.000000000000000000e+00,1.120000000000000000e+02
1.000000000000000000e+00,1.000000000000000000e+00,1.000000000000000000e+00,5.700000000000000000e+01,1.278400000000000000e+04,2.689938545227050781e-01,1.654250144958496094e+00,3.943545851908067945e-01,0.000000000000000000e+00,1.120000000000000000e+02
1.000000000000000000e+00,1.000000000000000000e+00,1.000000000000000000e+00,6.300000000000000000e+01,1.284700000000000000e+04,2.567319869995117188e-01,1.910371065139770508e+00,6.711287599869371068e-01,0.000000000000000000e+00,1.120000000000000000e+02
0.000000000000000000e+00,1.000000000000000000e+00,0.000000000000000000e+00,6.100000000000000000e+01,1.290800000000000000e+04,2.524271011352539062e-01,1.608638048171997070e+00,3.634785473879761364e-01,0.000000000000000000e+00,1.120000000000000000e+02
0.000000000000000000e+00,1.000000000000000000e+00,0.000000000000000000e+00,6.200000000000000000e+01,1.297000000000000000e+04,2.824480533599853516e-01,1.712929964065551758e+00,4.430767846663574150e-01,0.000000000000000000e+00,1.120000000000000000e+02
1.000000000000000000e+00,1.000000000000000000e+00,1.000000000000000000e+00,6.100000000000000000e+01,1.303100000000000000e+04,2.418110370635986328e-01,1.560858011245727539e+00,3.374235073751931657e-01,0.000000000000000000e+00,1.120000000000000000e+02
1.000000000000000000e+00,1.000000000000000000e+00,1.000000000000000000e+00,6.200000000000000000e+01,1.309300000000000000e+04,3.382458686828613281e-01,1.734617948532104492e+00,4.053554704348878435e-01,0.000000000000000000e+00,1.120000000000000000e+02
1.000000000000000000e+00,0.000000000000000000e+00,0.000000000000000000e+00,3.200000000000000000e+01,1.312500000000000000e+04,2.370419502258300781e-01,1.505918025970458984e+00,2.781374346949936349e-01,1.000000000000000000e+00,1.110000000000000000e+02
1.000000000000000000e+00,1.000000000000000000e+00,1.000000000000000000e+00,6.300000000000000000e+01,1.318800000000000000e+04,2.350440025329589844e-01,1.665826082229614258e+00,4.438449972872515747e-01,0.000000000000000000e+00,1.110000000000000000e+02
1.000000000000000000e+00,1.000000000000000000e+00,1.000000000000000000e+00,6.000000000000000000e+01,1.324800000000000000e+04,2.974109649658203125e-01,1.805440902709960938e+00,5.159258104451120985e-01,0.000000000000000000e+00,1.110000000000000000e+02
0.000000000000000000e+00,1.000000000000000000e+00,0.000000000000000000e+00,6.200000000000000000e+01,1.331000000000000000e+04,1.808948516845703125e-01,1.543354988098144531e+00,3.595229721826476155e-01,0.000000000000000000e+00,1.110000000000000000e+02
0.000000000000000000e+00,1.000000000000000000e+00,0.000000000000000000e+00,5.900000000000000000e+01,1.336900000000000000e+04,2.605030536651611328e-01,1.704159975051879883e+00,4.470472405351438305e-01,0.000000000000000000e+00,1.110000000000000000e+02
1.000000000000000000e+00,1.000000000000000000e+00,1.000000000000000000e+00,5.900000000000000000e+01,1.342800000000000000e+04,2.116770744323730469e-01,1.920173883438110352e+00,7.169525383720822820e-01,0.000000000000000000e+00,1.110000000000000000e+02
0.000000000000000000e+00,1.000000000000000000e+00,0.000000000000000000e+00,6.200000000000000000e+01,1.349000000000000000e+04,2.462961673736572266e-01,1.607738971710205078e+00,3.584146325799430488e-01,0.000000000000000000e+00,1.110000000000000000e+02
1.000000000000000000e+00,1.000000000000000000e+00,1.000000000000000000e+00,6.200000000000000000e+01,1.355200000000000000e+04,2.202908992767333984e-01,1.952026128768920898e+00,7.434515816504646546e-01,0.000000000000000000e+00,1.110000000000000000e+02
0.000000000000000000e+00,1.000000000000000000e+00,0.000000000000000000e+00,6.000000000000000000e+01,1.361200000000000000e+04,2.233519554138183594e-01,1.650884866714477539e+00,4.447290484783477660e-01,0.000000000000000000e+00,1.110000000000000000e+02
1.000000000000000000e+00,1.000000000000000000e+00,1.000000000000000000e+00,5.700000000000000000e+01,1.366900000000000000e+04,2.064051628112792969e-01,1.546496152877807617e+00,3.580275000265937813e-01,0.000000000000000000e+00,1.110000000000000000e+02
1.000000000000000000e+00,1.000000000000000000e+00,1.000000000000000000e+00,5.600000000000000000e+01,1.372500000000000000e+04,3.044650554656982422e-01,1.868455886840820312e+00,5.763322093449104733e-01,0.000000000000000000e+00,1.110000000000000000e+02
0.000000000000000000e+00,1.000000000000000000e+00,0.000000000000000000e+00,6.400000000000000000e+01,1.378900000000000000e+04,2.258689403533935547e-01,1.847025156021118164e+00,6.400232693657452732e-01,0.000000000000000000e+00,1.110000000000000000e+02
1.000000000000000000e+00,1.000000000000000000e+00,1.000000000000000000e+00,6.600000000000000000e+01,1.385500000000000000e+04,1.760089397430419922e-01,1.413888931274414062e+00,2.543721995603998587e-01,0.000000000000000000e+00,1.110000000000000000e+02
1.000000000000000000e+00,1.000000000000000000e+00,1.000000000000000000e+00,5.700000000000000000e+01,1.391200000000000000e+04,3.353199958801269531e-01,1.775717020034790039e+00,4.466279879271636277e-01,0.000000000000000000e+00,1.110000000000000000e+02
1.000000000000000000e+00,1.000000000000000000e+00,1.000000000000000000e+00,6.200000000000000000e+01,1.397400000000000000e+04,2.768440246582031250e-01,1.889913082122802734e+00,6.364148186593545642e-01,0.000000000000000000e+00,1.110000000000000000e+02
0.000000000000000000e+00,1.000000000000000000e+00,0.000000000000000000e+00,6.700000000000000000e+01,1.404100000000000000e+04,2.518930435180664062e-01,1.680311918258666992e+00,4.336328645958574812e-01,0.000000000000000000e+00,1.110000000000000000e+02
1.000000000000000000e+00,1.000000000000000000e+00,1.000000000000000000e+00,6.500000000000000000e+01,1.410600000000000000e+04,2.045240402221679688e-01,1.819885015487670898e+00,6.200721529788351116e-01,0.000000000000000000e+00,1.110000000000000000e+02
1.000000000000000000e+00,1.000000000000000000e+00,1.000000000000000000e+00,6.000000000000000000e+01,1.416600000000000000e+04,3.040361404418945312e-01,2.008710861206054688e+00,7.120951467172544902e-01,0.000000000000000000e+00,1.110000000000000000e+02
1.000000000000000000e+00,0.000000000000000000e+00,0.000000000000000000e+00,4.200000000000000000e+01,1.420800000000000000e+04,2.100980281829833984e-01,1.855317831039428711e+00,6.508872535677996396e-01,0.000000000000000000e+00,1.110000000000000000e+02
0.000000000000000000e+00,1.000000000000000000e+00,0.000000000000000000e+00,5.900000000000000000e+01,1.426700000000000000e+04,3.985230922698974609e-01,1.694207191467285156e+00,2.955172650703939974e-01,0.000000000000000000e+00,1.110000000000000000e+02
0.000000000000000000e+00,1.000000000000000000e+00,0.000000000000000000e+00,6.600000000000000000e+01,1.433300000000000000e+04,2.921619415283203125e-01,2.005922079086303711e+00,7.343604342896210557e-01,0.000000000000000000e+00,1.110000000000000000e+02
1.000000000000000000e+00,1.000000000000000000e+00,1.000000000000000000e+00,6.800000000000000000e+01,1.440100000000000000e+04,2.485191822052001953e-01,1.832605838775634766e+00,5.838911278088000367e-01,0.000000000000000000e+00,1.110000000000000000e+02
0.000000000000000000e+00,1.000000000000000000e+00,0.000000000000000000e+00,5.900000000000000000e+01,1.446000000000000000e+04,3.552570343017578125e-01,1.930611133575439453e+00,5.812010556600955002e-01,0.000000000000000000e+00,1.110000000000000000e+02
0.000000000000000000e+00,1.000000000000000000e+00,0.000000000000000000e+00,6.100000000000000000e+01,1.452100000000000000e+04,3.116710186004638672e-01,1.554308891296386719e+00,2.692634193270809773e-01,0.000000000000000000e+00,1.110000000000000000e+02
0.000000000000000000e+00,1.000000000000000000e+00,0.000000000000000000e+00,6.600000000000000000e+01,1.458700000000000000e+04,2.890660762786865234e-01,1.928222179412841797e+00,6.471200381721154971e-01,0.000000000000000000e+00,1.110000000000000000e+02
1.000000000000000000e+00,1.000000000000000000e+00,1.000000000000000000e+00,6.400000000000000000e+01,1.465100000000000000e+04,2.634301185607910156e-01,1.512318849563598633e+00,2.599180862247243429e-01,0.000000000000000000e+00,1.110000000000000000e+02
0.000000000000000000e+00,1.000000000000000000e+00,0.000000000000000000e+00,6.200000000000000000e+01,1.471300000000000000e+04,2.728991508483886719e-01,1.564427137374877930e+00,3.076941320009303760e-01,0.000000000000000000e+00,1.110000000000000000e+02
1.000000000000000000e+00,1.000000000000000000e+00,1.000000000000000000e+00,6.900000000000000000e+01,1.478200000000000000e+04,2.552580833435058594e-01,1.705107927322387695e+00,4.626412682517996866e-01,0.000000000000000000e+00,1.110000000000000000e+02
1.000000000000000000e+00,1.000000000000000000e+00,1.000000000000000000e+00,6.600000000000000000e+01,1.484800000000000000e+04,3.083388805389404297e-01,1.661962985992431641e+00,3.748079527650681197e-01,0.000000000000000000e+00,1.110000000000000000e+02
1.000000000000000000e+00,0.000000000000000000e+00,0.000000000000000000e+00,4.000000000000000000e+01,1.488800000000000000e+04,2.747130393981933594e-01,1.877377986907958984e+00,6.186503890971146724e-01,1.000000000000000000e+00,1.120000000000000000e+02
0.000000000000000000e+00,1.000000000000000000e+00,0.000000000000000000e+00,5.700000000000000000e+01,1.494500000000000000e+04,2.565751075744628906e-01,1.949837923049926758e+00,7.018077706404500793e-01,0.000000000000000000e+00,1.120000000000000000e+02
1.000000000000000000e+00,1.000000000000000000e+00,1.000000000000000000e+00,7.000000000000000000e+01,1.501500000000000000e+04,2.356200218200683594e-01,1.938872098922729492e+00,7.073702813624451746e-01,0.000000000000000000e+00,1.120000000000000000e+02
1.000000000000000000e+00,1.000000000000000000e+00,1.000000000000000000e+00,6.100000000000000000e+01,1.507600000000000000e+04,2.433521747589111328e-01,1.868455886840820312e+00,6.426775375365713083e-01,0.000000000000000000e+00,1.120000000000000000e+02
0.000000000000000000e+00,1.000000000000000000e+00,0.000000000000000000e+00,6.000000000000000000e+01,1.513600000000000000e+04,2.476329803466796875e-01,1.795240163803100586e+00,5.547108851699942278e-01,0.000000000000000000e+00,1.120000000000000000e+02
1.000000000000000000e+00,1.000000000000000000e+00,1.000000000000000000e+00,5.900000000000000000e+01,1.519500000000000000e+04,2.546849250793457031e-01,1.593777894973754883e+00,3.487702251480242488e-01,0.000000000000000000e+00,1.120000000000000000e+02
0.000000000000000000e+00,1.000000000000000000e+00,0.000000000000000000e+00,6.400000000000000000e+01,1.525900000000000000e+04,3.124558925628662109e-01,1.883956193923950195e+00,5.825312993818501095e-01,0.000000000000000000e+00,1.120000000000000000e+02
1.000000000000000000e+00,1.000000000000000000e+00,1.000000000000000000e+00,6.300000000000000000e+01,1.532200000000000000e+04,2.574589252471923828e-01,1.981125831604003906e+00,7.302467541479804591e-01,0.000000000000000000e+00,1.120000000000000000e+02
1.000000000000000000e+00,1.000000000000000000e+00,1.000000000000000000e+00,5.600000000000000000e+01,1.537800000000000000e+04,2.378501892089843750e-01,1.884632825851440430e+00,6.650163714158389139e-01,0.000000000000000000e+00,1.120000000000000000e+02
1.000000000000000000e+00,1.000000000000000000e+00,1.000000000000000000e+00,5.600000000000000000e+01,1.543400000000000000e+04,2.707359790802001953e-01,1.622192859649658203e+00,3.709190471664683408e-01,0.000000000000000000e+00,1.120000000000000000e+02
0.000000000000000000e+00,1.000000000000000000e+00,0.000000000000000000e+00,6.200000000000000000e+01,1.549600000000000000e+04,2.494561672210693359e-01,1.986770153045654297e+00,7.406693328495297379e-01,0.000000000000000000e+00,1.120000000000000000e+02
0.000000000000000000e+00,1.000000000000000000e+00,0.000000000000000000e+00,5.900000000000000000e+01,1.555500000000000000e+04,3.042068481445312500e-01,1.814731836318969727e+00,5.223519350425076535e-01,0.000000000000000000e+00,1.120000000000000000e+02
0.000000000000000000e+00,1.000000000000000000e+00,0.000000000000000000e+00,6.000000000000000000e+01,1.561500000000000000e+04,2.266030311584472656e-01,1.656554937362670898e+00,4.457393476000445776e-01,0.000000000000000000e+00,1.120000000000000000e+02
1.000000000000000000e+00,1.000000000000000000e+00,1.000000000000000000e+00,6.900000000000000000e+01,1.568400000000000000e+04,2.626249790191650391e-01,1.677981853485107422e+00,4.238027187888965819e-01,0.000000000000000000e+00,1.120000000000000000e+02
1.000000000000000000e+00,1.000000000000000000e+00,1.000000000000000000e+00,6.100000000000000000e+01,1.574500000000000000e+04,2.479588985443115234e-01,1.512634992599487305e+00,2.700020965318927213e-01,0.000000000000000000e+00,1.120000000000000000e+02
0.000000000000000000e+00,1.000000000000000000e+00,0.000000000000000000e+00,6.300000000000000000e+01,1.580800000000000000e+04,2.886281013488769531e-01,1.574961185455322266e+00,2.949923124832344312e-01,0.000000000000000000e+00,1.120000000000000000e+02
1.000000000000000000e+00,1.000000000000000000e+00,1.000000000000000000e+00,6.800000000000000000e+01,1.587600000000000000e+04,2.630159854888916016e-01,1.696165084838867188e+00,4.410414714736598518e-01,0.000000000000000000e+00,1.120000000000000000e+02
0.000000000000000000e+00,1.000000000000000000e+00,0.000000000000000000e+00,6.100000000000000000e+01,1.593700000000000000e+04,2.360520362854003906e-01,1.794005870819091797e+00,5.683385705493899653e-01,0.000000000000000000e+00,1.120000000000000000e+02
1.000000000000000000e+00,1.000000000000000000e+00,1.000000000000000000e+00,5.900000000000000000e+01,1.599600000000000000e+04,1.941502094268798828e-01,1.923340082168579102e+00,7.415366551184028321e-01,0.000000000000000000e+00,1.120000000000000000e+02
1.000000000000000000e+00,1.000000000000000000e+00,1.000000000000000000e+00,5.500000000000000000e+01,1.605100000000000000e+04,2.315449714660644531e-01,1.780560970306396484e+00,5.556797746753143752e-01,0.000000000000000000e+00,1.120000000000000000e+02
0.000000000000000000e+00,1.000000000000000000e+00,0.000000000000000000e+00,6.400000000000000000e+01,1.611500000000000000e+04,3.912551403045654297e-01,2.115884065628051758e+00,7.381166275660131504e-01,0.000000000000000000e+00,1.120000000000000000e+02
1.000000000000000000e+00,1.000000000000000000e+00,1.000000000000000000e+00,5.900000000000000000e+01,1.617400000000000000e+04,1.836998462677001953e-01,1.859472990036010742e+00,6.810524760006491096e-01,0.000000000000000000e+00,1.120000000000000000e+02
0.000000000000000000e+00,1.000000000000000000e+00,0.000000000000000000e+00,5.600000000000000000e+01,1.623000000000000000e+04,2.218818664550781250e-01,1.688933849334716797e+00,4.868934829477626347e-01,0.000000000000000000e+00,1.120000000000000000e+02
0.000000000000000000e+00,1.000000000000000000e+00,0.000000000000000000e+00,6.200000000000000000e+01,1.629200000000000000e+04,2.797889709472656250e-01,1.824409008026123047e+00,5.446530646648615193e-01,0.000000000000000000e+00,1.120000000000000000e+02
0.000000000000000000e+00,1.000000000000000000e+00,0.000000000000000000e+00,6.000000000000000000e+01,1.635200000000000000e+04,2.692408561706542969e-01,1.591980934143066406e+00,3.369275434825225735e-01,0.000000000000000000e+00,1.120000000000000000e+02
0.000000000000000000e+00,1.000000000000000000e+00,0.000000000000000000e+00,6.600000000000000000e+01,1.641800000000000000e+04,3.183381557464599609e-01,1.660872936248779297e+00,3.478322284737677128e-01,0.000000000000000000e+00,1.120000000000000000e+02
1.000000000000000000e+00,1.000000000000000000e+00,1.000000000000000000e+00,5.700000000000000000e+01,1.647500000000000000e+04,2.363018989562988281e-01,1.664514780044555664e+00,4.456394436865008801e-01,0.000000000000000000e+00,1.120000000000000000e+02
1.000000000000000000e+00,1.000000000000000000e+00,1.000000000000000000e+00,6.400000000000000000e+01,1.653900000000000000e+04,2.767951488494873047e-01,1.883198976516723633e+00,6.286995579302868675e-01,0.000000000000000000e+00,1.120000000000000000e+02
1.000000000000000000e+00,1.000000000000000000e+00,1.000000000000000000e+00,6.400000000000000000e+01,1.660300000000000000e+04,2.294309139251708984e-01,1.835095882415771484e+00,6.138772334113905549e-01,0.000000000000000000e+00,1.120000000000000000e+02
0.000000000000000000e+00,1.000000000000000000e+00,0.000000000000000000e+00,6.200000000000000000e+01,1.666500000000000000e+04,2.541499137878417969e-01,1.925217151641845703e+00,6.890906387877848704e-01,0.000000000000000000e+00,1.120000000000000000e+02
1.000000000000000000e+00,1.000000000000000000e+00,1.000000000000000000e+00,6.100000000000000000e+01,1.672600000000000000e+04,2.709021568298339844e-01,1.862818002700805664e+00,6.020813235067816738e-01,0.000000000000000000e+00,1.120000000000000000e+02
0.000000000000000000e+00,0.000000000000000000e+00,1.000000000000000000e+00,4.000000000000000000e+01,1.676600000000000000e+04,2.492780685424804688e-01,1.796547889709472656e+00,5.487329230973829741e-01,1.000000000000000000e+00,1.110000000000000000e+02
1.000000000000000000e+00,1.000000000000000000e+00,1.000000000000000000e+00,6.200000000000000000e+01,1.682800000000000000e+04,2.883789539337158203e-01,1.810417175292968750e+00,5.259011660003036770e-01,0.000000000000000000e+00,1.110000000000000000e+02
1.000000000000000000e+00,1.000000000000000000e+00,1.000000000000000000e+00,6.600000000000000000e+01,1.689400000000000000e+04,2.595570087432861328e-01,1.580913066864013672e+00,3.403815642230795802e-01,0.000000000000000000e+00,1.110000000000000000e+02
1.000000000000000000e+00,1.000000000000000000e+00,1.000000000000000000e+00,6.300000000000000000e+01,1.695700000000000000e+04,2.382349967956542969e-01,1.975069999694824219e+00,7.484340273157016332e-01,0.000000000000000000e+00,1.110000000000000000e+02
0.000000000000000000e+00,1.000000000000000000e+00,0.000000000000000000e+00,6.800000000000000000e+01,1.702500000000000000e+04,2.379679679870605469e-01,1.873543977737426758e+00,6.388058998970362889e-01,0.000000000000000000e+00,1.110000000000000000e+02
1.000000000000000000e+00,0.000000000000000000e+00,0.000000000000000000e+00,3.800000000000000000e+01,1.706300000000000000e+04,1.773300170898437500e-01,1.838544845581054688e+00,6.773844401977502372e-01,0.000000000000000000e+00,1.110000000000000000e+02
1.000000000000000000e+00,1.000000000000000000e+00,1.000000000000000000e+00,5.900000000000000000e+01,1.712200000000000000e+04,1.730940341949462891e-01,1.758222103118896484e+00,6.024208243128388318e-01,0.000000000000000000e+00,1.110000000000000000e+02
1.000000000000000000e+00,1.000000000000000000e+00,1.000000000000000000e+00,6.500000000000000000e+01,1.718700000000000000e+04,2.944970130920410156e-01,1.610207080841064453e+00,3.129821484049422065e-01,0.000000000000000000e+00,1.110000000000000000e+02
0.000000000000000000e+00,1.000000000000000000e+00,0.000000000000000000e+00,6.100000000000000000e+01,1.724800000000000000e+04,3.605229854583740234e-01,1.984820842742919922e+00,6.308512947762284773e-01,0.000000000000000000e+00,1.110000000000000000e+02
0.000000000000000000e+00,0.000000000000000000e+00,1.000000000000000000e+00,4.800000000000000000e+01,1.729600000000000000e+04,2.382638454437255859e-01,1.577090024948120117e+00,3.582998532395224589e-01,0.000000000000000000e+00,1.110000000000000000e+02
1.000000000000000000e+00,1.000000000000000000e+00,1.000000000000000000e+00,6.000000000000000000e+01,1.735600000000000000e+04,3.190441131591796875e-01,1.586898088455200195e+00,2.786739944557418691e-01,0.000000000000000000e+00,1.110000000000000000e+02
0.000000000000000000e+00,1.000000000000000000e+00,0.000000000000000000e+00,6.300000000000000000e+01,1.741900000000000000e+04,2.647478580474853516e-01,1.866892099380493164e+00,6.119424084852844725e-01,0.000000000000000000e+00,1.110000000000000000e+02
0.000000000000000000e+00,1.000000000000000000e+00,0.000000000000000000e+00,6.200000000000000000e+01,1.748100000000000000e+04,2.941091060638427734e-01,1.677515029907226562e+00,3.897593838728084514e-01,0.000000000000000000e+00,1.110000000000000000e+02
0.000000000000000000e+00,1.000000000000000000e+00,0.000000000000000000e+00,6.600000000000000000e+01,1.754700000000000000e+04,3.789930343627929688e-01,1.807407855987548828e+00,4.305262322038043155e-01,0.000000000000000000e+00,1.110000000000000000e+02
0.000000000000000000e+00,1.000000000000000000e+00,0.000000000000000000e+00,6.300000000000000000e+01,1.761000000000000000e+04,3.088829517364501953e-01,1.568462133407592773e+00,2.825172621703914699e-01,0.000000000000000000e+00,1.110000000000000000e+02
1.000000000000000000e+00,1.000000000000000000e+00,1.000000000000000000e+00,5.300000000000000000e+01,1.766300000000000000e+04,3.316230773925781250e-01,2.004780054092407227e+00,6.702913343167652416e-01,0.000000000000000000e+00,1.110000000000000000e+02
0.000000000000000000e+00,1.000000000000000000e+00,0.000000000000000000e+00,6.600000000000000000e+01,1.772900000000000000e+04,3.336789608001708984e-01,1.777350902557373047e+00,4.479377531611207219e-01,0.000000000000000000e+00,1.110000000000000000e+02
0.000000000000000000e+00,1.000000000000000000e+00,0.000000000000000000e+00,6.100000000000000000e+01,1.779000000000000000e+04,2.551300525665283203e-01,1.900174140930175781e+00,6.646025213890129901e-01,0.000000000000000000e+00,1.110000000000000000e+02
1.000000000000000000e+00,1.000000000000000000e+00,1.000000000000000000e+00,5.900000000000000000e+01,1.784900000000000000e+04,2.491660118103027344e-01,1.962764024734497070e+00,7.273843818073593148e-01,0.000000000000000000e+00,1.110000000000000000e+02
1.000000000000000000e+00,1.000000000000000000e+00,1.000000000000000000e+00,5.600000000000000000e+01,1.790500000000000000e+04,3.325760364532470703e-01,1.860583066940307617e+00,5.382516495372824394e-01,0.000000000000000000e+00,1.110000000000000000e+02
0.000000000000000000e+00,1.000000000000000000e+00,0.000000000000000000e+00,6.100000000000000000e+01,1.796600000000000000e+04,2.599680423736572266e-01,1.623271942138671875e+00,3.617636434596440131e-01,0.000000000000000000e+00,1.110000000000000000e+02
1.000000000000000000e+00,1.000000000000000000e+00,1.000000000000000000e+00,6.500000000000000000e+01,1.803100000000000000e+04,3.273570537567138672e-01,1.755761146545410156e+00,4.341616935078341788e-01,0.000000000000000000e+00,1.110000000000000000e+02
0.000000000000000000e+00,1.000000000000000000e+00,0.000000000000000000e+00,6.700000000000000000e+01,1.809800000000000000e+04,2.517621517181396484e-01,1.918103933334350586e+00,6.687870073616972721e-01,0.000000000000000000e+00,1.110000000000000000e+02
1.000000000000000000e+00,1.000000000000000000e+00,1.000000000000000000e+00,6.100000000000000000e+01,1.815900000000000000e+04,2.801589965820312500e-01,1.821439027786254883e+00,5.404224964958015409e-01,0.000000000000000000e+00,1.110000000000000000e+02
0.000000000000000000e+00,1.000000000000000000e+00,0.000000000000000000e+00,6.900000000000000000e+01,1.822800000000000000e+04,2.365541458129882812e-01,1.759088039398193359e+00,5.328866501005959933e-01,0.000000000000000000e+00,1.110000000000000000e+02
0.000000000000000000e+00,1.000000000000000000e+00,0.000000000000000000e+00,6.600000000000000000e+01,1.829400000000000000e+04,2.689588069915771484e-01,2.001276016235351562e+00,7.340188108825174140e-01,0.000000000000000000e+00,1.110000000000000000e+02
1.000000000000000000e+00,1.000000000000000000e+00,1.000000000000000000e+00,6.700000000000000000e+01,1.836100000000000000e+04,2.360119819641113281e-01,1.498452901840209961e+00,2.663229332767469426e-01,0.000000000000000000e+00,1.110000000000000000e+02
0.000000000000000000e+00,1.000000000000000000e+00,0.000000000000000000e+00,5.900000000000000000e+01,1.842000000000000000e+04,2.931890487670898438e-01,1.576958179473876953e+00,2.933199014119259873e-01,0.000000000000000000e+00,1.110000000000000000e+02
1.000000000000000000e+00,1.000000000000000000e+00,1.000000000000000000e+00,5.600000000000000000e+01,1.847600000000000000e+04,2.813839912414550781e-01,1.691504955291748047e+00,4.180714391087871906e-01,0.000000000000000000e+00,1.110000000000000000e+02
1.000000000000000000e+00,1.000000000000000000e+00,1.000000000000000000e+00,6.200000000000000000e+01,1.853800000000000000e+04,2.535188198089599609e-01,1.901251077651977539e+00,6.525119220369688389e-01,0.000000000000000000e+00,1.110000000000000000e+02
0.000000000000000000e+00,0.000000000000000000e+00,1.000000000000000000e+00,3.200000000000000000e+01,1.857000000000000000e+04,2.705769538879394531e-01,1.625558853149414062e+00,3.617769546588605611e-01,1.000000000000000000e+00,1.120000000000000000e+02
1.000000000000000000e+00,1.000000000000000000e+00,1.000000000000000000e+00,6.400000000000000000e+01,1.863400000000000000e+04,2.408928871154785156e-01,1.765712022781372070e+00,5.440049891625717837e-01,0.000000000000000000e+00,1.120000000000000000e+02
0.000000000000000000e+00,1.000000000000000000e+00,0.000000000000000000e+00,6.300000000000000000e+01,1.869700000000000000e+04,2.403619289398193359e-01,1.660090923309326172e+00,4.375874672417374711e-01,0.000000000000000000e+00,1.120000000000000000e+02
1.000000000000000000e+00,1.000000000000000000e+00,1.000000000000000000e+00,6.800000000000000000e+01,1.876500000000000000e+04,2.247738838195800781e-01,1.782702922821044922e+00,5.701443325399779827e-01,0.000000000000000000e+00,1.120000000000000000e+02
0.000000000000000000e+00,1.000000000000000000e+00,0.000000000000000000e+00,6.800000000000000000e+01,1.883300000000000000e+04,1.914739608764648438e-01,1.815222024917602539e+00,6.354225025631046186e-01,0.000000000000000000e+00,1.120000000000000000e+02
0.000000000000000000e+00,1.000000000000000000e+00,0.000000000000000000e+00,6.200000000000000000e+01,1.889500000000000000e+04,2.449400424957275391e-01,1.692152976989746094e+00,4.445138829451841245e-01,0.000000000000000000e+00,1.120000000000000000e+02
1.000000000000000000e+00,1.000000000000000000e+00,1.000000000000000000e+00,7.100000000000000000e+01,1.896600000000000000e+04,2.215590476989746094e-01,1.459654808044433594e+00,2.544071698312831420e-01,0.000000000000000000e+00,1.120000000000000000e+02
0.000000000000000000e+00,1.000000000000000000e+00,0.000000000000000000e+00,6.900000000000000000e+01,1.903500000000000000e+04,2.410209178924560547e-01,1.888792037963867188e+00,6.595197221036014357e-01,0.000000000000000000e+00,1.120000000000000000e+02
0.000000000000000000e+00,1.000000000000000000e+00,0.000000000000000000e+00,6.000000000000000000e+01,1.909500000000000000e+04,3.447170257568359375e-01,1.965896129608154297e+00,6.088806325345654802e-01,0.000000000000000000e+00,1.120000000000000000e+02
0.000000000000000000e+00,1.000000000000000000e+00,0.000000000000000000e+00,6.500000000000000000e+01,1.916000000000000000e+04,2.791399955749511719e-01,1.712401866912841797e+00,4.381519511224547525e-01,0.000000000000000000e+00,1.120000000000000000e+02
1.000000000000000000e+00,1.000000000000000000e+00,1.000000000000000000e+00,6.500000000000000000e+01,1.922500000000000000e+04,2.595629692077636719e-01,1.884989023208618164e+00,6.396873358733314863e-01,0.000000000000000000e+00,1.120000000000000000e+02
0.000000000000000000e+00,1.000000000000000000e+00,0.000000000000000000e+00,7.300000000000000000e+01,1.929800000000000000e+04,1.812129020690917969e-01,1.600623846054077148e+00,4.239248426450356044e-01,0.000000000000000000e+00,1.120000000000000000e+02
1.000000000000000000e+00,1.000000000000000000e+00,1.000000000000000000e+00,6.700000000000000000e+01,1.936500000000000000e+04,2.763071060180664062e-01,1.775398015975952148e+00,5.159612256724588342e-01,0.000000000000000000e+00,1.120000000000000000e+02
1.000000000000000000e+00,1.000000000000000000e+00,1.000000000000000000e+00,7.300000000000000000e+01,1.943800000000000000e+04,3.412690162658691406e-01,1.887214899063110352e+00,5.529482485164485261e-01,0.000000000000000000e+00,1.120000000000000000e+02
1.000000000000000000e+00,1.000000000000000000e+00,1.000000000000000000e+00,6.400000000000000000e+01,1.950200000000000000e+04,2.537860870361328125e-01,1.633423089981079102e+00,3.868999016615927156e-01,0.000000000000000000e+00,1.120000000000000000e+02
0.000000000000000000e+00,1.000000000000000000e+00,0.000000000000000000e+00,6.500000000000000000e+01,1.956700000000000000e+04,2.665510177612304688e-01,1.641012907028198242e+00,3.779679090238226014e-01,0.000000000000000000e+00,1.120000000000000000e+02
0.000000000000000000e+00,1.000000000000000000e+00,0.000000000000000000e+00,7.000000000000000000e+01,1.963700000000000000e+04,2.842481136322021484e-01,1.878860950469970703e+00,6.070371545502143418e-01,0.000000000000000000e+00,1.120000000000000000e+02
1.000000000000000000e+00,1.000000000000000000e+00,1.000000000000000000e+00,6.500000000000000000e+01,1.970200000000000000e+04,2.629709243774414062e-01,1.804587125778198242e+00,5.446982911700546381e-01,0.000000000000000000e+00,1.120000000000000000e+02
0.000000000000000000e+00,1.000000000000000000e+00,0.000000000000000000e+00,6.100000000000000000e+01,1.976300000000000000e+04,2.350530624389648438e-01,1.526726961135864258e+00,3.050690908340394913e-01,0.000000000000000000e+00,1.120000000000000000e+02
1.000000000000000000e+00,1.000000000000000000e+00,1.000000000000000000e+00,7.000000000000000000e+01,1.983300000000000000e+04,2.647750377655029297e-01,1.804860115051269531e+00,5.430571072478156402e-01,0.000000000000000000e+00,1.120000000000000000e+02
1.000000000000000000e+00,1.000000000000000000e+00,1.000000000000000000e+00,6.600000000000000000e+01,1.989900000000000000e+04,2.618699073791503906e-01,1.911628961563110352e+00,6.547235151512453832e-01,0.000000000000000000e+00,1.120000000000000000e+02
1.000000000000000000e+00,1.000000000000000000e+00,1.000000000000000000e+00,6.400000000000000000e+01,1.996300000000000000e+04,2.764239311218261719e-01,1.727832078933715820e+00,4.660738170594209695e-01,0.000000000000000000e+00,1.120000000000000000e+02
0.000000000000000000e+00,1.000000000000000000e+00,0.000000000000000000e+00,7.000000000000000000e+01,2.003300000000000000e+04,2.689549922943115234e-01,1.551506042480468750e+00,2.844752295204380221e-01,0.000000000000000000e+00,1.120000000000000000e+02
1.000000000000000000e+00,1.000000000000000000e+00,1.000000000000000000e+00,6.500000000000000000e+01,2.009800000000000000e+04,2.630221843719482422e-01,1.886314868927001953e+00,6.204886024175949588e-01,0.000000000000000000e+00,1.120000000000000000e+02
1.000000000000000000e+00,1.000000000000000000e+00,1.000000000000000000e+00,6.700000000000000000e+01,2.016500000000000000e+04,3.227818012237548828e-01,1.928569078445434570e+00,6.158083431790697393e-01,0.000000000000000000e+00,1.120000000000000000e+02
1.000000000000000000e+00,1.000000000000000000e+00,1.000000000000000000e+00,6.700000000000000000e+01,2.023200000000000000e+04,2.424709796905517578e-01,1.662042140960693359e+00,4.281192215059332895e-01,0.000000000000000000e+00,1.120000000000000000e+02
0.000000000000000000e+00,1.000000000000000000e+00,0.000000000000000000e+00,7.000000000000000000e+01,2.030200000000000000e+04,3.374838829040527344e-01,1.855263948440551758e+00,5.333148610919392629e-01,0.000000000000000000e+00,1.120000000000000000e+02
1.000000000000000000e+00,1.000000000000000000e+00,1.000000000000000000e+00,6.300000000000000000e+01,2.036500000000000000e+04,2.769219875335693359e-01,1.519721031188964844e+00,2.534058375858042611e-01,0.000000000000000000e+00,1.120000000000000000e+02
0.000000000000000000e+00,1.000000000000000000e+00,0.000000000000000000e+00,6.800000000000000000e+01,2.043300000000000000e+04,3.643260002136230469e-01,2.094074010848999023e+00,7.303546624867776060e-01,0.000000000000000000e+00,1.120000000000000000e+02
1.000000000000000000e+00,0.000000000000000000e+00,0.000000000000000000e+00,3.700000000000000000e+01,2.047000000000000000e+04,2.220869064331054688e-01,1.872368097305297852e+00,6.695275584103668187e-01,1.000000000000000000e+00,1.110000000000000000e+02
1.000000000000000000e+00,1.000000000000000000e+00,1.000000000000000000e+00,6.400000000000000000e+01,2.053400000000000000e+04,2.707908153533935547e-01,1.958796024322509766e+00,6.950408626291761927e-01,0.000000000000000000e+00,1.110000000000000000e+02
1.000000000000000000e+00,1.000000000000000000e+00,1.000000000000000000e+00,6.500000000000000000e+01,2.059900000000000000e+04,2.858479022979736328e-01,1.605093955993652344e+00,3.339022633907158255e-01,0.000000000000000000e+00,1.110000000000000000e+02
1.000000000000000000e+00,1.000000000000000000e+00,1.000000000000000000e+00,6.900000000000000000e+01,2.066800000000000000e+04,2.932319641113281250e-01,1.576934099197387695e+00,2.942785608708147205e-01,0.000000000000000000e+00,1.110000000000000000e+02
1.000000000000000000e+00,1.000000000000000000e+00,1.000000000000000000e+00,6.800000000000000000e+01,2.073600000000000000e+04,3.227000236511230469e-01,1.947228908538818359e+00,6.411784357124838962e-01,0.000000000000000000e+00,1.110000000000000000e+02
1.000000000000000000e+00,1.000000000000000000e+00,1.000000000000000000e+00,6.900000000000000000e+01,2.080500000000000000e+04,2.607238292694091797e-01,1.583976030349731445e+00,3.422005377113158664e-01,0.000000000000000000e+00,1.110000000000000000e+02
1.000000000000000000e+00,1.000000000000000000e+00,1.000000000000000000e+00,6.200000000000000000e+01,2.086700000000000000e+04,2.735159397125244141e-01,1.758280038833618164e+00,5.003492307224101099e-01,0.000000000000000000e+00,1.110000000000000000e+02
0.000000000000000000e+00,1.000000000000000000e+00,0.000000000000000000e+00,6.200000000000000000e+01,2.092900000000000000e+04,2.697608470916748047e-01,1.547591924667358398e+00,2.815966625992326056e-01,0.000000000000000000e+00,1.110000000000000000e+02
1.000000000000000000e+00,1.000000000000000000e+00,1.000000000000000000e+00,6.100000000000000000e+01,2.099000000000000000e+04,2.324509620666503906e-01,1.833971977233886719e+00,6.152921371925079708e-01,0.000000000000000000e+00,1.110000000000000000e+02
1.000000000000000000e+00,0.000000000000000000e+00,0.000000000000000000e+00,3.200000000000000000e+01,2.102200000000000000e+04,1.636259555816650391e-01,1.625307798385620117e+00,4.574832349114981156e-01,0.000000000000000000e+00,1.110000000000000000e+02
1.000000000000000000e+00,1.000000000000000000e+00,1.000000000000000000e+00,7.000000000000000000e+01,2.109200000000000000e+04,2.489519119262695312e-01,1.798588991165161133e+00,5.560346076289446327e-01,0.000000000000000000e+00,1.110000000000000000e+02
1.000000000000000000e+00,1.000000000000000000e+00,1.000000000000000000e+00,6.600000000000000000e+01,2.115800000000000000e+04,2.810781002044677734e-01,1.937249898910522461e+00,6.598838425451478695e-01,0.000000000000000000e+00,1.110000000000000000e+02
1.000000000000000000e+00,1.000000000000000000e+00,1.000000000000000000e+00,6.600000000000000000e+01,2.122400000000000000e+04,3.008308410644531250e-01,1.592910051345825195e+00,3.032577497888013784e-01,0.000000000000000000e+00,1.110000000000000000e+02
1.000000000000000000e+00,1.000000000000000000e+00,1.000000000000000000e+00,6.400000000000000000e+01,2.128800000000000000e+04,2.548871040344238281e-01,1.753273963928222656e+00,5.063596521606583689e-01,0.000000000000000000e+00,1.110000000000000000e+02
1.000000000000000000e+00,1.000000000000000000e+00,1.000000000000000000e+00,6.900000000000000000e+01,2.135700000000000000e+04,3.299350738525390625e-01,1.732568979263305664e+00,4.057715912944320769e-01,0.000000000000000000e+00,1.110000000000000000e+02
0.000000000000000000e+00,1.000000000000000000e+00,0.000000000000000000e+00,6.600000000000000000e+01,2.142300000000000000e+04,2.856700420379638672e-01,1.737257957458496094e+00,4.596965951761234903e-01,0.000000000000000000e+00,1.110000000000000000e+02
1.000000000000000000e+00,1.000000000000000000e+00,1.000000000000000000e+00,6.800000000000000000e+01,2.149100000000000000e+04,2.393910884857177734e-01,1.707600116729736328e+00,4.840007272100335656e-01,0.000000000000000000e+00,1.110000000000000000e+02
1.000000000000000000e+00,1.000000000000000000e+00,1.000000000000000000e+00,6.600000000000000000e+01,2.155700000000000000e+04,2.318079471588134766e-01,1.818073987960815430e+00,5.853180260414578839e-01,0.000000000000000000e+00,1.110000000000000000e+02
0.000000000000000000e+00,1.000000000000000000e+00,0.000000000000000000e+00,7.100000000000000000e+01,2.162800000000000000e+04,2.460939884185791016e-01,1.685312986373901367e+00,4.375702504615603949e-01,0.000000000000000000e+00,1.110000000000000000e+02
0.000000000000000000e+00,1.000000000000000000e+00,0.000000000000000000e+00,6.900000000000000000e+01,2.169700000000000000e+04,2.579910755157470703e-01,1.738137960433959961e+00,4.923720620901662071e-01,0.000000000000000000e+00,1.110000000000000000e+02
1.000000000000000000e+00,1.000000000000000000e+00,1.000000000000000000e+00,6.800000000000000000e+01,2.176500000000000000e+04,2.386109828948974609e-01,1.702798843383789062e+00,4.785670457547243073e-01,0.000000000000000000e+00,1.110000000000000000e+02
0.000000000000000000e+00,1.000000000000000000e+00,0.000000000000000000e+00,6.100000000000000000e+01,2.182600000000000000e+04,1.526150703430175781e-01,1.578102111816406250e+00,4.400671971158005014e-01,0.000000000000000000e+00,1.110000000000000000e+02
0.000000000000000000e+00,1.000000000000000000e+00,0.000000000000000000e+00,6.200000000000000000e+01,2.188800000000000000e+04,2.963421344757080078e-01,1.605777978897094727e+00,3.126964765214572672e-01,0.000000000000000000e+00,1.110000000000000000e+02
1.000000000000000000e+00,1.000000000000000000e+00,1.000000000000000000e+00,7.100000000000000000e+01,2.195900000000000000e+04,2.594451904296875000e-01,1.938985109329223633e+00,7.013396373646629822e-01,0.000000000000000000e+00,1.110000000000000000e+02
0.000000000000000000e+00,1.000000000000000000e+00,0.000000000000000000e+00,6.800000000000000000e+01,2.202700000000000000e+04,2.715029716491699219e-01,1.878460884094238281e+00,6.132754019126348544e-01,0.000000000000000000e+00,1.110000000000000000e+02
1.000000000000000000e+00,0.000000000000000000e+00,0.000000000000000000e+00,4.000000000000000000e+01,2.206700000000000000e+04,2.199540138244628906e-01,1.859607219696044922e+00,6.562338717235655094e-01,1.000000000000000000e+00,1.120000000000000000e+02
1.000000000000000000e+00,1.000000000000000000e+00,1.000000000000000000e+00,6.500000000000000000e+01,2.213200000000000000e+04,2.232809066772460938e-01,1.577085971832275391e+00,3.670453460313871097e-01,0.000000000000000000e+00,1.120000000000000000e+02
0.000000000000000000e+00,1.000000000000000000e+00,0.000000000000000000e+00,6.000000000000000000e+01,2.219200000000000000e+04,2.950320243835449219e-01,1.753436088562011719e+00,4.537629705267119951e-01,0.000000000000000000e+00,1.120000000000000000e+02
1.000000000000000000e+00,1.000000000000000000e+00,1.000000000000000000e+00,6.000000000000000000e+01,2.225200000000000000e+04,2.081270217895507812e-01,1.563552856445312500e+00,3.674483860771072252e-01,0.000000000000000000e+00,1.120000000000000000e+02
0.000000000000000000e+00,1.000000000000000000e+00,0.000000000000000000e+00,6.500000000000000000e+01,2.231700000000000000e+04,2.395598888397216797e-01,1.971774816513061523e+00,7.389450800642900496e-01,0.000000000000000000e+00,1.120000000000000000e+02
0.000000000000000000e+00,1.000000000000000000e+00,0.000000000000000000e+00,6.600000000000000000e+01,2.238300000000000000e+04,5.189051628112792969e-01,1.778130054473876953e+00,2.676011013149012241e-01,0.000000000000000000e+00,1.120000000000000000e+02
0.000000000000000000e+00,1.000000000000000000e+00,0.000000000000000000e+00,6.200000000000000000e+01,2.244500000000000000e+04,2.836759090423583984e-01,1.870916128158569336e+00,5.882776402637641677e-01,0.000000000000000000e+00,1.120000000000000000e+02
0.000000000000000000e+00,1.000000000000000000e+00,0.000000000000000000e+00,6.300000000000000000e+01,2.250800000000000000e+04,2.889859676361083984e-01,1.604981899261474609e+00,3.269001991872406698e-01,0.000000000000000000e+00,1.120000000000000000e+02
0.000000000000000000e+00,1.000000000000000000e+00,0.000000000000000000e+00,6.100000000000000000e+01,2.256900000000000000e+04,2.420539855957031250e-01,1.571139097213745117e+00,3.480662025139032445e-01,0.000000000000000000e+00,1.120000000000000000e+02
0.000000000000000000e+00,1.000000000000000000e+00,0.000000000000000000e+00,5.900000000000000000e+01,2.262800000000000000e+04,2.874269485473632812e-01,1.873779058456420898e+00,6.049869799959064487e-01,0.000000000000000000e+00,1.120000000000000000e+02
0.000000000000000000e+00,1.000000000000000000e+00,0.000000000000000000e+00,5.200000000000000000e+01,2.268000000000000000e+04,3.051869869232177734e-01,1.965344905853271484e+00,6.703415580861555867e-01,0.000000000000000000e+00,1.120000000000000000e+02
1.000000000000000000e+00,1.000000000000000000e+00,1.000000000000000000e+00,6.400000000000000000e+01,2.274400000000000000e+04,2.876870632171630859e-01,1.757993936538696289e+00,4.786337975973974368e-01,0.000000000000000000e+00,1.120000000000000000e+02
0.000000000000000000e+00,1.000000000000000000e+00,0.000000000000000000e+00,6.100000000000000000e+01,2.280500000000000000e+04,2.666909694671630859e-01,2.004607915878295898e+00,7.496819167804504858e-01,0.000000000000000000e+00,1.120000000000000000e+02
0.000000000000000000e+00,1.000000000000000000e+00,0.000000000000000000e+00,6.400000000000000000e+01,2.286900000000000000e+04,3.291430473327636719e-01,1.979049205780029297e+00,6.455825842386111457e-01,0.000000000000000000e+00,1.120000000000000000e+02
1.000000000000000000e+00,1.000000000000000000e+00,1.000000000000000000e+00,6.400000000000000000e+01,2.293300000000000000e+04,2.674908638000488281e-01,1.887249946594238281e+00,6.328781231297584409e-01,0.000000000000000000e+00,1.120000000000000000e+02
0.000000000000000000e+00,1.000000000000000000e+00,0.000000000000000000e+00,6.100000000000000000e+01,2.299400000000000000e+04,1.955761909484863281e-01,1.677510023117065430e+00,4.772876116896596632e-01,0.000000000000000000e+00,1.120000000000000000e+02
0.000000000000000000e+00,1.000000000000000000e+00,0.000000000000000000e+00,5.600000000000000000e+01,2.305000000000000000e+04,2.669639587402343750e-01,1.896039962768554688e+00,6.398673377444059618e-01,0.000000000000000000e+00,1.120000000000000000e+02
0.000000000000000000e+00,1.000000000000000000e+00,0.000000000000000000e+00,6.500000000000000000e+01,2.311500000000000000e+04,2.229681015014648438e-01,1.757342100143432617e+00,5.473868861548590870e-01,0.000000000000000000e+00,1.120000000000000000e+02
0.000000000000000000e+00,0.000000000000000000e+00,1.000000000000000000e+00,3.800000000000000000e+01,2.315300000000000000e+04,2.730588912963867188e-01,1.797910928726196289e+00,5.453815707484062081e-01,0.000000000000000000e+00,1.120000000000000000e+02
1.000000000000000000e+00,1.000000000000000000e+00,1.000000000000000000e+00,6.300000000000000000e+01,2.321600000000000000e+04,3.941538333892822266e-01,1.942114114761352539e+00,5.708705911323459503e-01,0.000000000000000000e+00,1.120000000000000000e+02
0.000000000000000000e+00,1.000000000000000000e+00,0.000000000000000000e+00,6.900000000000000000e+01,2.328500000000000000e+04,2.561991214752197266e-01,1.617733955383300781e+00,3.721923813719789087e-01,0.000000000000000000e+00,1.120000000000000000e+02
0.000000000000000000e+00,1.000000000000000000e+00,0.000000000000000000e+00,6.100000000000000000e+01,2.334600000000000000e+04,2.526450157165527344e-01,1.722837209701538086e+00,4.783272005534956461e-01,0.000000000000000000e+00,1.120000000000000000e+02
1.000000000000000000e+00,1.000000000000000000e+00,1.000000000000000000e+00,6.800000000000000000e+01,2.341400000000000000e+04,3.519911766052246094e-01,1.828719854354858398e+00,4.904212371439070073e-01,0.000000000000000000e+00,1.120000000000000000e+02
1.000000000000000000e+00,1.000000000000000000e+00,1.000000000000000000e+00,5.600000000000000000e+01,2.347000000000000000e+04,3.107180595397949219e-01,1.673022985458374023e+00,3.802752868667646502e-01,0.000000000000000000e+00,1.120000000000000000e+02
1.000000000000000000e+00,1.000000000000000000e+00,1.000000000000000000e+00,6.300000000000000000e+01,2.353300000000000000e+04,3.181550502777099609e-01,1.675955057144165039e+00,3.729805755134126821e-01,0.000000000000000000e+00,1.120000000000000000e+02
0.000000000000000000e+00,1.000000000000000000e+00,0.000000000000000000e+00,6.300000000000000000e+01,2.359600000000000000e+04,2.818398475646972656e-01,1.710462093353271484e+00,4.334059092539677138e-01,0.000000000000000000e+00,1.120000000000000000e+02
0.000000000000000000e+00,1.000000000000000000e+00,0.000000000000000000e+00,6.000000000000000000e+01,2.365600000000000000e+04,2.862679958343505859e-01,1.864795923233032227e+00,5.814935044863629443e-01,0.000000000000000000e+00,1.120000000000000000e+02
0.000000000000000000e+00,1.000000000000000000e+00,0.000000000000000000e+00,6.000000000000000000e+01,2.371600000000000000e+04,2.542870044708251953e-01,1.952344179153442383e+00,7.170802332833586812e-01,0.000000000000000000e+00,1.120000000000000000e+02
0.000000000000000000e+00,1.000000000000000000e+00,0.000000000000000000e+00,6.400000000000000000e+01,2.378000000000000000e+04,2.876589298248291016e-01,1.696174860000610352e+00,4.136035165200711017e-01,0.000000000000000000e+00,1.120000000000000000e+02
0.000000000000000000e+00,1.000000000000000000e+00,0.000000000000000000e+00,6.100000000000000000e+01,2.384100000000000000e+04,4.604330062866210938e-01,2.123600959777832031e+00,6.703358990841292719e-01,0.000000000000000000e+00,1.120000000000000000e+02
0.000000000000000000e+00,1.000000000000000000e+00,0.000000000000000000e+00,5.700000000000000000e+01,2.389800000000000000e+04,2.581889629364013672e-01,1.682293891906738281e+00,4.363006659655532804e-01,0.000000000000000000e+00,1.120000000000000000e+02
0.000000000000000000e+00,0.000000000000000000e+00,1.000000000000000000e+00,4.000000000000000000e+01,2.393800000000000000e+04,2.768669128417968750e-01,1.561710119247436523e+00,2.981509963368623728e-01,1.000000000000000000e+00,1.110000000000000000e+02
0.000000000000000000e+00,0.000000000000000000e+00,1.000000000000000000e+00,4.300000000000000000e+01,2.398100000000000000e+04,4.269490242004394531e-01,1.802190065383911133e+00,4.003031635858790294e-01,0.000000000000000000e+00,1.110000000000000000e+02
1.000000000000000000e+00,0.000000000000000000e+00,0.000000000000000000e+00,4.000000000000000000e+01,2.402100000000000000e+04,3.283689022064208984e-01,1.655035018920898438e+00,3.221751742860536893e-01,0.000000000000000000e+00,1.110000000000000000e+02
1.000000000000000000e+00,1.000000000000000000e+00,1.000000000000000000e+00,5.600000000000000000e+01,2.407700000000000000e+04,2.763719558715820312e-01,1.729573965072631836e+00,4.683182094078318647e-01,0.000000000000000000e+00,1.110000000000000000e+02
0.000000000000000000e+00,1.000000000000000000e+00,0.000000000000000000e+00,6.000000000000000000e+01,2.413700000000000000e+04,2.381279468536376953e-01,1.715087890625000000e+00,4.834089147668777509e-01,0.000000000000000000e+00,1.110000000000000000e+02
0.000000000000000000e+00,1.000000000000000000e+00,0.000000000000000000e+00,5.700000000000000000e+01,2.419400000000000000e+04,3.025228977203369141e-01,1.817265033721923828e+00,5.173872252054543264e-01,0.000000000000000000e+00,1.110000000000000000e+02
1.000000000000000000e+00,1.000000000000000000e+00,1.000000000000000000e+00,6.200000000000000000e+01,2.425600000000000000e+04,3.168039321899414062e-01,1.791473150253295898e+00,4.756448155946000345e-01,0.000000000000000000e+00,1.110000000000000000e+02
0.000000000000000000e+00,1.000000000000000000e+00,0.000000000000000000e+00,5.600000000000000000e+01,2.431200000000000000e+04,2.386469841003417969e-01,1.688075065612792969e+00,4.637750756409772523e-01,0.000000000000000000e+00,1.110000000000000000e+02
