choice, accuracy, solution,  reward, cumulative_reward, rt,  total_trial_time, iti, cp_with_slow_fast, high_val_cue
0.000000000000000000e+00,1.000000000000000000e+00,0.000000000000000000e+00,5.600000000000000000e+01,5.600000000000000000e+01,8.810791969299316406e-01,2.246737003326416016e+00,3.651239372095607116e-01,0.000000000000000000e+00,1.120000000000000000e+02
1.000000000000000000e+00,1.000000000000000000e+00,1.000000000000000000e+00,5.600000000000000000e+01,1.120000000000000000e+02,9.767899513244628906e-01,2.639278888702392578e+00,6.875031307365737643e-01,0.000000000000000000e+00,1.120000000000000000e+02
1.000000000000000000e+00,0.000000000000000000e+00,0.000000000000000000e+00,4.200000000000000000e+01,1.540000000000000000e+02,3.350429534912109375e-01,1.584714174270629883e+00,2.561278307427231060e-01,0.000000000000000000e+00,1.120000000000000000e+02
0.000000000000000000e+00,1.000000000000000000e+00,0.000000000000000000e+00,5.200000000000000000e+01,2.060000000000000000e+02,3.816249370574951172e-01,1.876869916915893555e+00,4.995304991549128770e-01,0.000000000000000000e+00,1.120000000000000000e+02
0.000000000000000000e+00,1.000000000000000000e+00,0.000000000000000000e+00,5.700000000000000000e+01,2.630000000000000000e+02,3.444640636444091797e-01,1.642202138900756836e+00,2.919946768082127830e-01,0.000000000000000000e+00,1.120000000000000000e+02
1.000000000000000000e+00,1.000000000000000000e+00,1.000000000000000000e+00,6.000000000000000000e+01,3.230000000000000000e+02,4.991409778594970703e-01,1.831286907196044922e+00,3.399657632443323640e-01,0.000000000000000000e+00,1.120000000000000000e+02
1.000000000000000000e+00,1.000000000000000000e+00,1.000000000000000000e+00,6.100000000000000000e+01,3.840000000000000000e+02,3.818869590759277344e-01,1.983378171920776367e+00,6.064577014544503264e-01,0.000000000000000000e+00,1.120000000000000000e+02
0.000000000000000000e+00,1.000000000000000000e+00,0.000000000000000000e+00,6.100000000000000000e+01,4.450000000000000000e+02,3.405768871307373047e-01,1.759572982788085938e+00,4.330280494573984229e-01,0.000000000000000000e+00,1.120000000000000000e+02
1.000000000000000000e+00,1.000000000000000000e+00,1.000000000000000000e+00,5.600000000000000000e+01,5.010000000000000000e+02,3.540871143341064453e-01,2.017980098724365234e+00,6.674808511446508330e-01,0.000000000000000000e+00,1.120000000000000000e+02
1.000000000000000000e+00,1.000000000000000000e+00,1.000000000000000000e+00,6.400000000000000000e+01,5.650000000000000000e+02,3.363831043243408203e-01,2.014484882354736328e+00,6.820461547836396132e-01,0.000000000000000000e+00,1.120000000000000000e+02
1.000000000000000000e+00,1.000000000000000000e+00,1.000000000000000000e+00,5.600000000000000000e+01,6.210000000000000000e+02,3.447418212890625000e-01,1.637419939041137695e+00,2.866161278643135080e-01,0.000000000000000000e+00,1.120000000000000000e+02
0.000000000000000000e+00,1.000000000000000000e+00,0.000000000000000000e+00,5.900000000000000000e+01,6.800000000000000000e+02,4.465780258178710938e-01,2.064831972122192383e+00,6.178231886780207738e-01,0.000000000000000000e+00,1.120000000000000000e+02
0.000000000000000000e+00,1.000000000000000000e+00,0.000000000000000000e+00,5.600000000000000000e+01,7.360000000000000000e+02,3.798940181732177734e-01,2.121471166610717773e+00,7.392997319888079399e-01,0.000000000000000000e+00,1.120000000000000000e+02
1.000000000000000000e+00,1.000000000000000000e+00,1.000000000000000000e+00,5.300000000000000000e+01,7.890000000000000000e+02,3.473150730133056641e-01,2.079786062240600586e+00,7.358192708474037280e-01,0.000000000000000000e+00,1.120000000000000000e+02
1.000000000000000000e+00,1.000000000000000000e+00,1.000000000000000000e+00,6.200000000000000000e+01,8.510000000000000000e+02,2.790470123291015625e-01,1.541367053985595703e+00,2.611317327439797720e-01,0.000000000000000000e+00,1.120000000000000000e+02
1.000000000000000000e+00,1.000000000000000000e+00,1.000000000000000000e+00,5.300000000000000000e+01,9.040000000000000000e+02,5.234630107879638672e-01,1.809765815734863281e+00,3.042397974657705118e-01,0.000000000000000000e+00,1.120000000000000000e+02
0.000000000000000000e+00,1.000000000000000000e+00,0.000000000000000000e+00,6.300000000000000000e+01,9.670000000000000000e+02,4.281301498413085938e-01,1.773196935653686523e+00,3.607504197001857316e-01,0.000000000000000000e+00,1.120000000000000000e+02
1.000000000000000000e+00,1.000000000000000000e+00,1.000000000000000000e+00,5.900000000000000000e+01,1.026000000000000000e+03,3.746280670166015625e-01,1.775873899459838867e+00,4.200199768468902417e-01,0.000000000000000000e+00,1.120000000000000000e+02
1.000000000000000000e+00,1.000000000000000000e+00,1.000000000000000000e+00,5.600000000000000000e+01,1.082000000000000000e+03,3.502259254455566406e-01,1.874887943267822266e+00,5.282130829354214629e-01,0.000000000000000000e+00,1.120000000000000000e+02
1.000000000000000000e+00,1.000000000000000000e+00,1.000000000000000000e+00,5.700000000000000000e+01,1.139000000000000000e+03,2.965669631958007812e-01,1.821650028228759766e+00,5.332780145070630251e-01,0.000000000000000000e+00,1.120000000000000000e+02
1.000000000000000000e+00,1.000000000000000000e+00,1.000000000000000000e+00,5.500000000000000000e+01,1.194000000000000000e+03,5.623698234558105469e-01,2.109263896942138672e+00,5.426134453675066638e-01,0.000000000000000000e+00,1.120000000000000000e+02
1.000000000000000000e+00,1.000000000000000000e+00,1.000000000000000000e+00,5.600000000000000000e+01,1.250000000000000000e+03,4.244360923767089844e-01,2.037081003189086914e+00,6.297038628263473825e-01,0.000000000000000000e+00,1.120000000000000000e+02
1.000000000000000000e+00,1.000000000000000000e+00,1.000000000000000000e+00,5.700000000000000000e+01,1.307000000000000000e+03,2.282230854034423828e-01,1.764599084854125977e+00,5.444560173742287734e-01,0.000000000000000000e+00,1.120000000000000000e+02
0.000000000000000000e+00,1.000000000000000000e+00,0.000000000000000000e+00,6.100000000000000000e+01,1.368000000000000000e+03,3.235938549041748047e-01,1.879045963287353516e+00,5.735749931027631643e-01,0.000000000000000000e+00,1.120000000000000000e+02
1.000000000000000000e+00,1.000000000000000000e+00,1.000000000000000000e+00,6.600000000000000000e+01,1.434000000000000000e+03,2.514021396636962891e-01,1.899451017379760742e+00,6.563591570693882993e-01,0.000000000000000000e+00,1.120000000000000000e+02
1.000000000000000000e+00,1.000000000000000000e+00,1.000000000000000000e+00,5.600000000000000000e+01,1.490000000000000000e+03,3.224151134490966797e-01,1.763985872268676758e+00,4.539491106665121678e-01,0.000000000000000000e+00,1.120000000000000000e+02
1.000000000000000000e+00,1.000000000000000000e+00,1.000000000000000000e+00,5.500000000000000000e+01,1.545000000000000000e+03,3.857350349426269531e-01,1.821347951889038086e+00,4.420475388457515420e-01,0.000000000000000000e+00,1.120000000000000000e+02
1.000000000000000000e+00,1.000000000000000000e+00,1.000000000000000000e+00,6.000000000000000000e+01,1.605000000000000000e+03,3.131620883941650391e-01,1.736941814422607422e+00,4.290891048367637683e-01,0.000000000000000000e+00,1.120000000000000000e+02
1.000000000000000000e+00,1.000000000000000000e+00,1.000000000000000000e+00,5.600000000000000000e+01,1.661000000000000000e+03,4.148581027984619141e-01,1.839579105377197266e+00,4.354197183534476712e-01,0.000000000000000000e+00,1.120000000000000000e+02
0.000000000000000000e+00,1.000000000000000000e+00,0.000000000000000000e+00,6.000000000000000000e+01,1.721000000000000000e+03,3.699069023132324219e-01,1.689141988754272461e+00,3.247485462349487539e-01,0.000000000000000000e+00,1.120000000000000000e+02
1.000000000000000000e+00,1.000000000000000000e+00,1.000000000000000000e+00,6.100000000000000000e+01,1.782000000000000000e+03,3.396790027618408203e-01,1.956363201141357422e+00,6.308618423136460596e-01,0.000000000000000000e+00,1.120000000000000000e+02
0.000000000000000000e+00,1.000000000000000000e+00,0.000000000000000000e+00,5.300000000000000000e+01,1.835000000000000000e+03,3.967280387878417969e-01,1.908837795257568359e+00,5.232157970230348898e-01,0.000000000000000000e+00,1.120000000000000000e+02
0.000000000000000000e+00,1.000000000000000000e+00,0.000000000000000000e+00,6.000000000000000000e+01,1.895000000000000000e+03,3.832211494445800781e-01,2.026448011398315430e+00,6.496525678399311943e-01,0.000000000000000000e+00,1.120000000000000000e+02
1.000000000000000000e+00,1.000000000000000000e+00,1.000000000000000000e+00,5.600000000000000000e+01,1.951000000000000000e+03,2.758858203887939453e-01,1.813488006591796875e+00,5.466590065810749133e-01,0.000000000000000000e+00,1.120000000000000000e+02
1.000000000000000000e+00,1.000000000000000000e+00,1.000000000000000000e+00,6.200000000000000000e+01,2.013000000000000000e+03,3.629131317138671875e-01,1.905719041824340820e+00,5.524404341831348209e-01,0.000000000000000000e+00,1.120000000000000000e+02
1.000000000000000000e+00,1.000000000000000000e+00,1.000000000000000000e+00,5.600000000000000000e+01,2.069000000000000000e+03,3.323018550872802734e-01,1.822942972183227539e+00,4.921990384691657949e-01,0.000000000000000000e+00,1.120000000000000000e+02
0.000000000000000000e+00,1.000000000000000000e+00,0.000000000000000000e+00,5.900000000000000000e+01,2.128000000000000000e+03,3.597590923309326172e-01,1.843966960906982422e+00,5.028908585414718635e-01,0.000000000000000000e+00,1.120000000000000000e+02
1.000000000000000000e+00,1.000000000000000000e+00,1.000000000000000000e+00,6.200000000000000000e+01,2.190000000000000000e+03,3.499150276184082031e-01,2.068041086196899414e+00,7.208421289394332243e-01,0.000000000000000000e+00,1.120000000000000000e+02
1.000000000000000000e+00,1.000000000000000000e+00,1.000000000000000000e+00,5.400000000000000000e+01,2.244000000000000000e+03,3.731701374053955078e-01,1.899307966232299805e+00,5.370601208510382696e-01,0.000000000000000000e+00,1.120000000000000000e+02
0.000000000000000000e+00,1.000000000000000000e+00,0.000000000000000000e+00,6.000000000000000000e+01,2.304000000000000000e+03,3.002378940582275391e-01,1.874905109405517578e+00,5.786856045983952423e-01,0.000000000000000000e+00,1.120000000000000000e+02
0.000000000000000000e+00,1.000000000000000000e+00,0.000000000000000000e+00,5.600000000000000000e+01,2.360000000000000000e+03,3.466451168060302734e-01,1.923043966293334961e+00,5.851413806790017880e-01,0.000000000000000000e+00,1.120000000000000000e+02
0.000000000000000000e+00,1.000000000000000000e+00,0.000000000000000000e+00,5.300000000000000000e+01,2.413000000000000000e+03,3.834700584411621094e-01,2.085602045059204102e+00,7.040227949187336520e-01,0.000000000000000000e+00,1.120000000000000000e+02
0.000000000000000000e+00,1.000000000000000000e+00,0.000000000000000000e+00,6.100000000000000000e+01,2.474000000000000000e+03,3.411378860473632812e-01,1.605790138244628906e+00,2.770257841449467184e-01,0.000000000000000000e+00,1.120000000000000000e+02
0.000000000000000000e+00,1.000000000000000000e+00,0.000000000000000000e+00,6.000000000000000000e+01,2.534000000000000000e+03,4.891731739044189453e-01,1.957539081573486328e+00,4.844153024687931075e-01,0.000000000000000000e+00,1.120000000000000000e+02
0.000000000000000000e+00,1.000000000000000000e+00,0.000000000000000000e+00,6.000000000000000000e+01,2.594000000000000000e+03,2.825818061828613281e-01,1.693260908126831055e+00,4.111899411720796871e-01,0.000000000000000000e+00,1.120000000000000000e+02
0.000000000000000000e+00,1.000000000000000000e+00,0.000000000000000000e+00,5.400000000000000000e+01,2.648000000000000000e+03,3.173599243164062500e-01,1.748250007629394531e+00,4.428041398169634268e-01,0.000000000000000000e+00,1.120000000000000000e+02
1.000000000000000000e+00,1.000000000000000000e+00,1.000000000000000000e+00,6.100000000000000000e+01,2.709000000000000000e+03,3.633708953857421875e-01,1.634310007095336914e+00,2.773920948186236468e-01,0.000000000000000000e+00,1.120000000000000000e+02
1.000000000000000000e+00,1.000000000000000000e+00,1.000000000000000000e+00,6.000000000000000000e+01,2.769000000000000000e+03,3.530809879302978516e-01,2.071431159973144531e+00,7.317526222879486841e-01,0.000000000000000000e+00,1.120000000000000000e+02
1.000000000000000000e+00,1.000000000000000000e+00,1.000000000000000000e+00,6.400000000000000000e+01,2.833000000000000000e+03,3.618190288543701172e-01,1.771689891815185547e+00,4.038680860086150681e-01,0.000000000000000000e+00,1.120000000000000000e+02
1.000000000000000000e+00,1.000000000000000000e+00,1.000000000000000000e+00,6.000000000000000000e+01,2.893000000000000000e+03,3.233149051666259766e-01,1.611262798309326172e+00,2.986351728537015027e-01,0.000000000000000000e+00,1.120000000000000000e+02
0.000000000000000000e+00,1.000000000000000000e+00,0.000000000000000000e+00,6.200000000000000000e+01,2.955000000000000000e+03,3.963382244110107422e-01,1.986930131912231445e+00,6.019748224147454252e-01,0.000000000000000000e+00,1.120000000000000000e+02
1.000000000000000000e+00,1.000000000000000000e+00,1.000000000000000000e+00,5.900000000000000000e+01,3.014000000000000000e+03,2.923998832702636719e-01,1.582251071929931641e+00,3.013274401481161324e-01,0.000000000000000000e+00,1.120000000000000000e+02
1.000000000000000000e+00,1.000000000000000000e+00,1.000000000000000000e+00,6.100000000000000000e+01,3.075000000000000000e+03,4.720640182495117188e-01,1.973953962326049805e+00,5.084580647104084417e-01,0.000000000000000000e+00,1.120000000000000000e+02
1.000000000000000000e+00,1.000000000000000000e+00,1.000000000000000000e+00,5.900000000000000000e+01,3.134000000000000000e+03,3.184809684753417969e-01,1.873116970062255859e+00,5.649653418315873088e-01,0.000000000000000000e+00,1.120000000000000000e+02
0.000000000000000000e+00,1.000000000000000000e+00,0.000000000000000000e+00,6.200000000000000000e+01,3.196000000000000000e+03,3.808541297912597656e-01,1.929214000701904297e+00,5.609265156364966476e-01,0.000000000000000000e+00,1.120000000000000000e+02
0.000000000000000000e+00,1.000000000000000000e+00,0.000000000000000000e+00,6.300000000000000000e+01,3.259000000000000000e+03,3.465919494628906250e-01,1.629066944122314453e+00,2.903577291260475146e-01,0.000000000000000000e+00,1.120000000000000000e+02
0.000000000000000000e+00,1.000000000000000000e+00,0.000000000000000000e+00,5.600000000000000000e+01,3.315000000000000000e+03,4.013199806213378906e-01,1.789644002914428711e+00,3.966169327260768984e-01,0.000000000000000000e+00,1.120000000000000000e+02
0.000000000000000000e+00,1.000000000000000000e+00,0.000000000000000000e+00,6.000000000000000000e+01,3.375000000000000000e+03,3.599789142608642578e-01,1.732402086257934570e+00,3.957913591649788732e-01,0.000000000000000000e+00,1.120000000000000000e+02
0.000000000000000000e+00,1.000000000000000000e+00,0.000000000000000000e+00,6.100000000000000000e+01,3.436000000000000000e+03,3.556981086730957031e-01,1.703923940658569336e+00,3.664542115323701221e-01,0.000000000000000000e+00,1.120000000000000000e+02
1.000000000000000000e+00,1.000000000000000000e+00,1.000000000000000000e+00,5.600000000000000000e+01,3.492000000000000000e+03,3.622691631317138672e-01,1.893471002578735352e+00,5.265605657532163031e-01,0.000000000000000000e+00,1.120000000000000000e+02
0.000000000000000000e+00,1.000000000000000000e+00,0.000000000000000000e+00,5.700000000000000000e+01,3.549000000000000000e+03,4.109430313110351562e-01,1.990188121795654297e+00,5.834235801600706761e-01,0.000000000000000000e+00,1.120000000000000000e+02
0.000000000000000000e+00,1.000000000000000000e+00,0.000000000000000000e+00,5.300000000000000000e+01,3.602000000000000000e+03,3.090429306030273438e-01,1.913432121276855469e+00,6.135893454476202269e-01,0.000000000000000000e+00,1.120000000000000000e+02
0.000000000000000000e+00,1.000000000000000000e+00,0.000000000000000000e+00,6.700000000000000000e+01,3.669000000000000000e+03,2.401068210601806641e-01,1.713251829147338867e+00,4.936937249057912203e-01,0.000000000000000000e+00,1.120000000000000000e+02
1.000000000000000000e+00,1.000000000000000000e+00,1.000000000000000000e+00,6.200000000000000000e+01,3.731000000000000000e+03,6.524529457092285156e-01,2.182522058486938477e+00,5.429064602733931766e-01,0.000000000000000000e+00,1.120000000000000000e+02
1.000000000000000000e+00,1.000000000000000000e+00,1.000000000000000000e+00,6.000000000000000000e+01,3.791000000000000000e+03,5.501930713653564453e-01,2.164948940277099609e+00,6.245539820375434203e-01,0.000000000000000000e+00,1.120000000000000000e+02
1.000000000000000000e+00,1.000000000000000000e+00,1.000000000000000000e+00,5.700000000000000000e+01,3.848000000000000000e+03,4.756000041961669922e-01,1.849159002304077148e+00,3.907254686866484805e-01,0.000000000000000000e+00,1.120000000000000000e+02
1.000000000000000000e+00,1.000000000000000000e+00,1.000000000000000000e+00,5.500000000000000000e+01,3.903000000000000000e+03,4.846749305725097656e-01,1.939787864685058594e+00,4.638201384582514852e-01,0.000000000000000000e+00,1.120000000000000000e+02
0.000000000000000000e+00,1.000000000000000000e+00,0.000000000000000000e+00,5.600000000000000000e+01,3.959000000000000000e+03,3.093760013580322266e-01,1.536545038223266602e+00,2.506907883755309929e-01,0.000000000000000000e+00,1.120000000000000000e+02
1.000000000000000000e+00,1.000000000000000000e+00,1.000000000000000000e+00,6.200000000000000000e+01,4.021000000000000000e+03,3.654150962829589844e-01,1.667849063873291016e+00,3.018895767286507437e-01,0.000000000000000000e+00,1.120000000000000000e+02
0.000000000000000000e+00,1.000000000000000000e+00,0.000000000000000000e+00,6.000000000000000000e+01,4.081000000000000000e+03,3.088378906250000000e-01,1.708692073822021484e+00,4.105250329328388736e-01,0.000000000000000000e+00,1.120000000000000000e+02
1.000000000000000000e+00,1.000000000000000000e+00,1.000000000000000000e+00,5.700000000000000000e+01,4.138000000000000000e+03,3.259210586547851562e-01,1.813858985900878906e+00,5.076945535310930513e-01,0.000000000000000000e+00,1.120000000000000000e+02
0.000000000000000000e+00,1.000000000000000000e+00,0.000000000000000000e+00,5.600000000000000000e+01,4.194000000000000000e+03,3.012928962707519531e-01,2.025887966156005859e+00,7.334488072896371280e-01,0.000000000000000000e+00,1.120000000000000000e+02
0.000000000000000000e+00,1.000000000000000000e+00,0.000000000000000000e+00,5.600000000000000000e+01,4.250000000000000000e+03,3.300240039825439453e-01,1.802520990371704102e+00,4.696748437328963632e-01,0.000000000000000000e+00,1.120000000000000000e+02
0.000000000000000000e+00,1.000000000000000000e+00,0.000000000000000000e+00,5.500000000000000000e+01,4.305000000000000000e+03,3.141062259674072266e-01,1.843736886978149414e+00,5.300735983677551388e-01,0.000000000000000000e+00,1.120000000000000000e+02
1.000000000000000000e+00,1.000000000000000000e+00,1.000000000000000000e+00,6.000000000000000000e+01,4.365000000000000000e+03,3.427979946136474609e-01,1.609055995941162109e+00,2.894917598489440969e-01,0.000000000000000000e+00,1.120000000000000000e+02
1.000000000000000000e+00,1.000000000000000000e+00,1.000000000000000000e+00,6.000000000000000000e+01,4.425000000000000000e+03,3.172020912170410156e-01,1.852050781250000000e+00,5.412994483183717342e-01,0.000000000000000000e+00,1.120000000000000000e+02
0.000000000000000000e+00,1.000000000000000000e+00,0.000000000000000000e+00,5.700000000000000000e+01,4.482000000000000000e+03,3.742480278015136719e-01,1.803934812545776367e+00,4.454041577910229366e-01,0.000000000000000000e+00,1.120000000000000000e+02
0.000000000000000000e+00,1.000000000000000000e+00,0.000000000000000000e+00,6.000000000000000000e+01,4.542000000000000000e+03,3.593480587005615234e-01,1.956487178802490234e+00,6.185181983883309975e-01,0.000000000000000000e+00,1.120000000000000000e+02
0.000000000000000000e+00,1.000000000000000000e+00,0.000000000000000000e+00,5.600000000000000000e+01,4.598000000000000000e+03,2.957220077514648438e-01,1.942786931991577148e+00,6.447021307883626928e-01,0.000000000000000000e+00,1.120000000000000000e+02
0.000000000000000000e+00,1.000000000000000000e+00,0.000000000000000000e+00,5.600000000000000000e+01,4.654000000000000000e+03,2.665247917175292969e-01,1.715824127197265625e+00,4.607870123641798488e-01,0.000000000000000000e+00,1.120000000000000000e+02
1.000000000000000000e+00,1.000000000000000000e+00,1.000000000000000000e+00,5.600000000000000000e+01,4.710000000000000000e+03,4.098460674285888672e-01,2.101722002029418945e+00,7.123431781987992206e-01,0.000000000000000000e+00,1.120000000000000000e+02
1.000000000000000000e+00,1.000000000000000000e+00,1.000000000000000000e+00,5.600000000000000000e+01,4.766000000000000000e+03,3.359589576721191406e-01,1.838501930236816406e+00,5.177907154059294692e-01,0.000000000000000000e+00,1.120000000000000000e+02
0.000000000000000000e+00,1.000000000000000000e+00,0.000000000000000000e+00,5.600000000000000000e+01,4.822000000000000000e+03,2.609708309173583984e-01,1.885241985321044922e+00,6.363411943850518782e-01,0.000000000000000000e+00,1.120000000000000000e+02
1.000000000000000000e+00,1.000000000000000000e+00,1.000000000000000000e+00,6.100000000000000000e+01,4.883000000000000000e+03,2.617669105529785156e-01,1.981619834899902344e+00,7.182667391689947500e-01,0.000000000000000000e+00,1.120000000000000000e+02
1.000000000000000000e+00,1.000000000000000000e+00,1.000000000000000000e+00,6.400000000000000000e+01,4.947000000000000000e+03,3.734462261199951172e-01,2.051430225372314453e+00,6.861968263402775658e-01,0.000000000000000000e+00,1.120000000000000000e+02
1.000000000000000000e+00,1.000000000000000000e+00,1.000000000000000000e+00,5.400000000000000000e+01,5.001000000000000000e+03,3.414490222930908203e-01,1.733346939086914062e+00,4.032443172955154642e-01,0.000000000000000000e+00,1.120000000000000000e+02
0.000000000000000000e+00,1.000000000000000000e+00,0.000000000000000000e+00,6.000000000000000000e+01,5.061000000000000000e+03,3.742370605468750000e-01,1.750151157379150391e+00,3.868383558976778436e-01,0.000000000000000000e+00,1.120000000000000000e+02
0.000000000000000000e+00,1.000000000000000000e+00,0.000000000000000000e+00,5.500000000000000000e+01,5.116000000000000000e+03,3.262760639190673828e-01,1.659168958663940430e+00,3.461054798203809790e-01,0.000000000000000000e+00,1.120000000000000000e+02
0.000000000000000000e+00,1.000000000000000000e+00,0.000000000000000000e+00,5.600000000000000000e+01,5.172000000000000000e+03,4.023959636688232422e-01,1.786606073379516602e+00,3.994111242314284382e-01,0.000000000000000000e+00,1.120000000000000000e+02
0.000000000000000000e+00,1.000000000000000000e+00,0.000000000000000000e+00,5.600000000000000000e+01,5.228000000000000000e+03,3.494789600372314453e-01,1.719173908233642578e+00,3.686645768140117685e-01,0.000000000000000000e+00,1.120000000000000000e+02
0.000000000000000000e+00,1.000000000000000000e+00,0.000000000000000000e+00,6.100000000000000000e+01,5.289000000000000000e+03,3.418540954589843750e-01,1.923352003097534180e+00,5.918917914316741413e-01,0.000000000000000000e+00,1.120000000000000000e+02
0.000000000000000000e+00,1.000000000000000000e+00,0.000000000000000000e+00,5.900000000000000000e+01,5.348000000000000000e+03,2.622239589691162109e-01,1.650856018066406250e+00,3.930427449458787637e-01,0.000000000000000000e+00,1.120000000000000000e+02
0.000000000000000000e+00,1.000000000000000000e+00,0.000000000000000000e+00,5.600000000000000000e+01,5.404000000000000000e+03,3.621988296508789062e-01,2.010804176330566406e+00,6.536510886092157246e-01,0.000000000000000000e+00,1.120000000000000000e+02
1.000000000000000000e+00,1.000000000000000000e+00,1.000000000000000000e+00,5.600000000000000000e+01,5.460000000000000000e+03,4.027800559997558594e-01,2.053963899612426758e+00,6.576929895175460672e-01,0.000000000000000000e+00,1.120000000000000000e+02
1.000000000000000000e+00,1.000000000000000000e+00,1.000000000000000000e+00,5.500000000000000000e+01,5.515000000000000000e+03,2.947530746459960938e-01,1.920361995697021484e+00,6.281866568338563273e-01,0.000000000000000000e+00,1.120000000000000000e+02
0.000000000000000000e+00,1.000000000000000000e+00,0.000000000000000000e+00,5.500000000000000000e+01,5.570000000000000000e+03,3.542051315307617188e-01,1.704351902008056641e+00,3.662192253666362585e-01,0.000000000000000000e+00,1.120000000000000000e+02
0.000000000000000000e+00,1.000000000000000000e+00,0.000000000000000000e+00,5.600000000000000000e+01,5.626000000000000000e+03,3.295478820800781250e-01,2.006091117858886719e+00,6.720886429866589351e-01,0.000000000000000000e+00,1.120000000000000000e+02
1.000000000000000000e+00,1.000000000000000000e+00,1.000000000000000000e+00,5.600000000000000000e+01,5.682000000000000000e+03,2.625999450683593750e-01,2.010640859603881836e+00,7.496794324680572386e-01,0.000000000000000000e+00,1.120000000000000000e+02
1.000000000000000000e+00,1.000000000000000000e+00,1.000000000000000000e+00,6.300000000000000000e+01,5.745000000000000000e+03,3.690168857574462891e-01,1.726919889450073242e+00,3.601536773064770713e-01,0.000000000000000000e+00,1.120000000000000000e+02
0.000000000000000000e+00,1.000000000000000000e+00,0.000000000000000000e+00,5.600000000000000000e+01,5.801000000000000000e+03,3.554019927978515625e-01,1.655904054641723633e+00,3.161553056602955381e-01,0.000000000000000000e+00,1.120000000000000000e+02
1.000000000000000000e+00,1.000000000000000000e+00,1.000000000000000000e+00,5.100000000000000000e+01,5.852000000000000000e+03,3.888080120086669922e-01,1.917804956436157227e+00,5.338303289702758248e-01,0.000000000000000000e+00,1.120000000000000000e+02
0.000000000000000000e+00,1.000000000000000000e+00,0.000000000000000000e+00,6.100000000000000000e+01,5.913000000000000000e+03,2.961981296539306641e-01,1.726453065872192383e+00,4.271395575269274492e-01,0.000000000000000000e+00,1.120000000000000000e+02
1.000000000000000000e+00,1.000000000000000000e+00,1.000000000000000000e+00,5.700000000000000000e+01,5.970000000000000000e+03,3.776001930236816406e-01,1.948925018310546875e+00,5.762244781511951519e-01,0.000000000000000000e+00,1.120000000000000000e+02
1.000000000000000000e+00,1.000000000000000000e+00,1.000000000000000000e+00,5.600000000000000000e+01,6.026000000000000000e+03,3.137421607971191406e-01,1.810173988342285156e+00,5.029717529295807399e-01,0.000000000000000000e+00,1.120000000000000000e+02
1.000000000000000000e+00,1.000000000000000000e+00,1.000000000000000000e+00,5.600000000000000000e+01,6.082000000000000000e+03,2.900571823120117188e-01,1.583425998687744141e+00,3.033548283514546084e-01,0.000000000000000000e+00,1.120000000000000000e+02
0.000000000000000000e+00,1.000000000000000000e+00,0.000000000000000000e+00,5.600000000000000000e+01,6.138000000000000000e+03,4.389200210571289062e-01,1.948831796646118164e+00,5.187119368923083229e-01,0.000000000000000000e+00,1.120000000000000000e+02
0.000000000000000000e+00,1.000000000000000000e+00,0.000000000000000000e+00,5.900000000000000000e+01,6.197000000000000000e+03,3.429877758026123047e-01,1.790618181228637695e+00,4.594910089521607177e-01,0.000000000000000000e+00,1.120000000000000000e+02
0.000000000000000000e+00,1.000000000000000000e+00,0.000000000000000000e+00,5.700000000000000000e+01,6.254000000000000000e+03,3.327178955078125000e-01,1.598210811614990234e+00,2.746348023030098506e-01,0.000000000000000000e+00,1.120000000000000000e+02
1.000000000000000000e+00,1.000000000000000000e+00,1.000000000000000000e+00,5.500000000000000000e+01,6.309000000000000000e+03,4.927668571472167969e-01,1.801989793777465820e+00,3.266424598744855912e-01,0.000000000000000000e+00,1.120000000000000000e+02
1.000000000000000000e+00,1.000000000000000000e+00,1.000000000000000000e+00,5.600000000000000000e+01,6.365000000000000000e+03,4.144849777221679688e-01,1.981676101684570312e+00,5.747793881731360077e-01,0.000000000000000000e+00,1.120000000000000000e+02
1.000000000000000000e+00,1.000000000000000000e+00,1.000000000000000000e+00,6.000000000000000000e+01,6.425000000000000000e+03,3.404629230499267578e-01,1.598296165466308594e+00,2.735145830451598536e-01,0.000000000000000000e+00,1.120000000000000000e+02
0.000000000000000000e+00,1.000000000000000000e+00,0.000000000000000000e+00,5.600000000000000000e+01,6.481000000000000000e+03,3.474719524383544922e-01,1.777954816818237305e+00,4.346753680799815278e-01,0.000000000000000000e+00,1.120000000000000000e+02
0.000000000000000000e+00,1.000000000000000000e+00,0.000000000000000000e+00,5.600000000000000000e+01,6.537000000000000000e+03,3.422191143035888672e-01,1.807508945465087891e+00,4.755939144530023088e-01,0.000000000000000000e+00,1.120000000000000000e+02
1.000000000000000000e+00,1.000000000000000000e+00,1.000000000000000000e+00,5.400000000000000000e+01,6.591000000000000000e+03,3.222858905792236328e-01,1.800348997116088867e+00,4.926258657214027115e-01,0.000000000000000000e+00,1.120000000000000000e+02
1.000000000000000000e+00,1.000000000000000000e+00,1.000000000000000000e+00,5.900000000000000000e+01,6.650000000000000000e+03,3.503768444061279297e-01,1.770921945571899414e+00,4.303997184125629705e-01,0.000000000000000000e+00,1.120000000000000000e+02
1.000000000000000000e+00,1.000000000000000000e+00,1.000000000000000000e+00,5.900000000000000000e+01,6.709000000000000000e+03,4.208180904388427734e-01,1.916473865509033203e+00,5.135847462290608068e-01,0.000000000000000000e+00,1.120000000000000000e+02
1.000000000000000000e+00,1.000000000000000000e+00,1.000000000000000000e+00,6.300000000000000000e+01,6.772000000000000000e+03,3.431580066680908203e-01,1.861714124679565430e+00,5.419529301414012235e-01,0.000000000000000000e+00,1.120000000000000000e+02
1.000000000000000000e+00,1.000000000000000000e+00,1.000000000000000000e+00,5.700000000000000000e+01,6.829000000000000000e+03,3.045461177825927734e-01,1.866521835327148438e+00,5.751239537600353335e-01,0.000000000000000000e+00,1.120000000000000000e+02
0.000000000000000000e+00,1.000000000000000000e+00,0.000000000000000000e+00,5.500000000000000000e+01,6.884000000000000000e+03,2.990190982818603516e-01,1.629781007766723633e+00,3.386834394424472761e-01,0.000000000000000000e+00,1.120000000000000000e+02
0.000000000000000000e+00,1.000000000000000000e+00,0.000000000000000000e+00,6.100000000000000000e+01,6.945000000000000000e+03,4.237530231475830078e-01,1.707188129425048828e+00,2.959571370918104294e-01,0.000000000000000000e+00,1.120000000000000000e+02
0.000000000000000000e+00,0.000000000000000000e+00,1.000000000000000000e+00,4.200000000000000000e+01,6.987000000000000000e+03,4.147310256958007812e-01,1.806397914886474609e+00,4.023318588001732476e-01,0.000000000000000000e+00,1.120000000000000000e+02
0.000000000000000000e+00,1.000000000000000000e+00,0.000000000000000000e+00,5.900000000000000000e+01,7.046000000000000000e+03,3.621401786804199219e-01,1.989021062850952148e+00,6.245197680192143830e-01,0.000000000000000000e+00,1.120000000000000000e+02
0.000000000000000000e+00,0.000000000000000000e+00,1.000000000000000000e+00,4.600000000000000000e+01,7.092000000000000000e+03,3.248441219329833984e-01,1.558426141738891602e+00,2.500927973935076487e-01,1.000000000000000000e+00,1.110000000000000000e+02
1.000000000000000000e+00,1.000000000000000000e+00,1.000000000000000000e+00,6.100000000000000000e+01,7.153000000000000000e+03,4.452230930328369141e-01,1.759757041931152344e+00,3.098547025414143952e-01,0.000000000000000000e+00,1.110000000000000000e+02
0.000000000000000000e+00,1.000000000000000000e+00,0.000000000000000000e+00,6.000000000000000000e+01,7.213000000000000000e+03,3.072979450225830078e-01,1.547008037567138672e+00,2.569973491712234104e-01,0.000000000000000000e+00,1.110000000000000000e+02
0.000000000000000000e+00,1.000000000000000000e+00,0.000000000000000000e+00,5.900000000000000000e+01,7.272000000000000000e+03,3.823690414428710938e-01,1.760414838790893555e+00,3.840356201955753002e-01,0.000000000000000000e+00,1.110000000000000000e+02
0.000000000000000000e+00,1.000000000000000000e+00,0.000000000000000000e+00,5.300000000000000000e+01,7.325000000000000000e+03,3.227939605712890625e-01,1.727382183074951172e+00,4.114471767649570122e-01,0.000000000000000000e+00,1.110000000000000000e+02
1.000000000000000000e+00,1.000000000000000000e+00,1.000000000000000000e+00,5.600000000000000000e+01,7.381000000000000000e+03,3.600862026214599609e-01,1.919903993606567383e+00,5.812372632854254650e-01,0.000000000000000000e+00,1.110000000000000000e+02
0.000000000000000000e+00,1.000000000000000000e+00,0.000000000000000000e+00,6.100000000000000000e+01,7.442000000000000000e+03,2.985839843750000000e-01,1.690593957901000977e+00,4.054414676251713034e-01,0.000000000000000000e+00,1.110000000000000000e+02
0.000000000000000000e+00,1.000000000000000000e+00,0.000000000000000000e+00,6.200000000000000000e+01,7.504000000000000000e+03,3.396120071411132812e-01,1.876593112945556641e+00,5.486456082634787457e-01,0.000000000000000000e+00,1.110000000000000000e+02
1.000000000000000000e+00,1.000000000000000000e+00,1.000000000000000000e+00,5.400000000000000000e+01,7.558000000000000000e+03,3.023440837860107422e-01,1.954457044601440430e+00,6.530812213068537542e-01,0.000000000000000000e+00,1.110000000000000000e+02
0.000000000000000000e+00,1.000000000000000000e+00,0.000000000000000000e+00,5.600000000000000000e+01,7.614000000000000000e+03,3.234081268310546875e-01,1.957515954971313477e+00,6.440072455238867732e-01,0.000000000000000000e+00,1.110000000000000000e+02
0.000000000000000000e+00,1.000000000000000000e+00,0.000000000000000000e+00,5.600000000000000000e+01,7.670000000000000000e+03,2.974891662597656250e-01,1.870728015899658203e+00,5.816089697417876625e-01,0.000000000000000000e+00,1.110000000000000000e+02
1.000000000000000000e+00,1.000000000000000000e+00,1.000000000000000000e+00,6.000000000000000000e+01,7.730000000000000000e+03,3.358979225158691406e-01,2.032783985137939453e+00,7.142731740893042414e-01,0.000000000000000000e+00,1.110000000000000000e+02
1.000000000000000000e+00,1.000000000000000000e+00,1.000000000000000000e+00,5.500000000000000000e+01,7.785000000000000000e+03,2.956399917602539062e-01,1.628401041030883789e+00,3.431814682039703857e-01,0.000000000000000000e+00,1.110000000000000000e+02
1.000000000000000000e+00,1.000000000000000000e+00,1.000000000000000000e+00,5.700000000000000000e+01,7.842000000000000000e+03,3.644130229949951172e-01,1.884965181350708008e+00,5.282949440738503588e-01,0.000000000000000000e+00,1.110000000000000000e+02
1.000000000000000000e+00,1.000000000000000000e+00,1.000000000000000000e+00,6.400000000000000000e+01,7.906000000000000000e+03,3.230550289154052734e-01,2.035344839096069336e+00,7.299318558686106462e-01,0.000000000000000000e+00,1.110000000000000000e+02
1.000000000000000000e+00,1.000000000000000000e+00,1.000000000000000000e+00,5.700000000000000000e+01,7.963000000000000000e+03,2.678420543670654297e-01,1.636744976043701172e+00,3.837729076782757653e-01,0.000000000000000000e+00,1.110000000000000000e+02
0.000000000000000000e+00,1.000000000000000000e+00,0.000000000000000000e+00,5.600000000000000000e+01,8.019000000000000000e+03,3.908751010894775391e-01,1.935963869094848633e+00,5.529798912991636950e-01,0.000000000000000000e+00,1.110000000000000000e+02
1.000000000000000000e+00,1.000000000000000000e+00,1.000000000000000000e+00,6.300000000000000000e+01,8.082000000000000000e+03,3.496279716491699219e-01,1.669082880020141602e+00,3.223861674501614094e-01,0.000000000000000000e+00,1.110000000000000000e+02
1.000000000000000000e+00,1.000000000000000000e+00,1.000000000000000000e+00,6.200000000000000000e+01,8.144000000000000000e+03,4.280049800872802734e-01,1.812407016754150391e+00,3.848140394517635121e-01,0.000000000000000000e+00,1.110000000000000000e+02
0.000000000000000000e+00,1.000000000000000000e+00,0.000000000000000000e+00,6.200000000000000000e+01,8.206000000000000000e+03,3.624360561370849609e-01,2.059670209884643555e+00,6.942525240351300475e-01,0.000000000000000000e+00,1.110000000000000000e+02
1.000000000000000000e+00,1.000000000000000000e+00,1.000000000000000000e+00,5.600000000000000000e+01,8.262000000000000000e+03,2.904801368713378906e-01,1.536216020584106445e+00,2.643141035759760671e-01,0.000000000000000000e+00,1.110000000000000000e+02
1.000000000000000000e+00,1.000000000000000000e+00,1.000000000000000000e+00,6.200000000000000000e+01,8.324000000000000000e+03,4.572119712829589844e-01,2.062459945678710938e+00,6.264949482110813150e-01,0.000000000000000000e+00,1.110000000000000000e+02
0.000000000000000000e+00,1.000000000000000000e+00,0.000000000000000000e+00,5.500000000000000000e+01,8.379000000000000000e+03,2.766580581665039062e-01,1.577709913253784180e+00,3.212727267747573778e-01,0.000000000000000000e+00,1.110000000000000000e+02
1.000000000000000000e+00,1.000000000000000000e+00,1.000000000000000000e+00,6.100000000000000000e+01,8.440000000000000000e+03,3.614439964294433594e-01,1.690150022506713867e+00,3.282075408276968753e-01,0.000000000000000000e+00,1.110000000000000000e+02
0.000000000000000000e+00,1.000000000000000000e+00,0.000000000000000000e+00,5.500000000000000000e+01,8.495000000000000000e+03,3.600788116455078125e-01,1.939774036407470703e+00,6.010738708187362001e-01,0.000000000000000000e+00,1.110000000000000000e+02
1.000000000000000000e+00,1.000000000000000000e+00,1.000000000000000000e+00,6.000000000000000000e+01,8.555000000000000000e+03,3.331708908081054688e-01,1.654664993286132812e+00,3.227909919834818786e-01,0.000000000000000000e+00,1.110000000000000000e+02
0.000000000000000000e+00,1.000000000000000000e+00,0.000000000000000000e+00,6.000000000000000000e+01,8.615000000000000000e+03,3.322360515594482422e-01,1.959940195083618164e+00,6.324903552959171282e-01,0.000000000000000000e+00,1.110000000000000000e+02
0.000000000000000000e+00,1.000000000000000000e+00,0.000000000000000000e+00,5.500000000000000000e+01,8.670000000000000000e+03,3.356389999389648438e-01,1.956076860427856445e+00,6.220013424489512222e-01,0.000000000000000000e+00,1.110000000000000000e+02
0.000000000000000000e+00,1.000000000000000000e+00,0.000000000000000000e+00,5.900000000000000000e+01,8.729000000000000000e+03,3.017029762268066406e-01,1.837186813354492188e+00,5.426658664146313260e-01,0.000000000000000000e+00,1.110000000000000000e+02
1.000000000000000000e+00,1.000000000000000000e+00,1.000000000000000000e+00,6.100000000000000000e+01,8.790000000000000000e+03,3.414988517761230469e-01,1.691345930099487305e+00,3.676259633625517109e-01,0.000000000000000000e+00,1.110000000000000000e+02
1.000000000000000000e+00,1.000000000000000000e+00,1.000000000000000000e+00,6.100000000000000000e+01,8.851000000000000000e+03,3.635110855102539062e-01,2.101234912872314453e+00,7.354367956909805271e-01,0.000000000000000000e+00,1.110000000000000000e+02
0.000000000000000000e+00,1.000000000000000000e+00,0.000000000000000000e+00,5.600000000000000000e+01,8.907000000000000000e+03,2.705380916595458984e-01,1.612030029296875000e+00,3.477523876974273342e-01,0.000000000000000000e+00,1.110000000000000000e+02
0.000000000000000000e+00,1.000000000000000000e+00,0.000000000000000000e+00,5.100000000000000000e+01,8.958000000000000000e+03,3.786189556121826172e-01,2.004403114318847656e+00,6.352832353672432930e-01,0.000000000000000000e+00,1.110000000000000000e+02
0.000000000000000000e+00,1.000000000000000000e+00,0.000000000000000000e+00,6.600000000000000000e+01,9.024000000000000000e+03,2.901039123535156250e-01,1.740185022354125977e+00,4.590445345424870593e-01,0.000000000000000000e+00,1.110000000000000000e+02
1.000000000000000000e+00,1.000000000000000000e+00,1.000000000000000000e+00,5.600000000000000000e+01,9.080000000000000000e+03,3.377859592437744141e-01,1.599366188049316406e+00,2.753302825971566947e-01,0.000000000000000000e+00,1.110000000000000000e+02
0.000000000000000000e+00,1.000000000000000000e+00,0.000000000000000000e+00,5.600000000000000000e+01,9.136000000000000000e+03,4.118149280548095703e-01,1.787286043167114258e+00,3.792562276733501547e-01,0.000000000000000000e+00,1.110000000000000000e+02
1.000000000000000000e+00,1.000000000000000000e+00,1.000000000000000000e+00,6.000000000000000000e+01,9.196000000000000000e+03,3.824520111083984375e-01,1.995187044143676758e+00,6.243241908165233500e-01,0.000000000000000000e+00,1.110000000000000000e+02
0.000000000000000000e+00,1.000000000000000000e+00,0.000000000000000000e+00,5.700000000000000000e+01,9.253000000000000000e+03,1.706371307373046875e-01,1.527495861053466797e+00,3.688127767609091223e-01,0.000000000000000000e+00,1.110000000000000000e+02
0.000000000000000000e+00,1.000000000000000000e+00,0.000000000000000000e+00,6.200000000000000000e+01,9.315000000000000000e+03,3.923070430755615234e-01,1.823433876037597656e+00,4.422025517192800237e-01,0.000000000000000000e+00,1.110000000000000000e+02
1.000000000000000000e+00,1.000000000000000000e+00,1.000000000000000000e+00,6.100000000000000000e+01,9.376000000000000000e+03,3.356449604034423828e-01,1.789641141891479492e+00,4.652592101302622241e-01,0.000000000000000000e+00,1.110000000000000000e+02
0.000000000000000000e+00,1.000000000000000000e+00,0.000000000000000000e+00,5.900000000000000000e+01,9.435000000000000000e+03,3.247048854827880859e-01,1.939292907714843750e+00,6.211390391107936004e-01,0.000000000000000000e+00,1.110000000000000000e+02
0.000000000000000000e+00,1.000000000000000000e+00,0.000000000000000000e+00,5.600000000000000000e+01,9.491000000000000000e+03,2.755270004272460938e-01,1.867946147918701172e+00,6.058291661404004991e-01,0.000000000000000000e+00,1.110000000000000000e+02
0.000000000000000000e+00,1.000000000000000000e+00,0.000000000000000000e+00,6.200000000000000000e+01,9.553000000000000000e+03,3.159217834472656250e-01,1.867975950241088867e+00,5.572480538296311625e-01,0.000000000000000000e+00,1.110000000000000000e+02
0.000000000000000000e+00,1.000000000000000000e+00,0.000000000000000000e+00,5.600000000000000000e+01,9.609000000000000000e+03,2.982819080352783203e-01,1.876306056976318359e+00,5.836698322769523495e-01,0.000000000000000000e+00,1.110000000000000000e+02
0.000000000000000000e+00,1.000000000000000000e+00,0.000000000000000000e+00,6.200000000000000000e+01,9.671000000000000000e+03,2.749660015106201172e-01,1.520441055297851562e+00,2.545185269219690793e-01,0.000000000000000000e+00,1.110000000000000000e+02
0.000000000000000000e+00,1.000000000000000000e+00,0.000000000000000000e+00,5.500000000000000000e+01,9.726000000000000000e+03,4.423959255218505859e-01,1.719731092453002930e+00,2.909617630244618058e-01,0.000000000000000000e+00,1.110000000000000000e+02
1.000000000000000000e+00,1.000000000000000000e+00,1.000000000000000000e+00,6.000000000000000000e+01,9.786000000000000000e+03,4.708259105682373047e-01,2.118914842605590820e+00,6.595863401653229152e-01,0.000000000000000000e+00,1.110000000000000000e+02
0.000000000000000000e+00,1.000000000000000000e+00,0.000000000000000000e+00,6.200000000000000000e+01,9.848000000000000000e+03,2.361991405487060547e-01,1.805447816848754883e+00,5.818526350179591411e-01,0.000000000000000000e+00,1.110000000000000000e+02
0.000000000000000000e+00,1.000000000000000000e+00,0.000000000000000000e+00,6.100000000000000000e+01,9.909000000000000000e+03,2.936089038848876953e-01,1.795462846755981445e+00,5.107753969401163108e-01,0.000000000000000000e+00,1.110000000000000000e+02
0.000000000000000000e+00,1.000000000000000000e+00,0.000000000000000000e+00,6.200000000000000000e+01,9.971000000000000000e+03,2.243468761444091797e-01,1.572035074234008789e+00,3.664339990670510416e-01,0.000000000000000000e+00,1.110000000000000000e+02
0.000000000000000000e+00,1.000000000000000000e+00,0.000000000000000000e+00,6.400000000000000000e+01,1.003500000000000000e+04,4.960448741912841797e-01,2.193610906600952148e+00,6.930914331433015718e-01,0.000000000000000000e+00,1.110000000000000000e+02
1.000000000000000000e+00,1.000000000000000000e+00,1.000000000000000000e+00,5.700000000000000000e+01,1.009200000000000000e+04,3.108091354370117188e-01,1.622249841690063477e+00,3.324686585131033101e-01,0.000000000000000000e+00,1.110000000000000000e+02
0.000000000000000000e+00,1.000000000000000000e+00,0.000000000000000000e+00,5.900000000000000000e+01,1.015100000000000000e+04,3.804950714111328125e-01,1.958099126815795898e+00,5.737368039270043241e-01,0.000000000000000000e+00,1.110000000000000000e+02
0.000000000000000000e+00,1.000000000000000000e+00,0.000000000000000000e+00,5.900000000000000000e+01,1.021000000000000000e+04,2.895839214324951172e-01,1.693825960159301758e+00,4.177982460859363534e-01,0.000000000000000000e+00,1.110000000000000000e+02
1.000000000000000000e+00,1.000000000000000000e+00,1.000000000000000000e+00,5.100000000000000000e+01,1.026100000000000000e+04,4.176418781280517578e-01,2.040338993072509766e+00,6.246939391222470217e-01,0.000000000000000000e+00,1.110000000000000000e+02
1.000000000000000000e+00,1.000000000000000000e+00,1.000000000000000000e+00,6.100000000000000000e+01,1.032200000000000000e+04,3.623819351196289062e-01,1.744113922119140625e+00,3.857820528691984219e-01,0.000000000000000000e+00,1.110000000000000000e+02
0.000000000000000000e+00,1.000000000000000000e+00,0.000000000000000000e+00,5.200000000000000000e+01,1.037400000000000000e+04,3.874771595001220703e-01,1.991179943084716797e+00,6.101359911715834583e-01,0.000000000000000000e+00,1.110000000000000000e+02
1.000000000000000000e+00,1.000000000000000000e+00,1.000000000000000000e+00,5.700000000000000000e+01,1.043100000000000000e+04,3.211669921875000000e-01,1.885507106781005859e+00,5.790961380800201397e-01,0.000000000000000000e+00,1.110000000000000000e+02
0.000000000000000000e+00,1.000000000000000000e+00,0.000000000000000000e+00,5.900000000000000000e+01,1.049000000000000000e+04,2.999567985534667969e-01,1.652845859527587891e+00,3.656050122447295214e-01,0.000000000000000000e+00,1.110000000000000000e+02
0.000000000000000000e+00,1.000000000000000000e+00,0.000000000000000000e+00,5.500000000000000000e+01,1.054500000000000000e+04,3.893051147460937500e-01,1.767161846160888672e+00,3.828383244938117769e-01,0.000000000000000000e+00,1.110000000000000000e+02
1.000000000000000000e+00,1.000000000000000000e+00,1.000000000000000000e+00,5.700000000000000000e+01,1.060200000000000000e+04,4.266722202301025391e-01,1.988789081573486328e+00,5.714892267659928971e-01,0.000000000000000000e+00,1.110000000000000000e+02
1.000000000000000000e+00,1.000000000000000000e+00,1.000000000000000000e+00,6.200000000000000000e+01,1.066400000000000000e+04,3.574380874633789062e-01,1.921080112457275391e+00,5.760159073947725972e-01,0.000000000000000000e+00,1.110000000000000000e+02
0.000000000000000000e+00,1.000000000000000000e+00,0.000000000000000000e+00,5.600000000000000000e+01,1.072000000000000000e+04,2.488291263580322266e-01,1.861903905868530273e+00,6.212788100807895564e-01,0.000000000000000000e+00,1.110000000000000000e+02
0.000000000000000000e+00,1.000000000000000000e+00,0.000000000000000000e+00,6.000000000000000000e+01,1.078000000000000000e+04,2.991929054260253906e-01,1.895846128463745117e+00,6.005504554978950971e-01,0.000000000000000000e+00,1.110000000000000000e+02
1.000000000000000000e+00,1.000000000000000000e+00,1.000000000000000000e+00,5.900000000000000000e+01,1.083900000000000000e+04,2.723569869995117188e-01,1.527785062789916992e+00,2.621139900444801607e-01,0.000000000000000000e+00,1.110000000000000000e+02
1.000000000000000000e+00,1.000000000000000000e+00,1.000000000000000000e+00,5.600000000000000000e+01,1.089500000000000000e+04,5.506720542907714844e-01,2.118660926818847656e+00,5.805356970346295942e-01,0.000000000000000000e+00,1.110000000000000000e+02
0.000000000000000000e+00,1.000000000000000000e+00,0.000000000000000000e+00,5.900000000000000000e+01,1.095400000000000000e+04,3.210811614990234375e-01,1.965379953384399414e+00,6.625913608853655212e-01,0.000000000000000000e+00,1.110000000000000000e+02
1.000000000000000000e+00,1.000000000000000000e+00,1.000000000000000000e+00,5.600000000000000000e+01,1.101000000000000000e+04,3.614850044250488281e-01,2.023827791213989258e+00,6.698196552370745405e-01,0.000000000000000000e+00,1.110000000000000000e+02
0.000000000000000000e+00,1.000000000000000000e+00,0.000000000000000000e+00,5.600000000000000000e+01,1.106600000000000000e+04,6.382238864898681641e-01,2.072108983993530273e+00,4.422676735927878466e-01,0.000000000000000000e+00,1.110000000000000000e+02
0.000000000000000000e+00,1.000000000000000000e+00,0.000000000000000000e+00,5.400000000000000000e+01,1.112000000000000000e+04,4.075551033020019531e-01,1.998462915420532227e+00,6.073258473753799791e-01,0.000000000000000000e+00,1.110000000000000000e+02
1.000000000000000000e+00,1.000000000000000000e+00,1.000000000000000000e+00,6.200000000000000000e+01,1.118200000000000000e+04,3.437309265136718750e-01,1.737498998641967773e+00,3.951305827410646065e-01,0.000000000000000000e+00,1.110000000000000000e+02
1.000000000000000000e+00,1.000000000000000000e+00,1.000000000000000000e+00,6.200000000000000000e+01,1.124400000000000000e+04,3.534631729125976562e-01,1.874819040298461914e+00,5.365246128038569928e-01,0.000000000000000000e+00,1.110000000000000000e+02
1.000000000000000000e+00,1.000000000000000000e+00,1.000000000000000000e+00,6.200000000000000000e+01,1.130600000000000000e+04,3.281829357147216797e-01,1.976834058761596680e+00,6.633256503306125262e-01,0.000000000000000000e+00,1.110000000000000000e+02
0.000000000000000000e+00,1.000000000000000000e+00,0.000000000000000000e+00,6.400000000000000000e+01,1.137000000000000000e+04,3.186399936676025391e-01,2.000909090042114258e+00,6.976400340793282862e-01,0.000000000000000000e+00,1.110000000000000000e+02
1.000000000000000000e+00,1.000000000000000000e+00,1.000000000000000000e+00,5.900000000000000000e+01,1.142900000000000000e+04,3.097019195556640625e-01,2.029047966003417969e+00,7.433324901515594441e-01,0.000000000000000000e+00,1.110000000000000000e+02
0.000000000000000000e+00,1.000000000000000000e+00,0.000000000000000000e+00,5.500000000000000000e+01,1.148400000000000000e+04,2.153689861297607422e-01,1.775494813919067383e+00,5.693886560063232682e-01,0.000000000000000000e+00,1.110000000000000000e+02
1.000000000000000000e+00,1.000000000000000000e+00,1.000000000000000000e+00,5.900000000000000000e+01,1.154300000000000000e+04,2.651259899139404297e-01,1.819887876510620117e+00,5.557449949710010495e-01,0.000000000000000000e+00,1.110000000000000000e+02
0.000000000000000000e+00,1.000000000000000000e+00,0.000000000000000000e+00,5.600000000000000000e+01,1.159900000000000000e+04,2.964389324188232422e-01,1.767892122268676758e+00,4.738353451901394231e-01,0.000000000000000000e+00,1.110000000000000000e+02
1.000000000000000000e+00,1.000000000000000000e+00,1.000000000000000000e+00,5.900000000000000000e+01,1.165800000000000000e+04,3.558809757232666016e-01,1.996074914932250977e+00,6.531353721906741905e-01,0.000000000000000000e+00,1.110000000000000000e+02
1.000000000000000000e+00,1.000000000000000000e+00,1.000000000000000000e+00,6.200000000000000000e+01,1.172000000000000000e+04,3.289308547973632812e-01,1.813843965530395508e+00,4.838791616158896747e-01,0.000000000000000000e+00,1.110000000000000000e+02
0.000000000000000000e+00,1.000000000000000000e+00,0.000000000000000000e+00,5.700000000000000000e+01,1.177700000000000000e+04,3.273420333862304688e-01,1.701647043228149414e+00,3.857399506086395813e-01,0.000000000000000000e+00,1.110000000000000000e+02
0.000000000000000000e+00,1.000000000000000000e+00,0.000000000000000000e+00,5.700000000000000000e+01,1.183400000000000000e+04,3.584299087524414062e-01,1.712913036346435547e+00,3.653974169409061057e-01,0.000000000000000000e+00,1.110000000000000000e+02
0.000000000000000000e+00,1.000000000000000000e+00,0.000000000000000000e+00,5.400000000000000000e+01,1.188800000000000000e+04,3.564550876617431641e-01,1.664448976516723633e+00,3.299625544907485719e-01,0.000000000000000000e+00,1.110000000000000000e+02
1.000000000000000000e+00,1.000000000000000000e+00,1.000000000000000000e+00,5.600000000000000000e+01,1.194400000000000000e+04,4.977760314941406250e-01,2.167307138442993164e+00,6.803776434565433906e-01,0.000000000000000000e+00,1.110000000000000000e+02
1.000000000000000000e+00,1.000000000000000000e+00,1.000000000000000000e+00,6.000000000000000000e+01,1.200400000000000000e+04,3.512570858001708984e-01,1.900182962417602539e+00,5.640500974242541599e-01,0.000000000000000000e+00,1.110000000000000000e+02
0.000000000000000000e+00,1.000000000000000000e+00,0.000000000000000000e+00,6.200000000000000000e+01,1.206600000000000000e+04,3.813078403472900391e-01,1.942695140838623047e+00,5.735236643192342942e-01,0.000000000000000000e+00,1.110000000000000000e+02
1.000000000000000000e+00,1.000000000000000000e+00,1.000000000000000000e+00,5.700000000000000000e+01,1.212300000000000000e+04,3.354001045227050781e-01,1.742647886276245117e+00,4.163806413283443475e-01,0.000000000000000000e+00,1.110000000000000000e+02
0.000000000000000000e+00,1.000000000000000000e+00,0.000000000000000000e+00,5.600000000000000000e+01,1.217900000000000000e+04,3.534460067749023438e-01,2.030466079711914062e+00,6.804646443555468771e-01,0.000000000000000000e+00,1.110000000000000000e+02
0.000000000000000000e+00,1.000000000000000000e+00,0.000000000000000000e+00,5.600000000000000000e+01,1.223500000000000000e+04,3.548679351806640625e-01,1.916560888290405273e+00,5.800742530900480087e-01,0.000000000000000000e+00,1.110000000000000000e+02
0.000000000000000000e+00,1.000000000000000000e+00,0.000000000000000000e+00,5.600000000000000000e+01,1.229100000000000000e+04,3.422529697418212891e-01,1.998809814453125000e+00,6.788991390082206312e-01,0.000000000000000000e+00,1.110000000000000000e+02
0.000000000000000000e+00,1.000000000000000000e+00,0.000000000000000000e+00,6.000000000000000000e+01,1.235100000000000000e+04,3.133230209350585938e-01,1.835256814956665039e+00,5.310488107114981204e-01,0.000000000000000000e+00,1.110000000000000000e+02
1.000000000000000000e+00,1.000000000000000000e+00,1.000000000000000000e+00,5.600000000000000000e+01,1.240700000000000000e+04,5.810699462890625000e-01,2.130280971527099609e+00,5.613726211551401946e-01,0.000000000000000000e+00,1.110000000000000000e+02
0.000000000000000000e+00,1.000000000000000000e+00,0.000000000000000000e+00,6.200000000000000000e+01,1.246900000000000000e+04,3.178110122680664062e-01,1.944414138793945312e+00,6.391600253249427599e-01,0.000000000000000000e+00,1.110000000000000000e+02
0.000000000000000000e+00,1.000000000000000000e+00,0.000000000000000000e+00,6.100000000000000000e+01,1.253000000000000000e+04,3.638739585876464844e-01,1.625128984451293945e+00,2.647497515012219860e-01,0.000000000000000000e+00,1.110000000000000000e+02
0.000000000000000000e+00,0.000000000000000000e+00,1.000000000000000000e+00,3.400000000000000000e+01,1.256400000000000000e+04,4.572520256042480469e-01,1.843981027603149414e+00,4.086534865100878156e-01,1.000000000000000000e+00,1.120000000000000000e+02
1.000000000000000000e+00,1.000000000000000000e+00,1.000000000000000000e+00,5.600000000000000000e+01,1.262000000000000000e+04,3.453588485717773438e-01,1.719918966293334961e+00,3.786811494396888911e-01,0.000000000000000000e+00,1.120000000000000000e+02
1.000000000000000000e+00,1.000000000000000000e+00,1.000000000000000000e+00,6.000000000000000000e+01,1.268000000000000000e+04,3.857409954071044922e-01,2.098622798919677734e+00,7.270529342552218832e-01,0.000000000000000000e+00,1.120000000000000000e+02
1.000000000000000000e+00,1.000000000000000000e+00,1.000000000000000000e+00,5.600000000000000000e+01,1.273600000000000000e+04,3.638169765472412109e-01,1.861177206039428711e+00,5.052071844901838693e-01,0.000000000000000000e+00,1.120000000000000000e+02
1.000000000000000000e+00,1.000000000000000000e+00,1.000000000000000000e+00,5.400000000000000000e+01,1.279000000000000000e+04,3.771970272064208984e-01,2.099203824996948242e+00,7.376015120896082244e-01,0.000000000000000000e+00,1.120000000000000000e+02
0.000000000000000000e+00,1.000000000000000000e+00,0.000000000000000000e+00,6.400000000000000000e+01,1.285400000000000000e+04,2.723379135131835938e-01,1.845782995223999023e+00,5.836079796266431252e-01,0.000000000000000000e+00,1.120000000000000000e+02
0.000000000000000000e+00,1.000000000000000000e+00,0.000000000000000000e+00,5.900000000000000000e+01,1.291300000000000000e+04,3.473341464996337891e-01,1.986783027648925781e+00,6.370783876059415984e-01,0.000000000000000000e+00,1.120000000000000000e+02
0.000000000000000000e+00,1.000000000000000000e+00,0.000000000000000000e+00,6.200000000000000000e+01,1.297500000000000000e+04,2.910158634185791016e-01,1.858325004577636719e+00,5.789099578976364402e-01,0.000000000000000000e+00,1.120000000000000000e+02
0.000000000000000000e+00,1.000000000000000000e+00,0.000000000000000000e+00,5.900000000000000000e+01,1.303400000000000000e+04,3.270831108093261719e-01,1.687461853027343750e+00,3.832979510647159804e-01,0.000000000000000000e+00,1.120000000000000000e+02
1.000000000000000000e+00,1.000000000000000000e+00,1.000000000000000000e+00,6.100000000000000000e+01,1.309500000000000000e+04,4.721701145172119141e-01,1.824790954589843750e+00,3.582048728121695613e-01,0.000000000000000000e+00,1.120000000000000000e+02
1.000000000000000000e+00,1.000000000000000000e+00,1.000000000000000000e+00,5.600000000000000000e+01,1.315100000000000000e+04,4.485590457916259766e-01,2.169675827026367188e+00,7.275945694127727847e-01,0.000000000000000000e+00,1.120000000000000000e+02
1.000000000000000000e+00,1.000000000000000000e+00,1.000000000000000000e+00,6.200000000000000000e+01,1.321300000000000000e+04,3.560061454772949219e-01,1.710375070571899414e+00,3.717468319431390111e-01,0.000000000000000000e+00,1.120000000000000000e+02
0.000000000000000000e+00,1.000000000000000000e+00,0.000000000000000000e+00,6.200000000000000000e+01,1.327500000000000000e+04,5.913879871368408203e-01,2.191433191299438477e+00,6.130611132514331985e-01,0.000000000000000000e+00,1.120000000000000000e+02
1.000000000000000000e+00,1.000000000000000000e+00,1.000000000000000000e+00,6.100000000000000000e+01,1.333600000000000000e+04,4.042098522186279297e-01,1.710687875747680664e+00,3.241282396861123738e-01,0.000000000000000000e+00,1.120000000000000000e+02
0.000000000000000000e+00,1.000000000000000000e+00,0.000000000000000000e+00,6.300000000000000000e+01,1.339900000000000000e+04,5.625219345092773438e-01,1.905735969543457031e+00,3.466103090579599200e-01,0.000000000000000000e+00,1.120000000000000000e+02
1.000000000000000000e+00,1.000000000000000000e+00,1.000000000000000000e+00,6.600000000000000000e+01,1.346500000000000000e+04,4.946551322937011719e-01,2.018303155899047852e+00,5.314647923876083535e-01,0.000000000000000000e+00,1.120000000000000000e+02
0.000000000000000000e+00,1.000000000000000000e+00,0.000000000000000000e+00,5.900000000000000000e+01,1.352400000000000000e+04,3.959808349609375000e-01,1.679954051971435547e+00,2.950778971855110289e-01,0.000000000000000000e+00,1.120000000000000000e+02
1.000000000000000000e+00,1.000000000000000000e+00,1.000000000000000000e+00,5.700000000000000000e+01,1.358100000000000000e+04,5.197899341583251953e-01,1.943809986114501953e+00,4.387989148686751717e-01,0.000000000000000000e+00,1.120000000000000000e+02
1.000000000000000000e+00,1.000000000000000000e+00,1.000000000000000000e+00,6.200000000000000000e+01,1.364300000000000000e+04,4.677848815917968750e-01,2.043900966644287109e+00,5.826667127150185754e-01,0.000000000000000000e+00,1.120000000000000000e+02
0.000000000000000000e+00,1.000000000000000000e+00,0.000000000000000000e+00,5.600000000000000000e+01,1.369900000000000000e+04,7.589428424835205078e-01,2.336704969406127930e+00,5.861538751379025136e-01,0.000000000000000000e+00,1.120000000000000000e+02
0.000000000000000000e+00,1.000000000000000000e+00,0.000000000000000000e+00,5.900000000000000000e+01,1.375800000000000000e+04,2.777030467987060547e-01,1.670689821243286133e+00,4.070872694266370329e-01,0.000000000000000000e+00,1.120000000000000000e+02
1.000000000000000000e+00,1.000000000000000000e+00,1.000000000000000000e+00,6.100000000000000000e+01,1.381900000000000000e+04,5.339698791503906250e-01,2.039704799652099609e+00,5.134542743991480362e-01,0.000000000000000000e+00,1.120000000000000000e+02
0.000000000000000000e+00,1.000000000000000000e+00,0.000000000000000000e+00,5.700000000000000000e+01,1.387600000000000000e+04,4.126980304718017578e-01,1.804556846618652344e+00,4.015260952376853432e-01,0.000000000000000000e+00,1.120000000000000000e+02
1.000000000000000000e+00,1.000000000000000000e+00,1.000000000000000000e+00,6.200000000000000000e+01,1.393800000000000000e+04,5.121140480041503906e-01,1.919721126556396484e+00,4.046737935237643136e-01,0.000000000000000000e+00,1.120000000000000000e+02
0.000000000000000000e+00,1.000000000000000000e+00,0.000000000000000000e+00,5.900000000000000000e+01,1.399700000000000000e+04,5.286309719085693359e-01,2.026893138885498047e+00,4.982282084300759251e-01,0.000000000000000000e+00,1.120000000000000000e+02
1.000000000000000000e+00,1.000000000000000000e+00,1.000000000000000000e+00,5.600000000000000000e+01,1.405300000000000000e+04,3.869540691375732422e-01,1.647164821624755859e+00,2.790214878955233346e-01,0.000000000000000000e+00,1.120000000000000000e+02
1.000000000000000000e+00,1.000000000000000000e+00,1.000000000000000000e+00,5.600000000000000000e+01,1.410900000000000000e+04,4.919829368591308594e-01,2.011869907379150391e+00,5.407039053692437314e-01,0.000000000000000000e+00,1.120000000000000000e+02
1.000000000000000000e+00,1.000000000000000000e+00,1.000000000000000000e+00,6.800000000000000000e+01,1.417700000000000000e+04,3.225319385528564453e-01,1.906048059463500977e+00,5.967722788557989766e-01,0.000000000000000000e+00,1.120000000000000000e+02
1.000000000000000000e+00,1.000000000000000000e+00,1.000000000000000000e+00,6.200000000000000000e+01,1.423900000000000000e+04,6.005020141601562500e-01,1.895802974700927734e+00,3.095938451221188492e-01,0.000000000000000000e+00,1.120000000000000000e+02
0.000000000000000000e+00,1.000000000000000000e+00,0.000000000000000000e+00,5.400000000000000000e+01,1.429300000000000000e+04,6.415591239929199219e-01,2.150918960571289062e+00,5.270404450523746842e-01,0.000000000000000000e+00,1.120000000000000000e+02
1.000000000000000000e+00,1.000000000000000000e+00,1.000000000000000000e+00,5.900000000000000000e+01,1.435200000000000000e+04,6.105530261993408203e-01,1.953010082244873047e+00,3.470275492316134969e-01,0.000000000000000000e+00,1.120000000000000000e+02
1.000000000000000000e+00,1.000000000000000000e+00,1.000000000000000000e+00,6.300000000000000000e+01,1.441500000000000000e+04,5.975980758666992188e-01,2.136722087860107422e+00,5.502723315211346389e-01,0.000000000000000000e+00,1.120000000000000000e+02
0.000000000000000000e+00,1.000000000000000000e+00,0.000000000000000000e+00,6.000000000000000000e+01,1.447500000000000000e+04,3.577728271484375000e-01,1.947616815567016602e+00,5.979001136922676984e-01,0.000000000000000000e+00,1.120000000000000000e+02
1.000000000000000000e+00,1.000000000000000000e+00,1.000000000000000000e+00,6.000000000000000000e+01,1.453500000000000000e+04,2.994911670684814453e-01,2.003332138061523438e+00,7.178947518547553752e-01,0.000000000000000000e+00,1.120000000000000000e+02
1.000000000000000000e+00,1.000000000000000000e+00,1.000000000000000000e+00,6.200000000000000000e+01,1.459700000000000000e+04,4.889018535614013672e-01,2.035004138946533203e+00,5.531674521442027093e-01,0.000000000000000000e+00,1.120000000000000000e+02
0.000000000000000000e+00,1.000000000000000000e+00,0.000000000000000000e+00,6.000000000000000000e+01,1.465700000000000000e+04,2.576479911804199219e-01,1.841527938842773438e+00,5.947367897339598253e-01,0.000000000000000000e+00,1.120000000000000000e+02
1.000000000000000000e+00,1.000000000000000000e+00,1.000000000000000000e+00,5.700000000000000000e+01,1.471400000000000000e+04,3.974280357360839844e-01,2.084784030914306641e+00,6.961643103118246856e-01,0.000000000000000000e+00,1.120000000000000000e+02
0.000000000000000000e+00,1.000000000000000000e+00,0.000000000000000000e+00,6.000000000000000000e+01,1.477400000000000000e+04,3.161089420318603516e-01,1.836587905883789062e+00,5.330152782308194004e-01,0.000000000000000000e+00,1.120000000000000000e+02
0.000000000000000000e+00,1.000000000000000000e+00,0.000000000000000000e+00,5.600000000000000000e+01,1.483000000000000000e+04,3.532199859619140625e-01,2.020941019058227539e+00,6.705794453317306392e-01,0.000000000000000000e+00,1.120000000000000000e+02
0.000000000000000000e+00,1.000000000000000000e+00,0.000000000000000000e+00,6.800000000000000000e+01,1.489800000000000000e+04,3.305659294128417969e-01,2.069356203079223633e+00,7.399455586989145406e-01,0.000000000000000000e+00,1.120000000000000000e+02
1.000000000000000000e+00,1.000000000000000000e+00,1.000000000000000000e+00,5.700000000000000000e+01,1.495500000000000000e+04,2.689700126647949219e-01,1.623633861541748047e+00,3.640382238848512975e-01,0.000000000000000000e+00,1.120000000000000000e+02
0.000000000000000000e+00,1.000000000000000000e+00,0.000000000000000000e+00,6.100000000000000000e+01,1.501600000000000000e+04,4.523630142211914062e-01,2.056532144546508789e+00,6.204316006826857688e-01,0.000000000000000000e+00,1.120000000000000000e+02
0.000000000000000000e+00,1.000000000000000000e+00,0.000000000000000000e+00,6.200000000000000000e+01,1.507800000000000000e+04,3.787770271301269531e-01,1.755357027053833008e+00,3.760905875276387422e-01,0.000000000000000000e+00,1.120000000000000000e+02
0.000000000000000000e+00,1.000000000000000000e+00,0.000000000000000000e+00,6.100000000000000000e+01,1.513900000000000000e+04,4.948630332946777344e-01,1.783876895904541016e+00,2.934959475303221543e-01,0.000000000000000000e+00,1.120000000000000000e+02
0.000000000000000000e+00,1.000000000000000000e+00,0.000000000000000000e+00,5.700000000000000000e+01,1.519600000000000000e+04,3.356130123138427734e-01,1.986648082733154297e+00,6.631863620371174495e-01,0.000000000000000000e+00,1.120000000000000000e+02
1.000000000000000000e+00,1.000000000000000000e+00,1.000000000000000000e+00,5.600000000000000000e+01,1.525200000000000000e+04,3.053669929504394531e-01,1.869589090347290039e+00,5.829351281923347283e-01,0.000000000000000000e+00,1.120000000000000000e+02
0.000000000000000000e+00,1.000000000000000000e+00,0.000000000000000000e+00,6.400000000000000000e+01,1.531600000000000000e+04,3.730690479278564453e-01,1.834748029708862305e+00,4.678718720241927254e-01,0.000000000000000000e+00,1.120000000000000000e+02
0.000000000000000000e+00,1.000000000000000000e+00,0.000000000000000000e+00,6.100000000000000000e+01,1.537700000000000000e+04,4.067561626434326172e-01,1.997756958007812500e+00,5.989252389473451732e-01,0.000000000000000000e+00,1.120000000000000000e+02
0.000000000000000000e+00,1.000000000000000000e+00,0.000000000000000000e+00,5.600000000000000000e+01,1.543300000000000000e+04,3.238139152526855469e-01,2.007657051086425781e+00,6.899017927075266066e-01,0.000000000000000000e+00,1.120000000000000000e+02
0.000000000000000000e+00,1.000000000000000000e+00,0.000000000000000000e+00,5.900000000000000000e+01,1.549200000000000000e+04,2.868938446044921875e-01,1.881363868713378906e+00,6.047703600461559192e-01,0.000000000000000000e+00,1.120000000000000000e+02
1.000000000000000000e+00,1.000000000000000000e+00,1.000000000000000000e+00,6.400000000000000000e+01,1.555600000000000000e+04,3.386850357055664062e-01,1.600488901138305664e+00,2.723719942756686052e-01,0.000000000000000000e+00,1.120000000000000000e+02
1.000000000000000000e+00,1.000000000000000000e+00,1.000000000000000000e+00,6.000000000000000000e+01,1.561600000000000000e+04,5.377159118652343750e-01,2.258733034133911133e+00,7.307176436983982004e-01,0.000000000000000000e+00,1.120000000000000000e+02
0.000000000000000000e+00,1.000000000000000000e+00,0.000000000000000000e+00,6.600000000000000000e+01,1.568200000000000000e+04,2.837629318237304688e-01,1.645457029342651367e+00,3.766068602370485352e-01,0.000000000000000000e+00,1.120000000000000000e+02
1.000000000000000000e+00,1.000000000000000000e+00,1.000000000000000000e+00,6.300000000000000000e+01,1.574500000000000000e+04,4.218189716339111328e-01,2.119560003280639648e+00,7.125837892447829391e-01,0.000000000000000000e+00,1.120000000000000000e+02
0.000000000000000000e+00,0.000000000000000000e+00,1.000000000000000000e+00,4.000000000000000000e+01,1.578500000000000000e+04,2.141678333282470703e-01,1.469980001449584961e+00,2.664025077427976118e-01,0.000000000000000000e+00,1.120000000000000000e+02
1.000000000000000000e+00,1.000000000000000000e+00,1.000000000000000000e+00,5.600000000000000000e+01,1.584100000000000000e+04,4.789650440216064453e-01,2.116186857223510742e+00,6.323344892440296849e-01,0.000000000000000000e+00,1.120000000000000000e+02
1.000000000000000000e+00,1.000000000000000000e+00,1.000000000000000000e+00,5.700000000000000000e+01,1.589800000000000000e+04,3.573331832885742188e-01,1.972105026245117188e+00,6.211926871244812798e-01,0.000000000000000000e+00,1.120000000000000000e+02
1.000000000000000000e+00,1.000000000000000000e+00,1.000000000000000000e+00,5.700000000000000000e+01,1.595500000000000000e+04,3.717379570007324219e-01,1.679790973663330078e+00,3.180220157385861834e-01,0.000000000000000000e+00,1.120000000000000000e+02
0.000000000000000000e+00,1.000000000000000000e+00,0.000000000000000000e+00,6.500000000000000000e+01,1.602000000000000000e+04,4.875159263610839844e-01,2.192469120025634766e+00,7.101805028951428955e-01,0.000000000000000000e+00,1.120000000000000000e+02
0.000000000000000000e+00,1.000000000000000000e+00,0.000000000000000000e+00,6.700000000000000000e+01,1.608700000000000000e+04,3.552770614624023438e-01,1.658050060272216797e+00,3.187368643863161544e-01,0.000000000000000000e+00,1.120000000000000000e+02
0.000000000000000000e+00,1.000000000000000000e+00,0.000000000000000000e+00,6.000000000000000000e+01,1.614700000000000000e+04,4.736580848693847656e-01,2.078934907913208008e+00,6.141294184278776047e-01,0.000000000000000000e+00,1.120000000000000000e+02
0.000000000000000000e+00,1.000000000000000000e+00,0.000000000000000000e+00,6.100000000000000000e+01,1.620800000000000000e+04,3.310248851776123047e-01,1.824107170104980469e+00,5.051367435191731481e-01,0.000000000000000000e+00,1.120000000000000000e+02
1.000000000000000000e+00,1.000000000000000000e+00,1.000000000000000000e+00,6.100000000000000000e+01,1.626900000000000000e+04,4.358241558074951172e-01,2.042292833328247070e+00,6.140817094472006410e-01,0.000000000000000000e+00,1.120000000000000000e+02
1.000000000000000000e+00,1.000000000000000000e+00,1.000000000000000000e+00,5.600000000000000000e+01,1.632500000000000000e+04,3.526298999786376953e-01,1.883046865463256836e+00,5.472730559171898879e-01,0.000000000000000000e+00,1.120000000000000000e+02
1.000000000000000000e+00,1.000000000000000000e+00,1.000000000000000000e+00,6.000000000000000000e+01,1.638500000000000000e+04,3.233239650726318359e-01,1.744120121002197266e+00,4.415876340726637150e-01,0.000000000000000000e+00,1.120000000000000000e+02
1.000000000000000000e+00,1.000000000000000000e+00,1.000000000000000000e+00,5.600000000000000000e+01,1.644100000000000000e+04,3.933591842651367188e-01,1.692019939422607422e+00,3.171445607157550306e-01,0.000000000000000000e+00,1.120000000000000000e+02
0.000000000000000000e+00,1.000000000000000000e+00,0.000000000000000000e+00,6.400000000000000000e+01,1.650500000000000000e+04,5.514209270477294922e-01,2.083855152130126953e+00,5.341372013082029691e-01,0.000000000000000000e+00,1.120000000000000000e+02
1.000000000000000000e+00,1.000000000000000000e+00,1.000000000000000000e+00,5.700000000000000000e+01,1.656200000000000000e+04,3.361790180206298828e-01,1.765060901641845703e+00,4.327775986657004248e-01,0.000000000000000000e+00,1.120000000000000000e+02
0.000000000000000000e+00,1.000000000000000000e+00,0.000000000000000000e+00,6.000000000000000000e+01,1.662200000000000000e+04,3.685359954833984375e-01,1.879626035690307617e+00,5.123616121159428882e-01,0.000000000000000000e+00,1.120000000000000000e+02
0.000000000000000000e+00,1.000000000000000000e+00,0.000000000000000000e+00,5.500000000000000000e+01,1.667700000000000000e+04,3.778939247131347656e-01,1.698963165283203125e+00,3.282677901045779612e-01,0.000000000000000000e+00,1.120000000000000000e+02
1.000000000000000000e+00,1.000000000000000000e+00,1.000000000000000000e+00,6.100000000000000000e+01,1.673800000000000000e+04,4.489490985870361328e-01,2.150831937789916992e+00,7.121321213115036075e-01,0.000000000000000000e+00,1.120000000000000000e+02
1.000000000000000000e+00,1.000000000000000000e+00,1.000000000000000000e+00,5.900000000000000000e+01,1.679700000000000000e+04,3.449969291687011719e-01,2.043342113494873047e+00,7.055661590388581095e-01,0.000000000000000000e+00,1.120000000000000000e+02
1.000000000000000000e+00,1.000000000000000000e+00,1.000000000000000000e+00,5.900000000000000000e+01,1.685600000000000000e+04,3.729870319366455078e-01,1.748121976852416992e+00,3.874426201669664560e-01,0.000000000000000000e+00,1.120000000000000000e+02
0.000000000000000000e+00,1.000000000000000000e+00,0.000000000000000000e+00,5.500000000000000000e+01,1.691100000000000000e+04,3.891260623931884766e-01,1.895607948303222656e+00,5.163180446390251976e-01,0.000000000000000000e+00,1.120000000000000000e+02
0.000000000000000000e+00,1.000000000000000000e+00,0.000000000000000000e+00,5.600000000000000000e+01,1.696700000000000000e+04,4.821159839630126953e-01,2.037081003189086914e+00,5.534722000967067235e-01,0.000000000000000000e+00,1.120000000000000000e+02
0.000000000000000000e+00,1.000000000000000000e+00,0.000000000000000000e+00,5.600000000000000000e+01,1.702300000000000000e+04,3.239820003509521484e-01,1.711044788360595703e+00,3.980803434218939119e-01,0.000000000000000000e+00,1.120000000000000000e+02
0.000000000000000000e+00,1.000000000000000000e+00,0.000000000000000000e+00,6.000000000000000000e+01,1.708300000000000000e+04,4.889810085296630859e-01,2.033445119857788086e+00,5.647687977213748933e-01,0.000000000000000000e+00,1.120000000000000000e+02
1.000000000000000000e+00,1.000000000000000000e+00,1.000000000000000000e+00,5.900000000000000000e+01,1.714200000000000000e+04,3.337709903717041016e-01,1.749407052993774414e+00,4.310826291882547956e-01,0.000000000000000000e+00,1.120000000000000000e+02
0.000000000000000000e+00,1.000000000000000000e+00,0.000000000000000000e+00,5.600000000000000000e+01,1.719800000000000000e+04,5.598008632659912109e-01,1.859575033187866211e+00,3.241876688693170472e-01,0.000000000000000000e+00,1.120000000000000000e+02
0.000000000000000000e+00,1.000000000000000000e+00,0.000000000000000000e+00,6.600000000000000000e+01,1.726400000000000000e+04,5.292279720306396484e-01,2.012441158294677734e+00,4.864934858854971234e-01,0.000000000000000000e+00,1.120000000000000000e+02
1.000000000000000000e+00,1.000000000000000000e+00,1.000000000000000000e+00,6.100000000000000000e+01,1.732500000000000000e+04,5.825970172882080078e-01,2.081418991088867188e+00,5.013543070567951787e-01,0.000000000000000000e+00,1.120000000000000000e+02
0.000000000000000000e+00,1.000000000000000000e+00,0.000000000000000000e+00,6.600000000000000000e+01,1.739100000000000000e+04,4.663658142089843750e-01,1.929792881011962891e+00,4.646070996047397816e-01,0.000000000000000000e+00,1.120000000000000000e+02
1.000000000000000000e+00,1.000000000000000000e+00,1.000000000000000000e+00,6.000000000000000000e+01,1.745100000000000000e+04,4.077401161193847656e-01,1.929585933685302734e+00,5.441964919458411876e-01,0.000000000000000000e+00,1.120000000000000000e+02
0.000000000000000000e+00,1.000000000000000000e+00,0.000000000000000000e+00,5.700000000000000000e+01,1.750800000000000000e+04,4.514999389648437500e-01,1.921595811843872070e+00,4.826177286562104984e-01,0.000000000000000000e+00,1.120000000000000000e+02
1.000000000000000000e+00,1.000000000000000000e+00,1.000000000000000000e+00,6.000000000000000000e+01,1.756800000000000000e+04,5.402071475982666016e-01,2.025473117828369141e+00,4.915232339858952582e-01,0.000000000000000000e+00,1.120000000000000000e+02
1.000000000000000000e+00,1.000000000000000000e+00,1.000000000000000000e+00,5.500000000000000000e+01,1.762300000000000000e+04,5.015859603881835938e-01,2.232522010803222656e+00,7.405049423028280398e-01,0.000000000000000000e+00,1.120000000000000000e+02
1.000000000000000000e+00,1.000000000000000000e+00,1.000000000000000000e+00,5.700000000000000000e+01,1.768000000000000000e+04,4.983720779418945312e-01,1.953623056411743164e+00,4.612042634536949182e-01,0.000000000000000000e+00,1.120000000000000000e+02
0.000000000000000000e+00,1.000000000000000000e+00,0.000000000000000000e+00,5.600000000000000000e+01,1.773600000000000000e+04,4.134068489074707031e-01,2.140698909759521484e+00,7.350488353193707081e-01,0.000000000000000000e+00,1.120000000000000000e+02
1.000000000000000000e+00,1.000000000000000000e+00,1.000000000000000000e+00,6.200000000000000000e+01,1.779800000000000000e+04,3.824839591979980469e-01,2.058232069015502930e+00,6.767544800799616400e-01,0.000000000000000000e+00,1.120000000000000000e+02
0.000000000000000000e+00,1.000000000000000000e+00,0.000000000000000000e+00,5.700000000000000000e+01,1.785500000000000000e+04,3.556008338928222656e-01,1.914497852325439453e+00,5.748012819672940754e-01,0.000000000000000000e+00,1.120000000000000000e+02
1.000000000000000000e+00,1.000000000000000000e+00,1.000000000000000000e+00,5.700000000000000000e+01,1.791200000000000000e+04,3.959910869598388672e-01,1.788243055343627930e+00,3.966080890927122238e-01,0.000000000000000000e+00,1.120000000000000000e+02
1.000000000000000000e+00,1.000000000000000000e+00,1.000000000000000000e+00,6.200000000000000000e+01,1.797400000000000000e+04,5.237171649932861328e-01,2.155167102813720703e+00,6.516083327890409560e-01,0.000000000000000000e+00,1.120000000000000000e+02
1.000000000000000000e+00,1.000000000000000000e+00,1.000000000000000000e+00,6.400000000000000000e+01,1.803800000000000000e+04,4.291219711303710938e-01,1.891909122467041016e+00,4.604697430230250688e-01,0.000000000000000000e+00,1.120000000000000000e+02
1.000000000000000000e+00,1.000000000000000000e+00,1.000000000000000000e+00,6.100000000000000000e+01,1.809900000000000000e+04,5.988841056823730469e-01,2.229511976242065430e+00,6.399137218278623251e-01,0.000000000000000000e+00,1.120000000000000000e+02
0.000000000000000000e+00,1.000000000000000000e+00,0.000000000000000000e+00,5.600000000000000000e+01,1.815500000000000000e+04,3.295638561248779297e-01,1.956584930419921875e+00,6.299072063459086879e-01,0.000000000000000000e+00,1.120000000000000000e+02
1.000000000000000000e+00,1.000000000000000000e+00,1.000000000000000000e+00,6.300000000000000000e+01,1.821800000000000000e+04,3.746640682220458984e-01,2.061018943786621094e+00,7.076241558272430288e-01,0.000000000000000000e+00,1.120000000000000000e+02
1.000000000000000000e+00,1.000000000000000000e+00,1.000000000000000000e+00,6.200000000000000000e+01,1.828000000000000000e+04,3.210141658782958984e-01,1.690294027328491211e+00,3.816654041737150838e-01,0.000000000000000000e+00,1.120000000000000000e+02
0.000000000000000000e+00,1.000000000000000000e+00,0.000000000000000000e+00,6.300000000000000000e+01,1.834300000000000000e+04,4.938740730285644531e-01,1.987668991088867188e+00,5.026556202995577927e-01,0.000000000000000000e+00,1.120000000000000000e+02
1.000000000000000000e+00,1.000000000000000000e+00,1.000000000000000000e+00,5.600000000000000000e+01,1.839900000000000000e+04,3.038401603698730469e-01,2.041625022888183594e+00,7.441010260941107735e-01,0.000000000000000000e+00,1.120000000000000000e+02
0.000000000000000000e+00,1.000000000000000000e+00,0.000000000000000000e+00,5.300000000000000000e+01,1.845200000000000000e+04,2.715778350830078125e-01,1.663684844970703125e+00,4.081874228875988497e-01,0.000000000000000000e+00,1.120000000000000000e+02
1.000000000000000000e+00,1.000000000000000000e+00,1.000000000000000000e+00,5.600000000000000000e+01,1.850800000000000000e+04,4.720110893249511719e-01,1.712172985076904297e+00,2.539568589023180611e-01,0.000000000000000000e+00,1.120000000000000000e+02
0.000000000000000000e+00,1.000000000000000000e+00,0.000000000000000000e+00,5.700000000000000000e+01,1.856500000000000000e+04,4.934120178222656250e-01,2.130921840667724609e+00,6.345871649839391893e-01,0.000000000000000000e+00,1.120000000000000000e+02
0.000000000000000000e+00,1.000000000000000000e+00,0.000000000000000000e+00,6.600000000000000000e+01,1.863100000000000000e+04,3.222320079803466797e-01,1.738817214965820312e+00,4.236905576057564682e-01,0.000000000000000000e+00,1.120000000000000000e+02
0.000000000000000000e+00,1.000000000000000000e+00,0.000000000000000000e+00,6.500000000000000000e+01,1.869600000000000000e+04,4.218618869781494141e-01,1.950886964797973633e+00,5.412253936741933114e-01,0.000000000000000000e+00,1.120000000000000000e+02
1.000000000000000000e+00,1.000000000000000000e+00,1.000000000000000000e+00,6.100000000000000000e+01,1.875700000000000000e+04,3.499548435211181641e-01,1.745048999786376953e+00,4.031641634096149174e-01,0.000000000000000000e+00,1.120000000000000000e+02
0.000000000000000000e+00,1.000000000000000000e+00,0.000000000000000000e+00,6.000000000000000000e+01,1.881700000000000000e+04,5.159990787506103516e-01,2.007243871688842773e+00,4.937314277866663437e-01,0.000000000000000000e+00,1.120000000000000000e+02
0.000000000000000000e+00,1.000000000000000000e+00,0.000000000000000000e+00,6.000000000000000000e+01,1.887700000000000000e+04,3.720488548278808594e-01,1.754810810089111328e+00,3.987053210565941752e-01,0.000000000000000000e+00,1.120000000000000000e+02
0.000000000000000000e+00,1.000000000000000000e+00,0.000000000000000000e+00,6.800000000000000000e+01,1.894500000000000000e+04,5.211429595947265625e-01,2.222930192947387695e+00,7.214129287485250286e-01,0.000000000000000000e+00,1.120000000000000000e+02
0.000000000000000000e+00,1.000000000000000000e+00,0.000000000000000000e+00,5.900000000000000000e+01,1.900400000000000000e+04,4.428379535675048828e-01,2.061890840530395508e+00,6.334759060912755757e-01,0.000000000000000000e+00,1.120000000000000000e+02
1.000000000000000000e+00,1.000000000000000000e+00,1.000000000000000000e+00,6.200000000000000000e+01,1.906600000000000000e+04,6.222410202026367188e-01,2.289718151092529297e+00,6.732722538838227244e-01,0.000000000000000000e+00,1.120000000000000000e+02
1.000000000000000000e+00,1.000000000000000000e+00,1.000000000000000000e+00,6.300000000000000000e+01,1.912900000000000000e+04,4.460401535034179688e-01,1.889998912811279297e+00,4.468883565423333870e-01,0.000000000000000000e+00,1.120000000000000000e+02
0.000000000000000000e+00,1.000000000000000000e+00,0.000000000000000000e+00,5.700000000000000000e+01,1.918600000000000000e+04,6.047739982604980469e-01,1.840338945388793945e+00,2.542019221350328984e-01,0.000000000000000000e+00,1.120000000000000000e+02
0.000000000000000000e+00,0.000000000000000000e+00,1.000000000000000000e+00,3.900000000000000000e+01,1.922500000000000000e+04,5.338110923767089844e-01,2.025969028472900391e+00,4.966918650118189449e-01,1.000000000000000000e+00,1.110000000000000000e+02
0.000000000000000000e+00,1.000000000000000000e+00,0.000000000000000000e+00,5.600000000000000000e+01,1.928100000000000000e+04,3.453040122985839844e-01,1.639415025711059570e+00,3.030472150737084647e-01,0.000000000000000000e+00,1.110000000000000000e+02
1.000000000000000000e+00,1.000000000000000000e+00,1.000000000000000000e+00,6.200000000000000000e+01,1.934300000000000000e+04,5.192470550537109375e-01,2.151757001876831055e+00,6.378519349161460017e-01,0.000000000000000000e+00,1.110000000000000000e+02
1.000000000000000000e+00,1.000000000000000000e+00,1.000000000000000000e+00,6.100000000000000000e+01,1.940400000000000000e+04,4.513330459594726562e-01,1.911409139633178711e+00,4.661708244143530355e-01,0.000000000000000000e+00,1.110000000000000000e+02
1.000000000000000000e+00,1.000000000000000000e+00,1.000000000000000000e+00,5.600000000000000000e+01,1.946000000000000000e+04,3.587369918823242188e-01,1.875601053237915039e+00,5.251981643577607883e-01,0.000000000000000000e+00,1.110000000000000000e+02
0.000000000000000000e+00,1.000000000000000000e+00,0.000000000000000000e+00,6.000000000000000000e+01,1.952000000000000000e+04,3.701400756835937500e-01,2.010834932327270508e+00,6.526174692051005533e-01,0.000000000000000000e+00,1.110000000000000000e+02
0.000000000000000000e+00,1.000000000000000000e+00,0.000000000000000000e+00,6.100000000000000000e+01,1.958100000000000000e+04,5.325500965118408203e-01,2.200500965118408203e+00,6.698034434265041082e-01,0.000000000000000000e+00,1.110000000000000000e+02
1.000000000000000000e+00,1.000000000000000000e+00,1.000000000000000000e+00,5.600000000000000000e+01,1.963700000000000000e+04,6.336641311645507812e-01,2.248896121978759766e+00,6.189260664763893693e-01,0.000000000000000000e+00,1.110000000000000000e+02
0.000000000000000000e+00,1.000000000000000000e+00,0.000000000000000000e+00,5.600000000000000000e+01,1.969300000000000000e+04,3.396930694580078125e-01,2.021243095397949219e+00,6.901874304196484733e-01,0.000000000000000000e+00,1.110000000000000000e+02
0.000000000000000000e+00,1.000000000000000000e+00,0.000000000000000000e+00,5.700000000000000000e+01,1.975000000000000000e+04,3.621850013732910156e-01,2.037961959838867188e+00,6.782438427784193147e-01,0.000000000000000000e+00,1.110000000000000000e+02
1.000000000000000000e+00,1.000000000000000000e+00,1.000000000000000000e+00,6.300000000000000000e+01,1.981300000000000000e+04,3.508069515228271484e-01,1.717925071716308594e+00,3.799074185625509470e-01,0.000000000000000000e+00,1.110000000000000000e+02
1.000000000000000000e+00,1.000000000000000000e+00,1.000000000000000000e+00,5.900000000000000000e+01,1.987200000000000000e+04,5.682199001312255859e-01,1.825508832931518555e+00,2.722869040786662365e-01,0.000000000000000000e+00,1.110000000000000000e+02
0.000000000000000000e+00,1.000000000000000000e+00,0.000000000000000000e+00,5.700000000000000000e+01,1.992900000000000000e+04,6.960921287536621094e-01,2.298454046249389648e+00,6.038016889841076873e-01,0.000000000000000000e+00,1.110000000000000000e+02
0.000000000000000000e+00,1.000000000000000000e+00,0.000000000000000000e+00,6.100000000000000000e+01,1.999000000000000000e+04,4.420161247253417969e-01,2.074800014495849609e+00,6.453333292371385976e-01,0.000000000000000000e+00,1.110000000000000000e+02
0.000000000000000000e+00,1.000000000000000000e+00,0.000000000000000000e+00,6.000000000000000000e+01,2.005000000000000000e+04,3.234391212463378906e-01,2.046348094940185547e+00,7.416704682570697260e-01,0.000000000000000000e+00,1.110000000000000000e+02
1.000000000000000000e+00,1.000000000000000000e+00,1.000000000000000000e+00,6.600000000000000000e+01,2.011600000000000000e+04,4.395589828491210938e-01,1.831526041030883789e+00,4.069805860315238721e-01,0.000000000000000000e+00,1.110000000000000000e+02
0.000000000000000000e+00,1.000000000000000000e+00,0.000000000000000000e+00,6.000000000000000000e+01,2.017600000000000000e+04,6.642689704895019531e-01,2.367943048477172852e+00,7.080259573592981859e-01,0.000000000000000000e+00,1.110000000000000000e+02
0.000000000000000000e+00,1.000000000000000000e+00,0.000000000000000000e+00,6.400000000000000000e+01,2.024000000000000000e+04,6.286680698394775391e-01,2.244817972183227539e+00,6.197042728335182549e-01,0.000000000000000000e+00,1.110000000000000000e+02
1.000000000000000000e+00,1.000000000000000000e+00,1.000000000000000000e+00,5.900000000000000000e+01,2.029900000000000000e+04,3.669300079345703125e-01,1.941118001937866211e+00,5.776192987193864425e-01,0.000000000000000000e+00,1.110000000000000000e+02
1.000000000000000000e+00,1.000000000000000000e+00,1.000000000000000000e+00,5.700000000000000000e+01,2.035600000000000000e+04,3.855941295623779297e-01,1.777213096618652344e+00,4.051010823507904535e-01,0.000000000000000000e+00,1.110000000000000000e+02
0.000000000000000000e+00,1.000000000000000000e+00,0.000000000000000000e+00,6.000000000000000000e+01,2.041600000000000000e+04,3.782110214233398438e-01,2.062673091888427734e+00,6.842581037683665990e-01,0.000000000000000000e+00,1.110000000000000000e+02
0.000000000000000000e+00,1.000000000000000000e+00,0.000000000000000000e+00,5.500000000000000000e+01,2.047100000000000000e+04,3.236160278320312500e-01,1.670910835266113281e+00,3.555572544918311761e-01,0.000000000000000000e+00,1.110000000000000000e+02
1.000000000000000000e+00,1.000000000000000000e+00,1.000000000000000000e+00,6.100000000000000000e+01,2.053200000000000000e+04,4.799950122833251953e-01,2.117706060409545898e+00,6.397540101668359735e-01,0.000000000000000000e+00,1.110000000000000000e+02
1.000000000000000000e+00,1.000000000000000000e+00,1.000000000000000000e+00,6.200000000000000000e+01,2.059400000000000000e+04,5.493969917297363281e-01,1.863858938217163086e+00,3.206749099253962676e-01,0.000000000000000000e+00,1.110000000000000000e+02
1.000000000000000000e+00,1.000000000000000000e+00,1.000000000000000000e+00,6.400000000000000000e+01,2.065800000000000000e+04,7.398149967193603516e-01,2.309013128280639648e+00,5.795367314802466474e-01,0.000000000000000000e+00,1.110000000000000000e+02
1.000000000000000000e+00,1.000000000000000000e+00,1.000000000000000000e+00,5.900000000000000000e+01,2.071700000000000000e+04,4.499208927154541016e-01,2.123128890991210938e+00,6.859883291705459740e-01,0.000000000000000000e+00,1.110000000000000000e+02
0.000000000000000000e+00,1.000000000000000000e+00,0.000000000000000000e+00,6.400000000000000000e+01,2.078100000000000000e+04,5.586378574371337891e-01,2.126527786254882812e+00,5.793727307104934443e-01,0.000000000000000000e+00,1.110000000000000000e+02
1.000000000000000000e+00,1.000000000000000000e+00,1.000000000000000000e+00,5.900000000000000000e+01,2.084000000000000000e+04,3.710181713104248047e-01,1.886989831924438477e+00,5.331951600546029901e-01,0.000000000000000000e+00,1.110000000000000000e+02
0.000000000000000000e+00,1.000000000000000000e+00,0.000000000000000000e+00,6.000000000000000000e+01,2.090000000000000000e+04,5.571038722991943359e-01,2.185616970062255859e+00,6.354098895857773766e-01,0.000000000000000000e+00,1.110000000000000000e+02
1.000000000000000000e+00,1.000000000000000000e+00,1.000000000000000000e+00,6.000000000000000000e+01,2.096000000000000000e+04,4.488399028778076172e-01,1.917799949645996094e+00,4.701601201296337629e-01,0.000000000000000000e+00,1.110000000000000000e+02
1.000000000000000000e+00,1.000000000000000000e+00,1.000000000000000000e+00,6.100000000000000000e+01,2.102100000000000000e+04,6.482710838317871094e-01,2.311321973800659180e+00,6.646893474826909287e-01,0.000000000000000000e+00,1.110000000000000000e+02
0.000000000000000000e+00,1.000000000000000000e+00,0.000000000000000000e+00,6.200000000000000000e+01,2.108300000000000000e+04,4.193348884582519531e-01,1.769275188446044922e+00,3.677417230442075469e-01,0.000000000000000000e+00,1.110000000000000000e+02
0.000000000000000000e+00,1.000000000000000000e+00,0.000000000000000000e+00,5.900000000000000000e+01,2.114200000000000000e+04,4.180750846862792969e-01,1.723473787307739258e+00,3.080076313828729595e-01,0.000000000000000000e+00,1.110000000000000000e+02
0.000000000000000000e+00,1.000000000000000000e+00,0.000000000000000000e+00,6.100000000000000000e+01,2.120300000000000000e+04,5.874319076538085938e-01,1.899494886398315430e+00,3.242321084913433182e-01,0.000000000000000000e+00,1.110000000000000000e+02
0.000000000000000000e+00,1.000000000000000000e+00,0.000000000000000000e+00,5.600000000000000000e+01,2.125900000000000000e+04,4.726150035858154297e-01,2.151847124099731445e+00,6.924565238440814063e-01,0.000000000000000000e+00,1.110000000000000000e+02
1.000000000000000000e+00,1.000000000000000000e+00,1.000000000000000000e+00,6.400000000000000000e+01,2.132300000000000000e+04,3.385930061340332031e-01,1.661974906921386719e+00,3.382122854866753126e-01,0.000000000000000000e+00,1.110000000000000000e+02
0.000000000000000000e+00,1.000000000000000000e+00,0.000000000000000000e+00,6.400000000000000000e+01,2.138700000000000000e+04,4.269900321960449219e-01,1.786298990249633789e+00,3.745455803208118106e-01,0.000000000000000000e+00,1.110000000000000000e+02
0.000000000000000000e+00,1.000000000000000000e+00,0.000000000000000000e+00,5.500000000000000000e+01,2.144200000000000000e+04,4.527299404144287109e-01,2.113765001296997070e+00,6.714341189114050312e-01,0.000000000000000000e+00,1.110000000000000000e+02
1.000000000000000000e+00,1.000000000000000000e+00,1.000000000000000000e+00,6.000000000000000000e+01,2.150200000000000000e+04,3.543450832366943359e-01,2.092965841293334961e+00,7.477475702821769765e-01,0.000000000000000000e+00,1.110000000000000000e+02
1.000000000000000000e+00,1.000000000000000000e+00,1.000000000000000000e+00,5.700000000000000000e+01,2.155900000000000000e+04,3.999929428100585938e-01,1.955032110214233398e+00,5.697091770142654887e-01,0.000000000000000000e+00,1.110000000000000000e+02
0.000000000000000000e+00,1.000000000000000000e+00,0.000000000000000000e+00,6.200000000000000000e+01,2.162100000000000000e+04,6.002550125122070312e-01,2.180288076400756836e+00,5.834108190206477307e-01,0.000000000000000000e+00,1.110000000000000000e+02
0.000000000000000000e+00,1.000000000000000000e+00,0.000000000000000000e+00,6.300000000000000000e+01,2.168400000000000000e+04,3.360128402709960938e-01,2.020971059799194336e+00,6.877179313814981709e-01,0.000000000000000000e+00,1.110000000000000000e+02
1.000000000000000000e+00,1.000000000000000000e+00,1.000000000000000000e+00,5.700000000000000000e+01,2.174100000000000000e+04,3.214437961578369141e-01,1.819056034088134766e+00,5.070284608706758789e-01,0.000000000000000000e+00,1.110000000000000000e+02
1.000000000000000000e+00,1.000000000000000000e+00,1.000000000000000000e+00,6.300000000000000000e+01,2.180400000000000000e+04,7.068729400634765625e-01,2.431554079055786133e+00,7.384719766451952605e-01,0.000000000000000000e+00,1.110000000000000000e+02
0.000000000000000000e+00,1.000000000000000000e+00,0.000000000000000000e+00,5.900000000000000000e+01,2.186300000000000000e+04,3.485610485076904297e-01,2.030410051345825195e+00,6.856822671080460285e-01,0.000000000000000000e+00,1.110000000000000000e+02
1.000000000000000000e+00,1.000000000000000000e+00,1.000000000000000000e+00,6.200000000000000000e+01,2.192500000000000000e+04,3.922920227050781250e-01,1.938795804977416992e+00,5.580319228793697572e-01,0.000000000000000000e+00,1.110000000000000000e+02
0.000000000000000000e+00,1.000000000000000000e+00,0.000000000000000000e+00,5.600000000000000000e+01,2.198100000000000000e+04,3.161189556121826172e-01,1.903941869735717773e+00,5.953344645823545056e-01,0.000000000000000000e+00,1.110000000000000000e+02
1.000000000000000000e+00,1.000000000000000000e+00,1.000000000000000000e+00,5.900000000000000000e+01,2.204000000000000000e+04,3.040919303894042969e-01,1.568367004394531250e+00,2.807815901467547448e-01,0.000000000000000000e+00,1.110000000000000000e+02
0.000000000000000000e+00,1.000000000000000000e+00,0.000000000000000000e+00,6.600000000000000000e+01,2.210600000000000000e+04,6.954839229583740234e-01,2.416507005691528320e+00,7.302235448434833964e-01,0.000000000000000000e+00,1.110000000000000000e+02
1.000000000000000000e+00,1.000000000000000000e+00,1.000000000000000000e+00,5.700000000000000000e+01,2.216300000000000000e+04,3.309412002563476562e-01,1.914521932601928711e+00,5.950192997804654160e-01,0.000000000000000000e+00,1.110000000000000000e+02
1.000000000000000000e+00,1.000000000000000000e+00,1.000000000000000000e+00,6.200000000000000000e+01,2.222500000000000000e+04,4.643380641937255859e-01,1.779513120651245117e+00,3.248959974433577869e-01,0.000000000000000000e+00,1.110000000000000000e+02
0.000000000000000000e+00,1.000000000000000000e+00,0.000000000000000000e+00,6.100000000000000000e+01,2.228600000000000000e+04,4.630160331726074219e-01,2.056478023529052734e+00,5.978496555913221933e-01,0.000000000000000000e+00,1.110000000000000000e+02
1.000000000000000000e+00,1.000000000000000000e+00,1.000000000000000000e+00,6.300000000000000000e+01,2.234900000000000000e+04,3.570961952209472656e-01,1.646672010421752930e+00,3.115598034862241406e-01,0.000000000000000000e+00,1.110000000000000000e+02
0.000000000000000000e+00,1.000000000000000000e+00,0.000000000000000000e+00,6.200000000000000000e+01,2.241100000000000000e+04,4.071879386901855469e-01,1.755291938781738281e+00,3.668789735114026396e-01,0.000000000000000000e+00,1.110000000000000000e+02
1.000000000000000000e+00,1.000000000000000000e+00,1.000000000000000000e+00,5.500000000000000000e+01,2.246600000000000000e+04,3.835759162902832031e-01,1.723912954330444336e+00,3.409116216225329676e-01,0.000000000000000000e+00,1.110000000000000000e+02
0.000000000000000000e+00,1.000000000000000000e+00,0.000000000000000000e+00,6.200000000000000000e+01,2.252800000000000000e+04,3.629610538482666016e-01,1.903730154037475586e+00,5.445009879393518659e-01,0.000000000000000000e+00,1.110000000000000000e+02
0.000000000000000000e+00,1.000000000000000000e+00,0.000000000000000000e+00,6.300000000000000000e+01,2.259100000000000000e+04,3.160290718078613281e-01,1.843245029449462891e+00,5.378414202576750069e-01,0.000000000000000000e+00,1.110000000000000000e+02
1.000000000000000000e+00,1.000000000000000000e+00,1.000000000000000000e+00,6.600000000000000000e+01,2.265700000000000000e+04,3.561019897460937500e-01,1.877703905105590820e+00,5.323005912567714271e-01,0.000000000000000000e+00,1.110000000000000000e+02
1.000000000000000000e+00,0.000000000000000000e+00,0.000000000000000000e+00,4.200000000000000000e+01,2.269900000000000000e+04,5.568969249725341797e-01,2.286634922027587891e+00,7.354819372033218894e-01,0.000000000000000000e+00,1.110000000000000000e+02
1.000000000000000000e+00,1.000000000000000000e+00,1.000000000000000000e+00,6.100000000000000000e+01,2.276000000000000000e+04,3.365659713745117188e-01,1.607986927032470703e+00,2.773379951708625502e-01,0.000000000000000000e+00,1.110000000000000000e+02
0.000000000000000000e+00,1.000000000000000000e+00,0.000000000000000000e+00,6.000000000000000000e+01,2.282000000000000000e+04,4.655878543853759766e-01,2.149106979370117188e+00,6.927587516855103766e-01,0.000000000000000000e+00,1.110000000000000000e+02
1.000000000000000000e+00,1.000000000000000000e+00,1.000000000000000000e+00,6.000000000000000000e+01,2.288000000000000000e+04,3.296740055084228516e-01,1.948230028152465820e+00,6.245154882669644580e-01,0.000000000000000000e+00,1.110000000000000000e+02
1.000000000000000000e+00,1.000000000000000000e+00,1.000000000000000000e+00,6.400000000000000000e+01,2.294400000000000000e+04,4.437420368194580078e-01,1.728394985198974609e+00,2.866681996841576319e-01,0.000000000000000000e+00,1.110000000000000000e+02
0.000000000000000000e+00,1.000000000000000000e+00,0.000000000000000000e+00,5.600000000000000000e+01,2.300000000000000000e+04,5.014719963073730469e-01,2.086035013198852539e+00,5.891037211528356021e-01,0.000000000000000000e+00,1.110000000000000000e+02
0.000000000000000000e+00,1.000000000000000000e+00,0.000000000000000000e+00,6.100000000000000000e+01,2.306100000000000000e+04,3.342211246490478516e-01,1.950860023498535156e+00,6.233685822819401423e-01,0.000000000000000000e+00,1.110000000000000000e+02
0.000000000000000000e+00,1.000000000000000000e+00,0.000000000000000000e+00,6.600000000000000000e+01,2.312700000000000000e+04,3.153140544891357422e-01,2.056768894195556641e+00,7.467497992555756081e-01,0.000000000000000000e+00,1.110000000000000000e+02
0.000000000000000000e+00,1.000000000000000000e+00,0.000000000000000000e+00,6.200000000000000000e+01,2.318900000000000000e+04,3.002791404724121094e-01,1.938351869583129883e+00,6.519951542740161088e-01,0.000000000000000000e+00,1.110000000000000000e+02
0.000000000000000000e+00,1.000000000000000000e+00,0.000000000000000000e+00,6.200000000000000000e+01,2.325100000000000000e+04,3.313047885894775391e-01,1.716632127761840820e+00,3.856459846037079142e-01,0.000000000000000000e+00,1.110000000000000000e+02
1.000000000000000000e+00,1.000000000000000000e+00,1.000000000000000000e+00,6.200000000000000000e+01,2.331300000000000000e+04,4.597330093383789062e-01,1.898120880126953125e+00,4.504286297819541929e-01,0.000000000000000000e+00,1.110000000000000000e+02
0.000000000000000000e+00,1.000000000000000000e+00,0.000000000000000000e+00,6.000000000000000000e+01,2.337300000000000000e+04,3.658268451690673828e-01,1.835910081863403320e+00,4.697562193580726020e-01,0.000000000000000000e+00,1.110000000000000000e+02
0.000000000000000000e+00,1.000000000000000000e+00,0.000000000000000000e+00,5.600000000000000000e+01,2.342900000000000000e+04,3.405368328094482422e-01,1.703366994857788086e+00,3.732954958944555979e-01,0.000000000000000000e+00,1.110000000000000000e+02
