choice, accuracy, solution,  reward, cumulative_reward, rt,  total_trial_time, iti, cp_with_slow_fast, high_val_cue
1.000000000000000000e+00,1.000000000000000000e+00,1.000000000000000000e+00,0.000000000000000000e+00,0.000000000000000000e+00,1.282889842987060547e+00,2.617568016052246094e+00,3.026567531853967541e-01,-1.000000000000000000e+00,1.120000000000000000e+02
1.000000000000000000e+00,1.000000000000000000e+00,1.000000000000000000e+00,6.500000000000000000e+01,6.500000000000000000e+01,3.793008327484130859e-01,1.829990148544311523e+00,4.492470877707546162e-01,0.000000000000000000e+00,1.120000000000000000e+02
0.000000000000000000e+00,1.000000000000000000e+00,0.000000000000000000e+00,5.400000000000000000e+01,1.190000000000000000e+02,2.870538234710693359e-01,1.821038961410522461e+00,5.368920175668177031e-01,0.000000000000000000e+00,1.120000000000000000e+02
1.000000000000000000e+00,1.000000000000000000e+00,1.000000000000000000e+00,6.000000000000000000e+01,1.790000000000000000e+02,2.855279445648193359e-01,1.917184829711914062e+00,6.373910981784367547e-01,0.000000000000000000e+00,1.120000000000000000e+02
0.000000000000000000e+00,1.000000000000000000e+00,0.000000000000000000e+00,6.000000000000000000e+01,2.390000000000000000e+02,3.608870506286621094e-01,1.984710216522216797e+00,6.388279848720096465e-01,0.000000000000000000e+00,1.120000000000000000e+02
1.000000000000000000e+00,0.000000000000000000e+00,0.000000000000000000e+00,4.100000000000000000e+01,2.800000000000000000e+02,3.487629890441894531e-01,1.825729846954345703e+00,4.814757540734288521e-01,0.000000000000000000e+00,1.120000000000000000e+02
0.000000000000000000e+00,1.000000000000000000e+00,0.000000000000000000e+00,6.100000000000000000e+01,3.410000000000000000e+02,3.609750270843505859e-01,2.046182155609130859e+00,7.108375978259500183e-01,0.000000000000000000e+00,1.120000000000000000e+02
0.000000000000000000e+00,1.000000000000000000e+00,0.000000000000000000e+00,5.900000000000000000e+01,4.000000000000000000e+02,3.411939144134521484e-01,1.583420991897583008e+00,2.614495521749271023e-01,0.000000000000000000e+00,1.120000000000000000e+02
1.000000000000000000e+00,1.000000000000000000e+00,1.000000000000000000e+00,5.900000000000000000e+01,4.590000000000000000e+02,4.358761310577392578e-01,1.889261007308959961e+00,4.671903615729551817e-01,0.000000000000000000e+00,1.120000000000000000e+02
1.000000000000000000e+00,1.000000000000000000e+00,1.000000000000000000e+00,5.400000000000000000e+01,5.130000000000000000e+02,5.389258861541748047e-01,1.963743925094604492e+00,4.310297322346798854e-01,0.000000000000000000e+00,1.120000000000000000e+02
1.000000000000000000e+00,1.000000000000000000e+00,1.000000000000000000e+00,6.000000000000000000e+01,5.730000000000000000e+02,3.599178791046142578e-01,1.958687067031860352e+00,6.229074211490207569e-01,0.000000000000000000e+00,1.120000000000000000e+02
1.000000000000000000e+00,1.000000000000000000e+00,1.000000000000000000e+00,6.000000000000000000e+01,6.330000000000000000e+02,4.274218082427978516e-01,2.044615983963012695e+00,6.342565632371530704e-01,0.000000000000000000e+00,1.120000000000000000e+02
0.000000000000000000e+00,1.000000000000000000e+00,0.000000000000000000e+00,5.200000000000000000e+01,6.850000000000000000e+02,3.294520378112792969e-01,2.002711057662963867e+00,6.703412648860558321e-01,0.000000000000000000e+00,1.120000000000000000e+02
0.000000000000000000e+00,1.000000000000000000e+00,0.000000000000000000e+00,5.900000000000000000e+01,7.440000000000000000e+02,3.065078258514404297e-01,1.729148149490356445e+00,4.331511003390290382e-01,0.000000000000000000e+00,1.120000000000000000e+02
0.000000000000000000e+00,1.000000000000000000e+00,0.000000000000000000e+00,5.200000000000000000e+01,7.960000000000000000e+02,4.092369079589843750e-01,1.719326019287109375e+00,3.193162140872441435e-01,0.000000000000000000e+00,1.120000000000000000e+02
1.000000000000000000e+00,1.000000000000000000e+00,1.000000000000000000e+00,5.700000000000000000e+01,8.530000000000000000e+02,3.755378723144531250e-01,1.710530042648315430e+00,3.465381908076722306e-01,0.000000000000000000e+00,1.120000000000000000e+02
0.000000000000000000e+00,1.000000000000000000e+00,0.000000000000000000e+00,6.600000000000000000e+01,9.190000000000000000e+02,3.496160507202148438e-01,1.981292009353637695e+00,6.442451499387968905e-01,0.000000000000000000e+00,1.120000000000000000e+02
1.000000000000000000e+00,0.000000000000000000e+00,0.000000000000000000e+00,0.000000000000000000e+00,9.190000000000000000e+02,9.734511375427246094e-02,5.641343832015991211e+00,4.359982167581975543e-01,-2.000000000000000000e+00,1.120000000000000000e+02
0.000000000000000000e+00,1.000000000000000000e+00,0.000000000000000000e+00,6.300000000000000000e+01,9.820000000000000000e+02,3.986649513244628906e-01,1.935083866119384766e+00,5.376953185282655756e-01,0.000000000000000000e+00,1.120000000000000000e+02
1.000000000000000000e+00,1.000000000000000000e+00,1.000000000000000000e+00,5.700000000000000000e+01,1.039000000000000000e+03,3.494029045104980469e-01,1.734297037124633789e+00,3.888894233992380989e-01,0.000000000000000000e+00,1.120000000000000000e+02
0.000000000000000000e+00,1.000000000000000000e+00,0.000000000000000000e+00,6.000000000000000000e+01,1.099000000000000000e+03,3.780300617218017578e-01,1.852633953094482422e+00,4.915117087891124337e-01,0.000000000000000000e+00,1.120000000000000000e+02
1.000000000000000000e+00,1.000000000000000000e+00,1.000000000000000000e+00,6.100000000000000000e+01,1.160000000000000000e+03,3.262040615081787109e-01,1.765807867050170898e+00,4.574114529069261414e-01,0.000000000000000000e+00,1.120000000000000000e+02
1.000000000000000000e+00,1.000000000000000000e+00,1.000000000000000000e+00,5.600000000000000000e+01,1.216000000000000000e+03,3.956151008605957031e-01,1.911666154861450195e+00,5.190872588337103188e-01,0.000000000000000000e+00,1.120000000000000000e+02
0.000000000000000000e+00,1.000000000000000000e+00,0.000000000000000000e+00,6.500000000000000000e+01,1.281000000000000000e+03,3.299901485443115234e-01,1.882300853729248047e+00,5.513995113349453581e-01,0.000000000000000000e+00,1.120000000000000000e+02
0.000000000000000000e+00,1.000000000000000000e+00,0.000000000000000000e+00,6.400000000000000000e+01,1.345000000000000000e+03,2.726960182189941406e-01,1.954992055892944336e+00,6.896715105728632444e-01,0.000000000000000000e+00,1.120000000000000000e+02
0.000000000000000000e+00,1.000000000000000000e+00,0.000000000000000000e+00,6.400000000000000000e+01,1.409000000000000000e+03,3.497669696807861328e-01,1.956287145614624023e+00,6.127532333182754698e-01,0.000000000000000000e+00,1.120000000000000000e+02
0.000000000000000000e+00,1.000000000000000000e+00,0.000000000000000000e+00,6.000000000000000000e+01,1.469000000000000000e+03,3.528449535369873047e-01,1.880744934082031250e+00,5.436428870973211147e-01,0.000000000000000000e+00,1.120000000000000000e+02
1.000000000000000000e+00,1.000000000000000000e+00,1.000000000000000000e+00,6.000000000000000000e+01,1.529000000000000000e+03,4.475800991058349609e-01,1.965342998504638672e+00,5.257200744651575608e-01,0.000000000000000000e+00,1.120000000000000000e+02
1.000000000000000000e+00,1.000000000000000000e+00,1.000000000000000000e+00,6.000000000000000000e+01,1.589000000000000000e+03,3.950271606445312500e-01,1.973477125167846680e+00,5.992171095089857680e-01,0.000000000000000000e+00,1.120000000000000000e+02
1.000000000000000000e+00,1.000000000000000000e+00,1.000000000000000000e+00,5.900000000000000000e+01,1.648000000000000000e+03,3.447599411010742188e-01,2.065981864929199219e+00,7.317722532601296237e-01,0.000000000000000000e+00,1.120000000000000000e+02
0.000000000000000000e+00,1.000000000000000000e+00,0.000000000000000000e+00,5.500000000000000000e+01,1.703000000000000000e+03,3.354740142822265625e-01,1.786471128463745117e+00,4.352691311403003582e-01,0.000000000000000000e+00,1.120000000000000000e+02
1.000000000000000000e+00,1.000000000000000000e+00,1.000000000000000000e+00,6.500000000000000000e+01,1.768000000000000000e+03,3.749380111694335938e-01,1.725969076156616211e+00,3.613896787849854020e-01,0.000000000000000000e+00,1.120000000000000000e+02
1.000000000000000000e+00,1.000000000000000000e+00,1.000000000000000000e+00,5.600000000000000000e+01,1.824000000000000000e+03,4.162549972534179688e-01,1.665585041046142578e+00,2.604794556145648143e-01,0.000000000000000000e+00,1.120000000000000000e+02
0.000000000000000000e+00,1.000000000000000000e+00,0.000000000000000000e+00,6.000000000000000000e+01,1.884000000000000000e+03,4.336509704589843750e-01,2.060983896255493164e+00,6.378041903165828641e-01,0.000000000000000000e+00,1.120000000000000000e+02
0.000000000000000000e+00,1.000000000000000000e+00,0.000000000000000000e+00,6.000000000000000000e+01,1.944000000000000000e+03,3.460631370544433594e-01,1.732676029205322266e+00,3.874709493707645391e-01,0.000000000000000000e+00,1.120000000000000000e+02
0.000000000000000000e+00,1.000000000000000000e+00,0.000000000000000000e+00,5.700000000000000000e+01,2.001000000000000000e+03,4.497671127319335938e-01,2.081840991973876953e+00,6.358028958673016540e-01,0.000000000000000000e+00,1.120000000000000000e+02
1.000000000000000000e+00,1.000000000000000000e+00,1.000000000000000000e+00,5.700000000000000000e+01,2.058000000000000000e+03,3.445088863372802734e-01,1.819868803024291992e+00,4.891844448661591405e-01,0.000000000000000000e+00,1.120000000000000000e+02
1.000000000000000000e+00,1.000000000000000000e+00,1.000000000000000000e+00,5.700000000000000000e+01,2.115000000000000000e+03,3.619000911712646484e-01,1.920597791671752930e+00,5.597569516111087218e-01,0.000000000000000000e+00,1.120000000000000000e+02
0.000000000000000000e+00,1.000000000000000000e+00,0.000000000000000000e+00,6.700000000000000000e+01,2.182000000000000000e+03,3.482868671417236328e-01,2.087070941925048828e+00,7.467054937528146974e-01,0.000000000000000000e+00,1.120000000000000000e+02
1.000000000000000000e+00,1.000000000000000000e+00,1.000000000000000000e+00,6.100000000000000000e+01,2.243000000000000000e+03,3.480479717254638672e-01,1.814764022827148438e+00,4.784676547963735427e-01,0.000000000000000000e+00,1.120000000000000000e+02
0.000000000000000000e+00,1.000000000000000000e+00,0.000000000000000000e+00,6.400000000000000000e+01,2.307000000000000000e+03,4.234468936920166016e-01,1.805140972137451172e+00,4.004207279968089450e-01,0.000000000000000000e+00,1.120000000000000000e+02
0.000000000000000000e+00,1.000000000000000000e+00,0.000000000000000000e+00,6.500000000000000000e+01,2.372000000000000000e+03,4.717659950256347656e-01,2.208440065383911133e+00,7.419309691643460880e-01,0.000000000000000000e+00,1.120000000000000000e+02
0.000000000000000000e+00,1.000000000000000000e+00,0.000000000000000000e+00,6.200000000000000000e+01,2.434000000000000000e+03,3.579521179199218750e-01,2.086524963378906250e+00,7.451850025515244225e-01,0.000000000000000000e+00,1.120000000000000000e+02
0.000000000000000000e+00,1.000000000000000000e+00,0.000000000000000000e+00,6.300000000000000000e+01,2.497000000000000000e+03,3.736510276794433594e-01,1.830183982849121094e+00,4.757130328781063455e-01,0.000000000000000000e+00,1.120000000000000000e+02
0.000000000000000000e+00,0.000000000000000000e+00,1.000000000000000000e+00,4.100000000000000000e+01,2.538000000000000000e+03,4.123990535736083984e-01,1.773772001266479492e+00,3.663175950284951465e-01,1.000000000000000000e+00,1.110000000000000000e+02
1.000000000000000000e+00,0.000000000000000000e+00,0.000000000000000000e+00,4.500000000000000000e+01,2.583000000000000000e+03,3.990828990936279297e-01,2.003291845321655273e+00,6.027475551586325420e-01,0.000000000000000000e+00,1.110000000000000000e+02
1.000000000000000000e+00,0.000000000000000000e+00,0.000000000000000000e+00,4.400000000000000000e+01,2.627000000000000000e+03,3.661770820617675781e-01,1.621409893035888672e+00,2.578929747179853904e-01,0.000000000000000000e+00,1.110000000000000000e+02
1.000000000000000000e+00,0.000000000000000000e+00,0.000000000000000000e+00,3.500000000000000000e+01,2.662000000000000000e+03,4.934859275817871094e-01,1.777395009994506836e+00,3.020336657492370125e-01,0.000000000000000000e+00,1.110000000000000000e+02
0.000000000000000000e+00,1.000000000000000000e+00,0.000000000000000000e+00,5.100000000000000000e+01,2.713000000000000000e+03,6.133818626403808594e-01,2.226672172546386719e+00,6.117756956491697817e-01,0.000000000000000000e+00,1.110000000000000000e+02
1.000000000000000000e+00,1.000000000000000000e+00,1.000000000000000000e+00,6.300000000000000000e+01,2.776000000000000000e+03,3.996951580047607422e-01,1.967427968978881836e+00,5.792906676994514781e-01,0.000000000000000000e+00,1.110000000000000000e+02
0.000000000000000000e+00,1.000000000000000000e+00,0.000000000000000000e+00,5.500000000000000000e+01,2.831000000000000000e+03,2.861039638519287109e-01,1.926618099212646484e+00,6.559020522891176874e-01,0.000000000000000000e+00,1.110000000000000000e+02
0.000000000000000000e+00,1.000000000000000000e+00,0.000000000000000000e+00,6.000000000000000000e+01,2.891000000000000000e+03,3.368530273437500000e-01,1.694849014282226562e+00,3.677357916299515139e-01,0.000000000000000000e+00,1.110000000000000000e+02
1.000000000000000000e+00,1.000000000000000000e+00,1.000000000000000000e+00,5.700000000000000000e+01,2.948000000000000000e+03,3.989160060882568359e-01,1.791081905364990234e+00,3.922215025666132560e-01,0.000000000000000000e+00,1.110000000000000000e+02
0.000000000000000000e+00,1.000000000000000000e+00,0.000000000000000000e+00,6.000000000000000000e+01,3.008000000000000000e+03,3.766520023345947266e-01,1.657273054122924805e+00,2.996428638297018443e-01,0.000000000000000000e+00,1.110000000000000000e+02
0.000000000000000000e+00,1.000000000000000000e+00,0.000000000000000000e+00,5.400000000000000000e+01,3.062000000000000000e+03,3.520500659942626953e-01,1.977315187454223633e+00,6.266814785296201951e-01,0.000000000000000000e+00,1.110000000000000000e+02
1.000000000000000000e+00,1.000000000000000000e+00,1.000000000000000000e+00,6.000000000000000000e+01,3.122000000000000000e+03,3.104159832000732422e-01,1.563441991806030273e+00,2.738891910449617884e-01,0.000000000000000000e+00,1.110000000000000000e+02
0.000000000000000000e+00,1.000000000000000000e+00,0.000000000000000000e+00,5.600000000000000000e+01,3.178000000000000000e+03,3.988218307495117188e-01,1.988654851913452148e+00,5.955811724905185622e-01,0.000000000000000000e+00,1.110000000000000000e+02
1.000000000000000000e+00,1.000000000000000000e+00,1.000000000000000000e+00,6.000000000000000000e+01,3.238000000000000000e+03,3.334350585937500000e-01,1.684161901473999023e+00,3.634031005954372340e-01,0.000000000000000000e+00,1.110000000000000000e+02
0.000000000000000000e+00,1.000000000000000000e+00,0.000000000000000000e+00,5.300000000000000000e+01,3.291000000000000000e+03,3.953330516815185547e-01,1.787219047546386719e+00,4.006444450925403244e-01,0.000000000000000000e+00,1.110000000000000000e+02
1.000000000000000000e+00,1.000000000000000000e+00,1.000000000000000000e+00,5.000000000000000000e+01,3.341000000000000000e+03,3.253118991851806641e-01,1.840045928955078125e+00,5.239561864396842239e-01,0.000000000000000000e+00,1.110000000000000000e+02
0.000000000000000000e+00,1.000000000000000000e+00,0.000000000000000000e+00,5.700000000000000000e+01,3.398000000000000000e+03,3.121190071105957031e-01,1.834467172622680664e+00,5.251204162261120523e-01,0.000000000000000000e+00,1.110000000000000000e+02
1.000000000000000000e+00,1.000000000000000000e+00,1.000000000000000000e+00,6.000000000000000000e+01,3.458000000000000000e+03,3.108148574829101562e-01,1.838438987731933594e+00,5.469530427204644107e-01,0.000000000000000000e+00,1.110000000000000000e+02
0.000000000000000000e+00,0.000000000000000000e+00,1.000000000000000000e+00,4.400000000000000000e+01,3.502000000000000000e+03,1.865279674530029297e-01,1.553911924362182617e+00,3.844129724798669989e-01,0.000000000000000000e+00,1.110000000000000000e+02
1.000000000000000000e+00,1.000000000000000000e+00,1.000000000000000000e+00,5.700000000000000000e+01,3.559000000000000000e+03,3.359119892120361328e-01,1.750318050384521484e+00,4.181010258585571848e-01,0.000000000000000000e+00,1.110000000000000000e+02
1.000000000000000000e+00,1.000000000000000000e+00,1.000000000000000000e+00,5.700000000000000000e+01,3.616000000000000000e+03,3.689551353454589844e-01,2.003875017166137695e+00,6.384878363049346639e-01,0.000000000000000000e+00,1.110000000000000000e+02
1.000000000000000000e+00,1.000000000000000000e+00,1.000000000000000000e+00,6.000000000000000000e+01,3.676000000000000000e+03,3.140778541564941406e-01,1.969768047332763672e+00,6.583330952147403714e-01,0.000000000000000000e+00,1.110000000000000000e+02
1.000000000000000000e+00,1.000000000000000000e+00,1.000000000000000000e+00,6.200000000000000000e+01,3.738000000000000000e+03,3.575057983398437500e-01,1.725141048431396484e+00,3.837725336734779669e-01,0.000000000000000000e+00,1.110000000000000000e+02
1.000000000000000000e+00,1.000000000000000000e+00,1.000000000000000000e+00,6.200000000000000000e+01,3.800000000000000000e+03,3.871970176696777344e-01,2.110371112823486328e+00,7.271869035366276268e-01,0.000000000000000000e+00,1.110000000000000000e+02
0.000000000000000000e+00,1.000000000000000000e+00,0.000000000000000000e+00,6.000000000000000000e+01,3.860000000000000000e+03,1.782319545745849609e-01,1.809175014495849609e+00,6.365063428220858466e-01,0.000000000000000000e+00,1.110000000000000000e+02
1.000000000000000000e+00,1.000000000000000000e+00,1.000000000000000000e+00,5.700000000000000000e+01,3.917000000000000000e+03,3.747088909149169922e-01,1.761586904525756836e+00,3.984363321464378105e-01,0.000000000000000000e+00,1.110000000000000000e+02
0.000000000000000000e+00,1.000000000000000000e+00,0.000000000000000000e+00,5.900000000000000000e+01,3.976000000000000000e+03,4.748680591583251953e-01,1.791148900985717773e+00,3.396930045023371370e-01,0.000000000000000000e+00,1.110000000000000000e+02
1.000000000000000000e+00,1.000000000000000000e+00,1.000000000000000000e+00,6.000000000000000000e+01,4.036000000000000000e+03,3.697519302368164062e-01,2.052633047103881836e+00,6.919566086121435866e-01,0.000000000000000000e+00,1.110000000000000000e+02
1.000000000000000000e+00,1.000000000000000000e+00,1.000000000000000000e+00,5.200000000000000000e+01,4.088000000000000000e+03,4.028639793395996094e-01,1.843497991561889648e+00,4.525142632459219771e-01,0.000000000000000000e+00,1.110000000000000000e+02
1.000000000000000000e+00,1.000000000000000000e+00,1.000000000000000000e+00,5.400000000000000000e+01,4.142000000000000000e+03,3.798351287841796875e-01,2.051936864852905273e+00,6.709817549753287480e-01,0.000000000000000000e+00,1.110000000000000000e+02
1.000000000000000000e+00,1.000000000000000000e+00,1.000000000000000000e+00,6.000000000000000000e+01,4.202000000000000000e+03,3.669779300689697266e-01,1.737681150436401367e+00,3.756844852775345078e-01,0.000000000000000000e+00,1.110000000000000000e+02
0.000000000000000000e+00,1.000000000000000000e+00,0.000000000000000000e+00,5.600000000000000000e+01,4.258000000000000000e+03,4.126970767974853516e-01,2.145480871200561523e+00,7.375103786182601873e-01,0.000000000000000000e+00,1.110000000000000000e+02
0.000000000000000000e+00,1.000000000000000000e+00,0.000000000000000000e+00,5.100000000000000000e+01,4.309000000000000000e+03,4.067800045013427734e-01,1.740028142929077148e+00,3.446622191510603228e-01,0.000000000000000000e+00,1.110000000000000000e+02
0.000000000000000000e+00,1.000000000000000000e+00,0.000000000000000000e+00,5.500000000000000000e+01,4.364000000000000000e+03,4.634799957275390625e-01,2.007814884185791016e+00,5.523258904160773808e-01,0.000000000000000000e+00,1.110000000000000000e+02
1.000000000000000000e+00,1.000000000000000000e+00,1.000000000000000000e+00,5.400000000000000000e+01,4.418000000000000000e+03,5.729000568389892578e-01,2.073831081390380859e+00,5.096027814611507889e-01,0.000000000000000000e+00,1.110000000000000000e+02
0.000000000000000000e+00,1.000000000000000000e+00,0.000000000000000000e+00,5.400000000000000000e+01,4.472000000000000000e+03,2.892611026763916016e-01,1.890836954116821289e+00,6.170469289076362385e-01,0.000000000000000000e+00,1.110000000000000000e+02
1.000000000000000000e+00,1.000000000000000000e+00,1.000000000000000000e+00,5.700000000000000000e+01,4.529000000000000000e+03,3.143520355224609375e-01,1.997958898544311523e+00,6.816806356579259152e-01,0.000000000000000000e+00,1.110000000000000000e+02
0.000000000000000000e+00,0.000000000000000000e+00,1.000000000000000000e+00,4.200000000000000000e+01,4.571000000000000000e+03,2.780990600585937500e-01,1.853307008743286133e+00,5.851536015230558441e-01,1.000000000000000000e+00,1.120000000000000000e+02
1.000000000000000000e+00,0.000000000000000000e+00,0.000000000000000000e+00,4.700000000000000000e+01,4.618000000000000000e+03,3.064839839935302734e-01,1.948271989822387695e+00,6.501261282790247176e-01,0.000000000000000000e+00,1.120000000000000000e+02
1.000000000000000000e+00,0.000000000000000000e+00,0.000000000000000000e+00,5.000000000000000000e+01,4.668000000000000000e+03,3.295269012451171875e-01,1.998393058776855469e+00,6.648916264969451095e-01,0.000000000000000000e+00,1.120000000000000000e+02
0.000000000000000000e+00,0.000000000000000000e+00,1.000000000000000000e+00,4.100000000000000000e+01,4.709000000000000000e+03,3.646368980407714844e-01,1.741003990173339844e+00,3.732533108435062696e-01,0.000000000000000000e+00,1.120000000000000000e+02
1.000000000000000000e+00,0.000000000000000000e+00,0.000000000000000000e+00,4.000000000000000000e+01,4.749000000000000000e+03,4.113779067993164062e-01,1.773967981338500977e+00,3.806169357493706107e-01,0.000000000000000000e+00,1.120000000000000000e+02
0.000000000000000000e+00,0.000000000000000000e+00,1.000000000000000000e+00,4.600000000000000000e+01,4.795000000000000000e+03,4.367389678955078125e-01,1.961817979812622070e+00,5.423216338194691843e-01,0.000000000000000000e+00,1.120000000000000000e+02
0.000000000000000000e+00,0.000000000000000000e+00,1.000000000000000000e+00,4.200000000000000000e+01,4.837000000000000000e+03,4.091529846191406250e-01,1.700434923171997070e+00,3.097245755656334310e-01,0.000000000000000000e+00,1.120000000000000000e+02
1.000000000000000000e+00,0.000000000000000000e+00,0.000000000000000000e+00,4.300000000000000000e+01,4.880000000000000000e+03,4.462108612060546875e-01,1.811455965042114258e+00,3.712086161188410949e-01,0.000000000000000000e+00,1.120000000000000000e+02
1.000000000000000000e+00,0.000000000000000000e+00,0.000000000000000000e+00,3.900000000000000000e+01,4.919000000000000000e+03,4.095888137817382812e-01,1.946449041366577148e+00,5.508466105271446756e-01,0.000000000000000000e+00,1.120000000000000000e+02
1.000000000000000000e+00,0.000000000000000000e+00,0.000000000000000000e+00,4.500000000000000000e+01,4.964000000000000000e+03,3.156359195709228516e-01,1.935472011566162109e+00,6.196528022835476879e-01,0.000000000000000000e+00,1.120000000000000000e+02
1.000000000000000000e+00,0.000000000000000000e+00,0.000000000000000000e+00,4.200000000000000000e+01,5.006000000000000000e+03,2.863819599151611328e-01,1.961151838302612305e+00,6.807798431889307000e-01,0.000000000000000000e+00,1.120000000000000000e+02
1.000000000000000000e+00,1.000000000000000000e+00,1.000000000000000000e+00,6.000000000000000000e+01,5.066000000000000000e+03,2.645320892333984375e-01,1.636053085327148438e+00,3.838822437286886768e-01,0.000000000000000000e+00,1.120000000000000000e+02
1.000000000000000000e+00,1.000000000000000000e+00,1.000000000000000000e+00,6.000000000000000000e+01,5.126000000000000000e+03,3.975949287414550781e-01,1.890417098999023438e+00,4.909156533772487396e-01,0.000000000000000000e+00,1.120000000000000000e+02
1.000000000000000000e+00,1.000000000000000000e+00,1.000000000000000000e+00,5.600000000000000000e+01,5.182000000000000000e+03,3.741669654846191406e-01,1.780013799667358398e+00,4.210703561509112069e-01,0.000000000000000000e+00,1.120000000000000000e+02
1.000000000000000000e+00,1.000000000000000000e+00,1.000000000000000000e+00,5.500000000000000000e+01,5.237000000000000000e+03,3.668999671936035156e-01,2.046961069107055664e+00,6.844982344703919308e-01,0.000000000000000000e+00,1.120000000000000000e+02
1.000000000000000000e+00,1.000000000000000000e+00,1.000000000000000000e+00,5.600000000000000000e+01,5.293000000000000000e+03,3.219571113586425781e-01,1.914445161819458008e+00,5.990776334969554195e-01,0.000000000000000000e+00,1.120000000000000000e+02
1.000000000000000000e+00,1.000000000000000000e+00,1.000000000000000000e+00,5.200000000000000000e+01,5.345000000000000000e+03,3.183479309082031250e-01,2.047147035598754883e+00,7.295018752628807945e-01,0.000000000000000000e+00,1.120000000000000000e+02
0.000000000000000000e+00,1.000000000000000000e+00,0.000000000000000000e+00,5.900000000000000000e+01,5.404000000000000000e+03,4.341170787811279297e-01,2.167095899581909180e+00,7.466226304771775846e-01,0.000000000000000000e+00,1.120000000000000000e+02
1.000000000000000000e+00,1.000000000000000000e+00,1.000000000000000000e+00,5.600000000000000000e+01,5.460000000000000000e+03,3.025050163269042969e-01,1.567929029464721680e+00,2.818103798388388870e-01,0.000000000000000000e+00,1.120000000000000000e+02
1.000000000000000000e+00,1.000000000000000000e+00,1.000000000000000000e+00,5.500000000000000000e+01,5.515000000000000000e+03,5.139417648315429688e-01,2.199040174484252930e+00,6.971017627143938356e-01,0.000000000000000000e+00,1.120000000000000000e+02
1.000000000000000000e+00,1.000000000000000000e+00,1.000000000000000000e+00,5.600000000000000000e+01,5.571000000000000000e+03,3.829450607299804688e-01,1.856531858444213867e+00,4.873216359955586108e-01,0.000000000000000000e+00,1.120000000000000000e+02
1.000000000000000000e+00,1.000000000000000000e+00,1.000000000000000000e+00,6.000000000000000000e+01,5.631000000000000000e+03,3.414340019226074219e-01,1.691671133041381836e+00,3.624746125515077577e-01,0.000000000000000000e+00,1.120000000000000000e+02
0.000000000000000000e+00,1.000000000000000000e+00,0.000000000000000000e+00,5.400000000000000000e+01,5.685000000000000000e+03,4.451560974121093750e-01,1.877216100692749023e+00,4.396801625659252921e-01,0.000000000000000000e+00,1.120000000000000000e+02
0.000000000000000000e+00,1.000000000000000000e+00,0.000000000000000000e+00,5.600000000000000000e+01,5.741000000000000000e+03,3.949060440063476562e-01,1.947427034378051758e+00,5.537264081522532688e-01,0.000000000000000000e+00,1.120000000000000000e+02
0.000000000000000000e+00,1.000000000000000000e+00,0.000000000000000000e+00,5.900000000000000000e+01,5.800000000000000000e+03,3.771109580993652344e-01,1.840687990188598633e+00,4.612338086456552744e-01,0.000000000000000000e+00,1.120000000000000000e+02
0.000000000000000000e+00,1.000000000000000000e+00,0.000000000000000000e+00,5.400000000000000000e+01,5.854000000000000000e+03,4.796929359436035156e-01,2.009614944458007812e+00,5.374529293846679323e-01,0.000000000000000000e+00,1.120000000000000000e+02
0.000000000000000000e+00,1.000000000000000000e+00,0.000000000000000000e+00,6.400000000000000000e+01,5.918000000000000000e+03,3.841400146484375000e-01,1.986827135086059570e+00,6.076753924443818455e-01,0.000000000000000000e+00,1.120000000000000000e+02
0.000000000000000000e+00,1.000000000000000000e+00,0.000000000000000000e+00,5.400000000000000000e+01,5.972000000000000000e+03,3.118898868560791016e-01,2.013061046600341797e+00,7.040467556920626535e-01,0.000000000000000000e+00,1.120000000000000000e+02
0.000000000000000000e+00,1.000000000000000000e+00,0.000000000000000000e+00,6.000000000000000000e+01,6.032000000000000000e+03,3.932268619537353516e-01,1.935941934585571289e+00,5.568366626015989196e-01,0.000000000000000000e+00,1.120000000000000000e+02
1.000000000000000000e+00,1.000000000000000000e+00,1.000000000000000000e+00,6.000000000000000000e+01,6.092000000000000000e+03,7.128808498382568359e-01,2.419319152832031250e+00,7.094690804439900411e-01,0.000000000000000000e+00,1.120000000000000000e+02
0.000000000000000000e+00,1.000000000000000000e+00,0.000000000000000000e+00,5.600000000000000000e+01,6.148000000000000000e+03,3.563158512115478516e-01,1.803673982620239258e+00,4.634716460937455818e-01,0.000000000000000000e+00,1.120000000000000000e+02
0.000000000000000000e+00,1.000000000000000000e+00,0.000000000000000000e+00,5.700000000000000000e+01,6.205000000000000000e+03,3.714900016784667969e-01,1.718091011047363281e+00,3.650491156509617641e-01,0.000000000000000000e+00,1.120000000000000000e+02
1.000000000000000000e+00,1.000000000000000000e+00,1.000000000000000000e+00,5.900000000000000000e+01,6.264000000000000000e+03,5.228500366210937500e-01,1.807533979415893555e+00,3.060661431940163157e-01,0.000000000000000000e+00,1.120000000000000000e+02
1.000000000000000000e+00,1.000000000000000000e+00,1.000000000000000000e+00,5.200000000000000000e+01,6.316000000000000000e+03,4.192030429840087891e-01,1.868720054626464844e+00,4.579956953084355908e-01,0.000000000000000000e+00,1.120000000000000000e+02
1.000000000000000000e+00,1.000000000000000000e+00,1.000000000000000000e+00,5.500000000000000000e+01,6.371000000000000000e+03,3.965921401977539062e-01,1.937196016311645508e+00,5.451866632613189267e-01,0.000000000000000000e+00,1.120000000000000000e+02
1.000000000000000000e+00,1.000000000000000000e+00,1.000000000000000000e+00,5.500000000000000000e+01,6.426000000000000000e+03,3.164288997650146484e-01,1.941817998886108398e+00,6.369406765106286894e-01,0.000000000000000000e+00,1.120000000000000000e+02
0.000000000000000000e+00,0.000000000000000000e+00,1.000000000000000000e+00,4.400000000000000000e+01,6.470000000000000000e+03,3.975710868835449219e-01,2.062395095825195312e+00,6.660614561155216995e-01,1.000000000000000000e+00,1.110000000000000000e+02
1.000000000000000000e+00,1.000000000000000000e+00,1.000000000000000000e+00,5.400000000000000000e+01,6.524000000000000000e+03,3.439280986785888672e-01,1.828969001770019531e+00,4.953049431318216622e-01,0.000000000000000000e+00,1.110000000000000000e+02
0.000000000000000000e+00,1.000000000000000000e+00,0.000000000000000000e+00,5.300000000000000000e+01,6.577000000000000000e+03,3.652329444885253906e-01,2.044430017471313477e+00,6.895801938054257896e-01,0.000000000000000000e+00,1.110000000000000000e+02
0.000000000000000000e+00,1.000000000000000000e+00,0.000000000000000000e+00,5.300000000000000000e+01,6.630000000000000000e+03,3.443610668182373047e-01,1.667994976043701172e+00,3.413215389794199695e-01,0.000000000000000000e+00,1.110000000000000000e+02
1.000000000000000000e+00,1.000000000000000000e+00,1.000000000000000000e+00,5.100000000000000000e+01,6.681000000000000000e+03,4.327600002288818359e-01,2.068736076354980469e+00,6.431431958615072553e-01,0.000000000000000000e+00,1.110000000000000000e+02
1.000000000000000000e+00,1.000000000000000000e+00,1.000000000000000000e+00,5.500000000000000000e+01,6.736000000000000000e+03,2.861890792846679688e-01,1.795094013214111328e+00,5.217895496903302011e-01,0.000000000000000000e+00,1.110000000000000000e+02
0.000000000000000000e+00,1.000000000000000000e+00,0.000000000000000000e+00,5.600000000000000000e+01,6.792000000000000000e+03,3.502638339996337891e-01,1.673609018325805664e+00,3.289750905715009277e-01,0.000000000000000000e+00,1.110000000000000000e+02
1.000000000000000000e+00,1.000000000000000000e+00,1.000000000000000000e+00,5.200000000000000000e+01,6.844000000000000000e+03,3.976330757141113281e-01,1.686196088790893555e+00,2.985750031924340742e-01,0.000000000000000000e+00,1.110000000000000000e+02
0.000000000000000000e+00,1.000000000000000000e+00,0.000000000000000000e+00,5.200000000000000000e+01,6.896000000000000000e+03,3.733220100402832031e-01,1.970054864883422852e+00,6.183755951175271548e-01,0.000000000000000000e+00,1.110000000000000000e+02
0.000000000000000000e+00,0.000000000000000000e+00,1.000000000000000000e+00,4.400000000000000000e+01,6.940000000000000000e+03,3.329861164093017578e-01,1.682514905929565430e+00,3.512144012522687153e-01,0.000000000000000000e+00,1.110000000000000000e+02
1.000000000000000000e+00,1.000000000000000000e+00,1.000000000000000000e+00,5.600000000000000000e+01,6.996000000000000000e+03,3.847038745880126953e-01,2.079900026321411133e+00,6.974934965368217998e-01,0.000000000000000000e+00,1.110000000000000000e+02
1.000000000000000000e+00,1.000000000000000000e+00,1.000000000000000000e+00,5.100000000000000000e+01,7.047000000000000000e+03,3.551290035247802734e-01,1.965037107467651367e+00,6.293134608262125340e-01,0.000000000000000000e+00,1.110000000000000000e+02
0.000000000000000000e+00,1.000000000000000000e+00,0.000000000000000000e+00,5.300000000000000000e+01,7.100000000000000000e+03,3.246281147003173828e-01,1.922170877456665039e+00,6.182104287511300811e-01,0.000000000000000000e+00,1.110000000000000000e+02
0.000000000000000000e+00,1.000000000000000000e+00,0.000000000000000000e+00,5.400000000000000000e+01,7.154000000000000000e+03,3.402500152587890625e-01,1.912711143493652344e+00,5.810295068684538933e-01,0.000000000000000000e+00,1.110000000000000000e+02
0.000000000000000000e+00,1.000000000000000000e+00,0.000000000000000000e+00,5.300000000000000000e+01,7.207000000000000000e+03,3.873279094696044922e-01,2.086246013641357422e+00,7.172009415037434721e-01,0.000000000000000000e+00,1.110000000000000000e+02
1.000000000000000000e+00,1.000000000000000000e+00,1.000000000000000000e+00,5.200000000000000000e+01,7.259000000000000000e+03,2.895090579986572266e-01,1.848642826080322266e+00,5.660809371626224218e-01,0.000000000000000000e+00,1.110000000000000000e+02
0.000000000000000000e+00,1.000000000000000000e+00,0.000000000000000000e+00,5.600000000000000000e+01,7.315000000000000000e+03,3.384001255035400391e-01,1.969504117965698242e+00,6.355572371760197514e-01,0.000000000000000000e+00,1.110000000000000000e+02
0.000000000000000000e+00,1.000000000000000000e+00,0.000000000000000000e+00,5.100000000000000000e+01,7.366000000000000000e+03,3.688158988952636719e-01,1.873491048812866211e+00,5.092349008463967763e-01,0.000000000000000000e+00,1.110000000000000000e+02
1.000000000000000000e+00,1.000000000000000000e+00,1.000000000000000000e+00,5.100000000000000000e+01,7.417000000000000000e+03,3.534028530120849609e-01,1.871237993240356445e+00,5.304890545497500387e-01,0.000000000000000000e+00,1.110000000000000000e+02
0.000000000000000000e+00,1.000000000000000000e+00,0.000000000000000000e+00,5.200000000000000000e+01,7.469000000000000000e+03,3.686299324035644531e-01,1.764976978302001953e+00,4.123476181845392441e-01,0.000000000000000000e+00,1.110000000000000000e+02
1.000000000000000000e+00,1.000000000000000000e+00,1.000000000000000000e+00,5.200000000000000000e+01,7.521000000000000000e+03,3.711011409759521484e-01,1.986691951751708984e+00,6.322226391587204564e-01,0.000000000000000000e+00,1.110000000000000000e+02
1.000000000000000000e+00,1.000000000000000000e+00,1.000000000000000000e+00,5.100000000000000000e+01,7.572000000000000000e+03,3.691840171813964844e-01,1.662228107452392578e+00,2.948550188976910014e-01,0.000000000000000000e+00,1.110000000000000000e+02
1.000000000000000000e+00,1.000000000000000000e+00,1.000000000000000000e+00,5.300000000000000000e+01,7.625000000000000000e+03,4.142420291900634766e-01,2.052795886993408203e+00,6.473549022488429561e-01,0.000000000000000000e+00,1.110000000000000000e+02
0.000000000000000000e+00,1.000000000000000000e+00,0.000000000000000000e+00,5.200000000000000000e+01,7.677000000000000000e+03,2.823569774627685547e-01,2.007830858230590820e+00,7.384925498819192580e-01,0.000000000000000000e+00,1.110000000000000000e+02
0.000000000000000000e+00,1.000000000000000000e+00,0.000000000000000000e+00,5.300000000000000000e+01,7.730000000000000000e+03,2.627308368682861328e-01,1.903421163558959961e+00,6.420750292052502806e-01,0.000000000000000000e+00,1.110000000000000000e+02
1.000000000000000000e+00,1.000000000000000000e+00,1.000000000000000000e+00,5.100000000000000000e+01,7.781000000000000000e+03,3.257789611816406250e-01,1.831768989562988281e+00,5.240382640933963776e-01,0.000000000000000000e+00,1.110000000000000000e+02
0.000000000000000000e+00,1.000000000000000000e+00,0.000000000000000000e+00,5.000000000000000000e+01,7.831000000000000000e+03,3.035111427307128906e-01,1.631985902786254883e+00,3.395989471339529997e-01,0.000000000000000000e+00,1.110000000000000000e+02
1.000000000000000000e+00,1.000000000000000000e+00,1.000000000000000000e+00,5.500000000000000000e+01,7.886000000000000000e+03,4.001748561859130859e-01,1.746285915374755859e+00,3.525906570297239750e-01,0.000000000000000000e+00,1.110000000000000000e+02
0.000000000000000000e+00,1.000000000000000000e+00,0.000000000000000000e+00,5.100000000000000000e+01,7.937000000000000000e+03,4.813120365142822266e-01,2.175266027450561523e+00,6.942533908305659196e-01,0.000000000000000000e+00,1.110000000000000000e+02
0.000000000000000000e+00,0.000000000000000000e+00,1.000000000000000000e+00,4.800000000000000000e+01,7.985000000000000000e+03,2.549800872802734375e-01,1.882682085037231445e+00,6.437219445610065094e-01,0.000000000000000000e+00,1.110000000000000000e+02
1.000000000000000000e+00,0.000000000000000000e+00,0.000000000000000000e+00,4.900000000000000000e+01,8.034000000000000000e+03,3.214941024780273438e-01,1.973603963851928711e+00,6.673709641105100010e-01,0.000000000000000000e+00,1.110000000000000000e+02
1.000000000000000000e+00,1.000000000000000000e+00,1.000000000000000000e+00,5.300000000000000000e+01,8.087000000000000000e+03,3.261821269989013672e-01,1.568365097045898438e+00,2.528893527877432712e-01,0.000000000000000000e+00,1.110000000000000000e+02
0.000000000000000000e+00,1.000000000000000000e+00,0.000000000000000000e+00,5.600000000000000000e+01,8.143000000000000000e+03,4.905261993408203125e-01,1.740752935409545898e+00,2.603604143405433557e-01,0.000000000000000000e+00,1.110000000000000000e+02
0.000000000000000000e+00,0.000000000000000000e+00,1.000000000000000000e+00,4.700000000000000000e+01,8.190000000000000000e+03,4.552412033081054688e-01,1.823405027389526367e+00,3.837092350457794176e-01,0.000000000000000000e+00,1.110000000000000000e+02
0.000000000000000000e+00,1.000000000000000000e+00,0.000000000000000000e+00,5.600000000000000000e+01,8.246000000000000000e+03,4.249889850616455078e-01,1.682187080383300781e+00,2.660627027322203242e-01,1.000000000000000000e+00,1.120000000000000000e+02
1.000000000000000000e+00,1.000000000000000000e+00,1.000000000000000000e+00,5.700000000000000000e+01,8.303000000000000000e+03,3.908269405364990234e-01,1.877296924591064453e+00,4.931772593819927497e-01,0.000000000000000000e+00,1.120000000000000000e+02
0.000000000000000000e+00,1.000000000000000000e+00,0.000000000000000000e+00,5.400000000000000000e+01,8.357000000000000000e+03,3.771421909332275391e-01,1.921481847763061523e+00,5.479984654250452669e-01,0.000000000000000000e+00,1.120000000000000000e+02
1.000000000000000000e+00,1.000000000000000000e+00,1.000000000000000000e+00,6.400000000000000000e+01,8.421000000000000000e+03,2.334740161895751953e-01,1.815034151077270508e+00,5.963850868328717247e-01,0.000000000000000000e+00,1.120000000000000000e+02
0.000000000000000000e+00,1.000000000000000000e+00,0.000000000000000000e+00,5.900000000000000000e+01,8.480000000000000000e+03,2.318968772888183594e-01,1.617442846298217773e+00,3.974114254158563897e-01,0.000000000000000000e+00,1.120000000000000000e+02
1.000000000000000000e+00,1.000000000000000000e+00,1.000000000000000000e+00,5.900000000000000000e+01,8.539000000000000000e+03,3.783497810363769531e-01,1.879913091659545898e+00,5.106094697893756029e-01,0.000000000000000000e+00,1.120000000000000000e+02
0.000000000000000000e+00,1.000000000000000000e+00,0.000000000000000000e+00,5.700000000000000000e+01,8.596000000000000000e+03,3.510251045227050781e-01,1.695277929306030273e+00,3.561233164474588708e-01,0.000000000000000000e+00,1.120000000000000000e+02
0.000000000000000000e+00,1.000000000000000000e+00,0.000000000000000000e+00,5.500000000000000000e+01,8.651000000000000000e+03,4.891219139099121094e-01,2.066605091094970703e+00,5.892192120861420301e-01,0.000000000000000000e+00,1.120000000000000000e+02
0.000000000000000000e+00,1.000000000000000000e+00,0.000000000000000000e+00,5.600000000000000000e+01,8.707000000000000000e+03,3.855109214782714844e-01,1.797986984252929688e+00,4.207553498820459370e-01,0.000000000000000000e+00,1.120000000000000000e+02
1.000000000000000000e+00,1.000000000000000000e+00,1.000000000000000000e+00,6.000000000000000000e+01,8.767000000000000000e+03,3.885309696197509766e-01,1.874017953872680664e+00,4.947740978579970306e-01,0.000000000000000000e+00,1.120000000000000000e+02
0.000000000000000000e+00,1.000000000000000000e+00,0.000000000000000000e+00,5.200000000000000000e+01,8.819000000000000000e+03,3.709430694580078125e-01,1.752125978469848633e+00,3.970610146224318737e-01,0.000000000000000000e+00,1.120000000000000000e+02
0.000000000000000000e+00,1.000000000000000000e+00,0.000000000000000000e+00,5.600000000000000000e+01,8.875000000000000000e+03,6.230340003967285156e-01,1.915276050567626953e+00,3.124612345024648796e-01,0.000000000000000000e+00,1.120000000000000000e+02
0.000000000000000000e+00,1.000000000000000000e+00,0.000000000000000000e+00,5.600000000000000000e+01,8.931000000000000000e+03,4.124150276184082031e-01,1.824746131896972656e+00,4.371646791547644795e-01,0.000000000000000000e+00,1.120000000000000000e+02
1.000000000000000000e+00,1.000000000000000000e+00,1.000000000000000000e+00,6.000000000000000000e+01,8.991000000000000000e+03,3.121640682220458984e-01,1.821748971939086914e+00,5.088880726180848857e-01,0.000000000000000000e+00,1.120000000000000000e+02
0.000000000000000000e+00,1.000000000000000000e+00,0.000000000000000000e+00,5.300000000000000000e+01,9.044000000000000000e+03,3.125159740447998047e-01,2.028537988662719727e+00,7.205988032655741282e-01,0.000000000000000000e+00,1.120000000000000000e+02
0.000000000000000000e+00,1.000000000000000000e+00,0.000000000000000000e+00,5.200000000000000000e+01,9.096000000000000000e+03,3.442828655242919922e-01,1.819395065307617188e+00,4.903575156518177880e-01,0.000000000000000000e+00,1.120000000000000000e+02
1.000000000000000000e+00,1.000000000000000000e+00,1.000000000000000000e+00,5.200000000000000000e+01,9.148000000000000000e+03,4.067151546478271484e-01,2.027029991149902344e+00,6.339111236764700674e-01,0.000000000000000000e+00,1.120000000000000000e+02
0.000000000000000000e+00,1.000000000000000000e+00,0.000000000000000000e+00,5.300000000000000000e+01,9.201000000000000000e+03,3.183631896972656250e-01,1.620723009109497070e+00,3.050626425196341640e-01,0.000000000000000000e+00,1.120000000000000000e+02
1.000000000000000000e+00,1.000000000000000000e+00,1.000000000000000000e+00,5.600000000000000000e+01,9.257000000000000000e+03,6.587190628051757812e-01,2.331364154815673828e+00,6.860752654678944351e-01,0.000000000000000000e+00,1.120000000000000000e+02
0.000000000000000000e+00,1.000000000000000000e+00,0.000000000000000000e+00,5.300000000000000000e+01,9.310000000000000000e+03,2.806758880615234375e-01,1.747237920761108398e+00,4.669468717421084714e-01,0.000000000000000000e+00,1.120000000000000000e+02
1.000000000000000000e+00,1.000000000000000000e+00,1.000000000000000000e+00,5.600000000000000000e+01,9.366000000000000000e+03,5.136070251464843750e-01,2.163186073303222656e+00,6.467145878662876601e-01,0.000000000000000000e+00,1.120000000000000000e+02
1.000000000000000000e+00,1.000000000000000000e+00,1.000000000000000000e+00,5.600000000000000000e+01,9.422000000000000000e+03,3.966350555419921875e-01,1.944278001785278320e+00,5.577908207423106779e-01,0.000000000000000000e+00,1.120000000000000000e+02
0.000000000000000000e+00,1.000000000000000000e+00,0.000000000000000000e+00,6.000000000000000000e+01,9.482000000000000000e+03,5.497939586639404297e-01,2.059638023376464844e+00,5.175267140690427148e-01,0.000000000000000000e+00,1.120000000000000000e+02
0.000000000000000000e+00,1.000000000000000000e+00,0.000000000000000000e+00,5.900000000000000000e+01,9.541000000000000000e+03,5.241730213165283203e-01,1.804402112960815430e+00,2.889212644218062120e-01,0.000000000000000000e+00,1.120000000000000000e+02
0.000000000000000000e+00,1.000000000000000000e+00,0.000000000000000000e+00,5.400000000000000000e+01,9.595000000000000000e+03,6.772229671478271484e-01,2.039152860641479492e+00,3.614110536813621155e-01,0.000000000000000000e+00,1.120000000000000000e+02
0.000000000000000000e+00,1.000000000000000000e+00,0.000000000000000000e+00,5.900000000000000000e+01,9.654000000000000000e+03,7.160079479217529297e-01,2.153884172439575195e+00,4.486447614613305879e-01,0.000000000000000000e+00,1.120000000000000000e+02
1.000000000000000000e+00,1.000000000000000000e+00,1.000000000000000000e+00,5.500000000000000000e+01,9.709000000000000000e+03,3.761789798736572266e-01,1.683254957199096680e+00,3.320819998076842694e-01,0.000000000000000000e+00,1.120000000000000000e+02
1.000000000000000000e+00,1.000000000000000000e+00,1.000000000000000000e+00,5.700000000000000000e+01,9.766000000000000000e+03,4.188070297241210938e-01,1.852962970733642578e+00,4.516311126600904280e-01,0.000000000000000000e+00,1.120000000000000000e+02
1.000000000000000000e+00,1.000000000000000000e+00,1.000000000000000000e+00,5.900000000000000000e+01,9.825000000000000000e+03,4.649369716644287109e-01,1.730015039443969727e+00,2.652028877756794079e-01,0.000000000000000000e+00,1.120000000000000000e+02
1.000000000000000000e+00,1.000000000000000000e+00,1.000000000000000000e+00,5.600000000000000000e+01,9.881000000000000000e+03,4.495058059692382812e-01,1.713603973388671875e+00,2.788611742690303430e-01,0.000000000000000000e+00,1.120000000000000000e+02
1.000000000000000000e+00,1.000000000000000000e+00,1.000000000000000000e+00,6.000000000000000000e+01,9.941000000000000000e+03,4.288420677185058594e-01,1.821021080017089844e+00,3.997964036206302918e-01,0.000000000000000000e+00,1.120000000000000000e+02
1.000000000000000000e+00,1.000000000000000000e+00,1.000000000000000000e+00,6.100000000000000000e+01,1.000200000000000000e+04,3.796379566192626953e-01,1.973006010055541992e+00,5.893500819379400291e-01,0.000000000000000000e+00,1.120000000000000000e+02
1.000000000000000000e+00,0.000000000000000000e+00,0.000000000000000000e+00,4.000000000000000000e+01,1.004200000000000000e+04,3.331918716430664062e-01,1.944517135620117188e+00,6.172472505051781466e-01,1.000000000000000000e+00,1.110000000000000000e+02
1.000000000000000000e+00,1.000000000000000000e+00,1.000000000000000000e+00,5.600000000000000000e+01,1.009800000000000000e+04,2.171490192413330078e-01,1.636148929595947266e+00,4.203003631983871502e-01,0.000000000000000000e+00,1.110000000000000000e+02
1.000000000000000000e+00,1.000000000000000000e+00,1.000000000000000000e+00,5.400000000000000000e+01,1.015200000000000000e+04,3.528938293457031250e-01,1.688941955566406250e+00,3.427059183567755518e-01,0.000000000000000000e+00,1.110000000000000000e+02
1.000000000000000000e+00,1.000000000000000000e+00,1.000000000000000000e+00,6.000000000000000000e+01,1.021200000000000000e+04,3.616130352020263672e-01,1.672950029373168945e+00,3.157717750031601156e-01,0.000000000000000000e+00,1.110000000000000000e+02
0.000000000000000000e+00,1.000000000000000000e+00,0.000000000000000000e+00,5.500000000000000000e+01,1.026700000000000000e+04,4.373159408569335938e-01,1.821540117263793945e+00,3.872994043070872028e-01,0.000000000000000000e+00,1.110000000000000000e+02
1.000000000000000000e+00,1.000000000000000000e+00,1.000000000000000000e+00,6.100000000000000000e+01,1.032800000000000000e+04,3.497679233551025391e-01,1.668189048767089844e+00,3.222643015797280741e-01,0.000000000000000000e+00,1.110000000000000000e+02
0.000000000000000000e+00,1.000000000000000000e+00,0.000000000000000000e+00,5.300000000000000000e+01,1.038100000000000000e+04,3.250889778137207031e-01,1.699107885360717773e+00,3.880582811717981362e-01,0.000000000000000000e+00,1.110000000000000000e+02
0.000000000000000000e+00,1.000000000000000000e+00,0.000000000000000000e+00,5.400000000000000000e+01,1.043500000000000000e+04,3.611779212951660156e-01,1.955418109893798828e+00,5.933183991267043655e-01,0.000000000000000000e+00,1.110000000000000000e+02
1.000000000000000000e+00,1.000000000000000000e+00,1.000000000000000000e+00,5.900000000000000000e+01,1.049400000000000000e+04,2.902131080627441406e-01,1.861287117004394531e+00,5.880326746259996185e-01,0.000000000000000000e+00,1.110000000000000000e+02
0.000000000000000000e+00,1.000000000000000000e+00,0.000000000000000000e+00,5.400000000000000000e+01,1.054800000000000000e+04,3.455069065093994141e-01,1.806290864944458008e+00,4.611637247151595953e-01,0.000000000000000000e+00,1.110000000000000000e+02
1.000000000000000000e+00,1.000000000000000000e+00,1.000000000000000000e+00,6.300000000000000000e+01,1.061100000000000000e+04,3.726501464843750000e-01,1.856467962265014648e+00,5.009877554774408992e-01,0.000000000000000000e+00,1.110000000000000000e+02
1.000000000000000000e+00,1.000000000000000000e+00,1.000000000000000000e+00,6.100000000000000000e+01,1.067200000000000000e+04,3.450040817260742188e-01,1.688096046447753906e+00,3.393276095555659011e-01,0.000000000000000000e+00,1.110000000000000000e+02
1.000000000000000000e+00,1.000000000000000000e+00,1.000000000000000000e+00,5.600000000000000000e+01,1.072800000000000000e+04,4.047079086303710938e-01,2.127277851104736328e+00,7.329066087279116903e-01,0.000000000000000000e+00,1.110000000000000000e+02
0.000000000000000000e+00,1.000000000000000000e+00,0.000000000000000000e+00,5.600000000000000000e+01,1.078400000000000000e+04,1.665410995483398438e-01,1.466835021972656250e+00,3.002577758668127372e-01,0.000000000000000000e+00,1.110000000000000000e+02
0.000000000000000000e+00,1.000000000000000000e+00,0.000000000000000000e+00,5.600000000000000000e+01,1.084000000000000000e+04,3.939599990844726562e-01,1.670536994934082031e+00,2.875136737520964658e-01,0.000000000000000000e+00,1.110000000000000000e+02
1.000000000000000000e+00,1.000000000000000000e+00,1.000000000000000000e+00,5.600000000000000000e+01,1.089600000000000000e+04,4.322948455810546875e-01,1.947305202484130859e+00,5.179658329751951618e-01,0.000000000000000000e+00,1.110000000000000000e+02
1.000000000000000000e+00,1.000000000000000000e+00,1.000000000000000000e+00,6.000000000000000000e+01,1.095600000000000000e+04,3.532669544219970703e-01,1.686036825180053711e+00,3.375859192632798544e-01,0.000000000000000000e+00,1.110000000000000000e+02
1.000000000000000000e+00,1.000000000000000000e+00,1.000000000000000000e+00,6.000000000000000000e+01,1.101600000000000000e+04,4.240009784698486328e-01,1.977361917495727539e+00,5.647810439839937580e-01,0.000000000000000000e+00,1.110000000000000000e+02
1.000000000000000000e+00,1.000000000000000000e+00,1.000000000000000000e+00,5.900000000000000000e+01,1.107500000000000000e+04,3.525149822235107422e-01,1.780373096466064453e+00,4.453719706839454062e-01,0.000000000000000000e+00,1.110000000000000000e+02
0.000000000000000000e+00,1.000000000000000000e+00,0.000000000000000000e+00,6.100000000000000000e+01,1.113600000000000000e+04,3.751840591430664062e-01,1.971785068511962891e+00,6.170377423811352902e-01,0.000000000000000000e+00,1.110000000000000000e+02
0.000000000000000000e+00,1.000000000000000000e+00,0.000000000000000000e+00,5.400000000000000000e+01,1.119000000000000000e+04,3.169589042663574219e-01,1.665497064590454102e+00,3.495112251278889026e-01,0.000000000000000000e+00,1.110000000000000000e+02
0.000000000000000000e+00,1.000000000000000000e+00,0.000000000000000000e+00,6.200000000000000000e+01,1.125200000000000000e+04,4.623229503631591797e-01,1.872689008712768555e+00,4.055741498666909362e-01,0.000000000000000000e+00,1.110000000000000000e+02
1.000000000000000000e+00,1.000000000000000000e+00,1.000000000000000000e+00,5.600000000000000000e+01,1.130800000000000000e+04,3.938200473785400391e-01,1.737295866012573242e+00,3.430075548901990734e-01,0.000000000000000000e+00,1.110000000000000000e+02
0.000000000000000000e+00,1.000000000000000000e+00,0.000000000000000000e+00,5.600000000000000000e+01,1.136400000000000000e+04,3.855888843536376953e-01,1.966979980468750000e+00,5.931120366796476251e-01,0.000000000000000000e+00,1.110000000000000000e+02
0.000000000000000000e+00,1.000000000000000000e+00,0.000000000000000000e+00,5.600000000000000000e+01,1.142000000000000000e+04,3.099691867828369141e-01,1.938935041427612305e+00,6.487268649843304091e-01,0.000000000000000000e+00,1.110000000000000000e+02
0.000000000000000000e+00,1.000000000000000000e+00,0.000000000000000000e+00,0.000000000000000000e+00,1.142000000000000000e+04,1.138115167617797852e+00,2.523380994796752930e+00,3.558423671401778621e-01,-1.000000000000000000e+00,1.110000000000000000e+02
0.000000000000000000e+00,1.000000000000000000e+00,0.000000000000000000e+00,5.500000000000000000e+01,1.147500000000000000e+04,2.894568443298339844e-01,1.676000118255615234e+00,3.985142760751652080e-01,0.000000000000000000e+00,1.110000000000000000e+02
1.000000000000000000e+00,1.000000000000000000e+00,1.000000000000000000e+00,5.600000000000000000e+01,1.153100000000000000e+04,4.078330993652343750e-01,1.940537929534912109e+00,5.556069187828653888e-01,0.000000000000000000e+00,1.110000000000000000e+02
0.000000000000000000e+00,1.000000000000000000e+00,0.000000000000000000e+00,6.200000000000000000e+01,1.159300000000000000e+04,3.088939189910888672e-01,1.728905200958251953e+00,4.347219982318545339e-01,0.000000000000000000e+00,1.110000000000000000e+02
1.000000000000000000e+00,1.000000000000000000e+00,1.000000000000000000e+00,5.300000000000000000e+01,1.164600000000000000e+04,3.466789722442626953e-01,1.693075895309448242e+00,3.446164189992618754e-01,0.000000000000000000e+00,1.110000000000000000e+02
0.000000000000000000e+00,1.000000000000000000e+00,0.000000000000000000e+00,5.500000000000000000e+01,1.170100000000000000e+04,3.983511924743652344e-01,1.777259111404418945e+00,3.885622897458810843e-01,0.000000000000000000e+00,1.110000000000000000e+02
1.000000000000000000e+00,1.000000000000000000e+00,1.000000000000000000e+00,5.700000000000000000e+01,1.175800000000000000e+04,2.870059013366699219e-01,1.787549972534179688e+00,5.093621474677751948e-01,0.000000000000000000e+00,1.110000000000000000e+02
1.000000000000000000e+00,1.000000000000000000e+00,1.000000000000000000e+00,6.000000000000000000e+01,1.181800000000000000e+04,3.718049526214599609e-01,1.895613908767700195e+00,5.383490408305666719e-01,0.000000000000000000e+00,1.110000000000000000e+02
1.000000000000000000e+00,1.000000000000000000e+00,1.000000000000000000e+00,6.400000000000000000e+01,1.188200000000000000e+04,3.548679351806640625e-01,1.903196096420288086e+00,5.582501548908643807e-01,0.000000000000000000e+00,1.110000000000000000e+02
0.000000000000000000e+00,1.000000000000000000e+00,0.000000000000000000e+00,5.900000000000000000e+01,1.194100000000000000e+04,3.119351863861083984e-01,1.769711017608642578e+00,4.614456439792061215e-01,0.000000000000000000e+00,1.110000000000000000e+02
1.000000000000000000e+00,1.000000000000000000e+00,1.000000000000000000e+00,5.600000000000000000e+01,1.199700000000000000e+04,4.163141250610351562e-01,1.769783020019531250e+00,3.647320319713615588e-01,0.000000000000000000e+00,1.110000000000000000e+02
0.000000000000000000e+00,1.000000000000000000e+00,0.000000000000000000e+00,5.600000000000000000e+01,1.205300000000000000e+04,4.225959777832031250e-01,1.933816909790039062e+00,5.317504896167721817e-01,0.000000000000000000e+00,1.110000000000000000e+02
1.000000000000000000e+00,1.000000000000000000e+00,1.000000000000000000e+00,5.700000000000000000e+01,1.211000000000000000e+04,3.433468341827392578e-01,1.820381164550781250e+00,5.022365107344048951e-01,0.000000000000000000e+00,1.110000000000000000e+02
0.000000000000000000e+00,0.000000000000000000e+00,1.000000000000000000e+00,4.000000000000000000e+01,1.215000000000000000e+04,4.200859069824218750e-01,2.016355037689208984e+00,6.018814897577042800e-01,1.000000000000000000e+00,1.120000000000000000e+02
0.000000000000000000e+00,0.000000000000000000e+00,1.000000000000000000e+00,3.400000000000000000e+01,1.218400000000000000e+04,4.414980411529541016e-01,2.160622835159301758e+00,7.291066978628250039e-01,0.000000000000000000e+00,1.120000000000000000e+02
0.000000000000000000e+00,0.000000000000000000e+00,1.000000000000000000e+00,3.900000000000000000e+01,1.222300000000000000e+04,4.136779308319091797e-01,1.909430980682373047e+00,5.055127640091892083e-01,0.000000000000000000e+00,1.120000000000000000e+02
1.000000000000000000e+00,0.000000000000000000e+00,0.000000000000000000e+00,3.800000000000000000e+01,1.226100000000000000e+04,7.161090373992919922e-01,2.351908922195434570e+00,6.406846524381073493e-01,0.000000000000000000e+00,1.120000000000000000e+02
0.000000000000000000e+00,0.000000000000000000e+00,1.000000000000000000e+00,4.000000000000000000e+01,1.230100000000000000e+04,5.351450443267822266e-01,2.060930013656616211e+00,5.351420157360586849e-01,0.000000000000000000e+00,1.120000000000000000e+02
0.000000000000000000e+00,0.000000000000000000e+00,1.000000000000000000e+00,4.500000000000000000e+01,1.234600000000000000e+04,3.645479679107666016e-01,2.091694116592407227e+00,7.267002661007925246e-01,0.000000000000000000e+00,1.120000000000000000e+02
1.000000000000000000e+00,0.000000000000000000e+00,0.000000000000000000e+00,4.300000000000000000e+01,1.238900000000000000e+04,3.262031078338623047e-01,1.673802852630615234e+00,3.675938580544812484e-01,0.000000000000000000e+00,1.120000000000000000e+02
0.000000000000000000e+00,1.000000000000000000e+00,0.000000000000000000e+00,6.300000000000000000e+01,1.245200000000000000e+04,4.068701267242431641e-01,2.075859069824218750e+00,6.765527308695792330e-01,0.000000000000000000e+00,1.120000000000000000e+02
1.000000000000000000e+00,1.000000000000000000e+00,1.000000000000000000e+00,6.300000000000000000e+01,1.251500000000000000e+04,3.804099559783935547e-01,2.109663009643554688e+00,7.361980702972805712e-01,0.000000000000000000e+00,1.120000000000000000e+02
1.000000000000000000e+00,1.000000000000000000e+00,1.000000000000000000e+00,5.700000000000000000e+01,1.257200000000000000e+04,4.047999382019042969e-01,1.884099006652832031e+00,4.873079196920934719e-01,0.000000000000000000e+00,1.120000000000000000e+02
0.000000000000000000e+00,1.000000000000000000e+00,0.000000000000000000e+00,5.400000000000000000e+01,1.262600000000000000e+04,3.944709300994873047e-01,2.011871814727783203e+00,6.159295217429525682e-01,0.000000000000000000e+00,1.120000000000000000e+02
1.000000000000000000e+00,1.000000000000000000e+00,1.000000000000000000e+00,6.400000000000000000e+01,1.269000000000000000e+04,3.378739356994628906e-01,1.946177005767822266e+00,6.120368402178301137e-01,0.000000000000000000e+00,1.120000000000000000e+02
0.000000000000000000e+00,1.000000000000000000e+00,0.000000000000000000e+00,6.000000000000000000e+01,1.275000000000000000e+04,3.155190944671630859e-01,1.995612144470214844e+00,6.909633185138330802e-01,0.000000000000000000e+00,1.120000000000000000e+02
1.000000000000000000e+00,1.000000000000000000e+00,1.000000000000000000e+00,5.700000000000000000e+01,1.280700000000000000e+04,3.056578636169433594e-01,2.033634901046752930e+00,7.412468653837509525e-01,0.000000000000000000e+00,1.120000000000000000e+02
0.000000000000000000e+00,1.000000000000000000e+00,0.000000000000000000e+00,5.400000000000000000e+01,1.286100000000000000e+04,3.154470920562744141e-01,1.592808008193969727e+00,2.846034894899681644e-01,0.000000000000000000e+00,1.120000000000000000e+02
0.000000000000000000e+00,1.000000000000000000e+00,0.000000000000000000e+00,5.900000000000000000e+01,1.292000000000000000e+04,4.794521331787109375e-01,1.763037919998168945e+00,2.810508915574591038e-01,0.000000000000000000e+00,1.120000000000000000e+02
1.000000000000000000e+00,1.000000000000000000e+00,1.000000000000000000e+00,6.000000000000000000e+01,1.298000000000000000e+04,3.855278491973876953e-01,1.856117010116577148e+00,4.870187233184173348e-01,0.000000000000000000e+00,1.120000000000000000e+02
1.000000000000000000e+00,1.000000000000000000e+00,1.000000000000000000e+00,5.700000000000000000e+01,1.303700000000000000e+04,3.869831562042236328e-01,1.992826938629150391e+00,6.130920124993068931e-01,0.000000000000000000e+00,1.120000000000000000e+02
1.000000000000000000e+00,1.000000000000000000e+00,1.000000000000000000e+00,6.200000000000000000e+01,1.309900000000000000e+04,3.887507915496826172e-01,1.919816970825195312e+00,5.497029029005513490e-01,0.000000000000000000e+00,1.120000000000000000e+02
1.000000000000000000e+00,1.000000000000000000e+00,1.000000000000000000e+00,6.000000000000000000e+01,1.315900000000000000e+04,3.313851356506347656e-01,1.710960865020751953e+00,3.775760042725058718e-01,0.000000000000000000e+00,1.120000000000000000e+02
1.000000000000000000e+00,1.000000000000000000e+00,1.000000000000000000e+00,5.900000000000000000e+01,1.321800000000000000e+04,4.314830303192138672e-01,2.040575027465820312e+00,6.179672600206662647e-01,0.000000000000000000e+00,1.120000000000000000e+02
1.000000000000000000e+00,1.000000000000000000e+00,1.000000000000000000e+00,5.500000000000000000e+01,1.327300000000000000e+04,3.626210689544677734e-01,2.089737176895141602e+00,7.243488742679791148e-01,0.000000000000000000e+00,1.120000000000000000e+02
1.000000000000000000e+00,1.000000000000000000e+00,1.000000000000000000e+00,6.200000000000000000e+01,1.333500000000000000e+04,3.213069438934326172e-01,1.738196849822998047e+00,4.295819087130972602e-01,0.000000000000000000e+00,1.120000000000000000e+02
1.000000000000000000e+00,1.000000000000000000e+00,1.000000000000000000e+00,5.700000000000000000e+01,1.339200000000000000e+04,4.260768890380859375e-01,1.749691009521484375e+00,3.460548324951991939e-01,0.000000000000000000e+00,1.120000000000000000e+02
1.000000000000000000e+00,1.000000000000000000e+00,1.000000000000000000e+00,6.000000000000000000e+01,1.345200000000000000e+04,3.842859268188476562e-01,1.630851030349731445e+00,2.604130830358663551e-01,0.000000000000000000e+00,1.120000000000000000e+02
0.000000000000000000e+00,1.000000000000000000e+00,0.000000000000000000e+00,5.600000000000000000e+01,1.350800000000000000e+04,4.937908649444580078e-01,1.865411043167114258e+00,3.924322931582059359e-01,0.000000000000000000e+00,1.120000000000000000e+02
0.000000000000000000e+00,1.000000000000000000e+00,0.000000000000000000e+00,6.100000000000000000e+01,1.356900000000000000e+04,3.442158699035644531e-01,1.839945077896118164e+00,5.155989373644347395e-01,0.000000000000000000e+00,1.120000000000000000e+02
1.000000000000000000e+00,1.000000000000000000e+00,1.000000000000000000e+00,6.200000000000000000e+01,1.363100000000000000e+04,4.013040065765380859e-01,1.687005996704101562e+00,2.862618027856256853e-01,0.000000000000000000e+00,1.120000000000000000e+02
0.000000000000000000e+00,1.000000000000000000e+00,0.000000000000000000e+00,5.900000000000000000e+01,1.369000000000000000e+04,8.400630950927734375e-01,2.112281084060668945e+00,2.819529267192812938e-01,0.000000000000000000e+00,1.120000000000000000e+02
1.000000000000000000e+00,1.000000000000000000e+00,1.000000000000000000e+00,6.200000000000000000e+01,1.375200000000000000e+04,3.560209274291992188e-01,1.688295125961303711e+00,3.535638484173794227e-01,0.000000000000000000e+00,1.120000000000000000e+02
0.000000000000000000e+00,1.000000000000000000e+00,0.000000000000000000e+00,6.000000000000000000e+01,1.381200000000000000e+04,3.531792163848876953e-01,2.039651870727539062e+00,6.929341865661020616e-01,0.000000000000000000e+00,1.120000000000000000e+02
0.000000000000000000e+00,1.000000000000000000e+00,0.000000000000000000e+00,5.400000000000000000e+01,1.386600000000000000e+04,2.978870868682861328e-01,1.996307134628295898e+00,7.059598127053121619e-01,0.000000000000000000e+00,1.120000000000000000e+02
0.000000000000000000e+00,0.000000000000000000e+00,1.000000000000000000e+00,3.500000000000000000e+01,1.390100000000000000e+04,2.999250888824462891e-01,1.937644958496093750e+00,6.437408809386149233e-01,1.000000000000000000e+00,1.110000000000000000e+02
0.000000000000000000e+00,1.000000000000000000e+00,0.000000000000000000e+00,6.400000000000000000e+01,1.396500000000000000e+04,2.956671714782714844e-01,1.633806943893432617e+00,3.445670171177303009e-01,0.000000000000000000e+00,1.110000000000000000e+02
1.000000000000000000e+00,1.000000000000000000e+00,1.000000000000000000e+00,6.100000000000000000e+01,1.402600000000000000e+04,3.423960208892822266e-01,1.704429149627685547e+00,3.823530397700559691e-01,0.000000000000000000e+00,1.110000000000000000e+02
0.000000000000000000e+00,1.000000000000000000e+00,0.000000000000000000e+00,6.100000000000000000e+01,1.408700000000000000e+04,3.028030395507812500e-01,1.831292867660522461e+00,5.301989591662461532e-01,0.000000000000000000e+00,1.110000000000000000e+02
0.000000000000000000e+00,1.000000000000000000e+00,0.000000000000000000e+00,6.400000000000000000e+01,1.415100000000000000e+04,3.321850299835205078e-01,1.776684999465942383e+00,4.570366734623319549e-01,0.000000000000000000e+00,1.110000000000000000e+02
0.000000000000000000e+00,1.000000000000000000e+00,0.000000000000000000e+00,5.600000000000000000e+01,1.420700000000000000e+04,4.319100379943847656e-01,2.038252830505371094e+00,6.118781637164087961e-01,0.000000000000000000e+00,1.110000000000000000e+02
1.000000000000000000e+00,1.000000000000000000e+00,1.000000000000000000e+00,6.500000000000000000e+01,1.427200000000000000e+04,3.496780395507812500e-01,1.881392002105712891e+00,5.434290938635983892e-01,0.000000000000000000e+00,1.110000000000000000e+02
0.000000000000000000e+00,1.000000000000000000e+00,0.000000000000000000e+00,5.300000000000000000e+01,1.432500000000000000e+04,3.144149780273437500e-01,1.754646062850952148e+00,4.482103891513379290e-01,0.000000000000000000e+00,1.110000000000000000e+02
1.000000000000000000e+00,1.000000000000000000e+00,1.000000000000000000e+00,5.700000000000000000e+01,1.438200000000000000e+04,4.794130325317382812e-01,2.072139024734497070e+00,6.035504195128051919e-01,0.000000000000000000e+00,1.110000000000000000e+02
0.000000000000000000e+00,1.000000000000000000e+00,0.000000000000000000e+00,5.900000000000000000e+01,1.444100000000000000e+04,2.142059803009033203e-01,1.642926931381225586e+00,4.300734367252172508e-01,0.000000000000000000e+00,1.110000000000000000e+02
1.000000000000000000e+00,1.000000000000000000e+00,1.000000000000000000e+00,6.400000000000000000e+01,1.450500000000000000e+04,2.879760265350341797e-01,1.709020137786865234e+00,4.391537865395968021e-01,0.000000000000000000e+00,1.110000000000000000e+02
0.000000000000000000e+00,1.000000000000000000e+00,0.000000000000000000e+00,6.000000000000000000e+01,1.456500000000000000e+04,2.883319854736328125e-01,1.813155889511108398e+00,5.356080372483065233e-01,0.000000000000000000e+00,1.110000000000000000e+02
0.000000000000000000e+00,1.000000000000000000e+00,0.000000000000000000e+00,6.300000000000000000e+01,1.462800000000000000e+04,3.036789894104003906e-01,1.965570211410522461e+00,6.677313406949754171e-01,0.000000000000000000e+00,1.110000000000000000e+02
0.000000000000000000e+00,1.000000000000000000e+00,0.000000000000000000e+00,5.900000000000000000e+01,1.468700000000000000e+04,4.530520439147949219e-01,2.050050973892211914e+00,6.012683503074844893e-01,0.000000000000000000e+00,1.110000000000000000e+02
0.000000000000000000e+00,1.000000000000000000e+00,0.000000000000000000e+00,5.900000000000000000e+01,1.474600000000000000e+04,4.421989917755126953e-01,1.707645893096923828e+00,2.760061685319294411e-01,0.000000000000000000e+00,1.110000000000000000e+02
0.000000000000000000e+00,1.000000000000000000e+00,0.000000000000000000e+00,6.000000000000000000e+01,1.480600000000000000e+04,5.442230701446533203e-01,2.007955789566040039e+00,4.671625294609463852e-01,0.000000000000000000e+00,1.110000000000000000e+02
0.000000000000000000e+00,1.000000000000000000e+00,0.000000000000000000e+00,6.300000000000000000e+01,1.486900000000000000e+04,3.146529197692871094e-01,1.858862161636352539e+00,5.426960993035078173e-01,0.000000000000000000e+00,1.110000000000000000e+02
1.000000000000000000e+00,1.000000000000000000e+00,1.000000000000000000e+00,6.100000000000000000e+01,1.493000000000000000e+04,4.376981258392333984e-01,2.064547061920166016e+00,6.405022890447475969e-01,0.000000000000000000e+00,1.110000000000000000e+02
0.000000000000000000e+00,1.000000000000000000e+00,0.000000000000000000e+00,6.000000000000000000e+01,1.499000000000000000e+04,2.230830192565917969e-01,1.736066818237304688e+00,5.267782952119213213e-01,0.000000000000000000e+00,1.110000000000000000e+02
1.000000000000000000e+00,1.000000000000000000e+00,1.000000000000000000e+00,5.500000000000000000e+01,1.504500000000000000e+04,4.998309612274169922e-01,2.218783855438232422e+00,7.287318381872782691e-01,0.000000000000000000e+00,1.110000000000000000e+02
0.000000000000000000e+00,1.000000000000000000e+00,0.000000000000000000e+00,5.600000000000000000e+01,1.510100000000000000e+04,3.132200241088867188e-01,1.846235036849975586e+00,5.418922736518030359e-01,0.000000000000000000e+00,1.110000000000000000e+02
1.000000000000000000e+00,1.000000000000000000e+00,1.000000000000000000e+00,6.100000000000000000e+01,1.516200000000000000e+04,3.733708858489990234e-01,2.007802009582519531e+00,6.496537139991938048e-01,0.000000000000000000e+00,1.110000000000000000e+02
0.000000000000000000e+00,1.000000000000000000e+00,0.000000000000000000e+00,5.600000000000000000e+01,1.521800000000000000e+04,2.756998538970947266e-01,1.728888988494873047e+00,4.621869505378373710e-01,0.000000000000000000e+00,1.110000000000000000e+02
0.000000000000000000e+00,1.000000000000000000e+00,0.000000000000000000e+00,5.700000000000000000e+01,1.527500000000000000e+04,4.540829658508300781e-01,1.689874172210693359e+00,2.523018961369059010e-01,0.000000000000000000e+00,1.110000000000000000e+02
0.000000000000000000e+00,1.000000000000000000e+00,0.000000000000000000e+00,5.600000000000000000e+01,1.533100000000000000e+04,5.931458473205566406e-01,2.179507017135620117e+00,5.982089746927941043e-01,0.000000000000000000e+00,1.110000000000000000e+02
1.000000000000000000e+00,1.000000000000000000e+00,1.000000000000000000e+00,6.200000000000000000e+01,1.539300000000000000e+04,6.155669689178466797e-01,2.249606847763061523e+00,6.478097454115887555e-01,0.000000000000000000e+00,1.110000000000000000e+02
0.000000000000000000e+00,1.000000000000000000e+00,0.000000000000000000e+00,6.000000000000000000e+01,1.545300000000000000e+04,6.326699256896972656e-01,2.160576820373535156e+00,5.418948232965681289e-01,0.000000000000000000e+00,1.110000000000000000e+02
0.000000000000000000e+00,1.000000000000000000e+00,0.000000000000000000e+00,6.200000000000000000e+01,1.551500000000000000e+04,5.060579776763916016e-01,2.002981185913085938e+00,5.116549921904710585e-01,0.000000000000000000e+00,1.110000000000000000e+02
0.000000000000000000e+00,0.000000000000000000e+00,1.000000000000000000e+00,4.200000000000000000e+01,1.555700000000000000e+04,2.642028331756591797e-01,1.908041954040527344e+00,6.529512099584844353e-01,1.000000000000000000e+00,1.120000000000000000e+02
1.000000000000000000e+00,1.000000000000000000e+00,1.000000000000000000e+00,6.100000000000000000e+01,1.561800000000000000e+04,6.115329265594482422e-01,1.927329063415527344e+00,3.306787856193317277e-01,0.000000000000000000e+00,1.120000000000000000e+02
0.000000000000000000e+00,1.000000000000000000e+00,0.000000000000000000e+00,5.900000000000000000e+01,1.567700000000000000e+04,6.419188976287841797e-01,2.263346910476684570e+00,6.437939929483771362e-01,0.000000000000000000e+00,1.120000000000000000e+02
0.000000000000000000e+00,1.000000000000000000e+00,0.000000000000000000e+00,5.900000000000000000e+01,1.573600000000000000e+04,4.673290252685546875e-01,1.956058979034423828e+00,5.000615756331263650e-01,0.000000000000000000e+00,1.120000000000000000e+02
0.000000000000000000e+00,1.000000000000000000e+00,0.000000000000000000e+00,6.200000000000000000e+01,1.579800000000000000e+04,5.718209743499755859e-01,2.071331024169921875e+00,5.049401558872589346e-01,0.000000000000000000e+00,1.120000000000000000e+02
0.000000000000000000e+00,1.000000000000000000e+00,0.000000000000000000e+00,6.300000000000000000e+01,1.586100000000000000e+04,4.691460132598876953e-01,1.993333816528320312e+00,5.315012061104509300e-01,0.000000000000000000e+00,1.120000000000000000e+02
1.000000000000000000e+00,1.000000000000000000e+00,1.000000000000000000e+00,6.000000000000000000e+01,1.592100000000000000e+04,3.218820095062255859e-01,1.868923187255859375e+00,5.671215015973662954e-01,0.000000000000000000e+00,1.120000000000000000e+02
1.000000000000000000e+00,1.000000000000000000e+00,1.000000000000000000e+00,5.600000000000000000e+01,1.597700000000000000e+04,5.045979022979736328e-01,2.148144960403442383e+00,6.485927085645254442e-01,0.000000000000000000e+00,1.120000000000000000e+02
0.000000000000000000e+00,1.000000000000000000e+00,0.000000000000000000e+00,5.900000000000000000e+01,1.603600000000000000e+04,4.036970138549804688e-01,1.745074033737182617e+00,3.440218451632934826e-01,0.000000000000000000e+00,1.120000000000000000e+02
0.000000000000000000e+00,1.000000000000000000e+00,0.000000000000000000e+00,5.700000000000000000e+01,1.609300000000000000e+04,5.264511108398437500e-01,2.079082012176513672e+00,5.729654302900510920e-01,0.000000000000000000e+00,1.120000000000000000e+02
1.000000000000000000e+00,1.000000000000000000e+00,1.000000000000000000e+00,5.600000000000000000e+01,1.614900000000000000e+04,3.591749668121337891e-01,1.706748962402343750e+00,3.633070889215565535e-01,0.000000000000000000e+00,1.120000000000000000e+02
0.000000000000000000e+00,1.000000000000000000e+00,0.000000000000000000e+00,5.200000000000000000e+01,1.620100000000000000e+04,3.992519378662109375e-01,1.738253116607666016e+00,3.516509005341474370e-01,0.000000000000000000e+00,1.120000000000000000e+02
0.000000000000000000e+00,1.000000000000000000e+00,0.000000000000000000e+00,6.100000000000000000e+01,1.626200000000000000e+04,3.702738285064697266e-01,1.934520959854125977e+00,5.693123749144894941e-01,0.000000000000000000e+00,1.120000000000000000e+02
0.000000000000000000e+00,1.000000000000000000e+00,0.000000000000000000e+00,5.600000000000000000e+01,1.631800000000000000e+04,3.680310249328613281e-01,1.859646081924438477e+00,4.957488576471548725e-01,0.000000000000000000e+00,1.120000000000000000e+02
1.000000000000000000e+00,1.000000000000000000e+00,1.000000000000000000e+00,5.700000000000000000e+01,1.637500000000000000e+04,4.410920143127441406e-01,2.140750885009765625e+00,7.196670225858967651e-01,0.000000000000000000e+00,1.120000000000000000e+02
1.000000000000000000e+00,1.000000000000000000e+00,1.000000000000000000e+00,5.400000000000000000e+01,1.642900000000000000e+04,3.701920509338378906e-01,1.759266138076782227e+00,3.960320182222772933e-01,0.000000000000000000e+00,1.120000000000000000e+02
0.000000000000000000e+00,1.000000000000000000e+00,0.000000000000000000e+00,5.600000000000000000e+01,1.648500000000000000e+04,4.192180633544921875e-01,2.012948036193847656e+00,6.088068106458361939e-01,0.000000000000000000e+00,1.120000000000000000e+02
1.000000000000000000e+00,1.000000000000000000e+00,1.000000000000000000e+00,5.600000000000000000e+01,1.654100000000000000e+04,3.207190036773681641e-01,1.693856000900268555e+00,3.863086700855603017e-01,0.000000000000000000e+00,1.120000000000000000e+02
0.000000000000000000e+00,1.000000000000000000e+00,0.000000000000000000e+00,6.500000000000000000e+01,1.660600000000000000e+04,4.016990661621093750e-01,1.716440916061401367e+00,3.195507086094773186e-01,0.000000000000000000e+00,1.120000000000000000e+02
1.000000000000000000e+00,1.000000000000000000e+00,1.000000000000000000e+00,6.300000000000000000e+01,1.666900000000000000e+04,4.730541706085205078e-01,1.861745119094848633e+00,3.979258218006040404e-01,0.000000000000000000e+00,1.120000000000000000e+02
1.000000000000000000e+00,1.000000000000000000e+00,1.000000000000000000e+00,5.300000000000000000e+01,1.672200000000000000e+04,3.842601776123046875e-01,2.021240949630737305e+00,6.522845919594570940e-01,0.000000000000000000e+00,1.120000000000000000e+02
0.000000000000000000e+00,1.000000000000000000e+00,0.000000000000000000e+00,6.000000000000000000e+01,1.678200000000000000e+04,3.418569564819335938e-01,1.599797010421752930e+00,2.692373041555709556e-01,0.000000000000000000e+00,1.120000000000000000e+02
1.000000000000000000e+00,1.000000000000000000e+00,1.000000000000000000e+00,6.000000000000000000e+01,1.684200000000000000e+04,5.949218273162841797e-01,2.301510095596313477e+00,7.203320507647046345e-01,0.000000000000000000e+00,1.120000000000000000e+02
1.000000000000000000e+00,1.000000000000000000e+00,1.000000000000000000e+00,5.600000000000000000e+01,1.689800000000000000e+04,5.060510635375976562e-01,1.846193075180053711e+00,3.503551752770129868e-01,0.000000000000000000e+00,1.120000000000000000e+02
1.000000000000000000e+00,1.000000000000000000e+00,1.000000000000000000e+00,6.100000000000000000e+01,1.695900000000000000e+04,6.682059764862060547e-01,2.412455081939697266e+00,7.457622645396455585e-01,0.000000000000000000e+00,1.120000000000000000e+02
1.000000000000000000e+00,1.000000000000000000e+00,1.000000000000000000e+00,5.700000000000000000e+01,1.701600000000000000e+04,5.571899414062500000e-01,1.812703847885131836e+00,2.757314276067842074e-01,0.000000000000000000e+00,1.120000000000000000e+02
1.000000000000000000e+00,1.000000000000000000e+00,1.000000000000000000e+00,5.600000000000000000e+01,1.707200000000000000e+04,7.125918865203857422e-01,2.330924034118652344e+00,6.230612722825585870e-01,0.000000000000000000e+00,1.120000000000000000e+02
1.000000000000000000e+00,1.000000000000000000e+00,1.000000000000000000e+00,5.700000000000000000e+01,1.712900000000000000e+04,5.673608779907226562e-01,2.223706007003784180e+00,6.634241400542463252e-01,0.000000000000000000e+00,1.120000000000000000e+02
0.000000000000000000e+00,1.000000000000000000e+00,0.000000000000000000e+00,5.400000000000000000e+01,1.718300000000000000e+04,4.757380485534667969e-01,2.035923004150390625e+00,5.827970806876213716e-01,0.000000000000000000e+00,1.120000000000000000e+02
0.000000000000000000e+00,1.000000000000000000e+00,0.000000000000000000e+00,6.000000000000000000e+01,1.724300000000000000e+04,4.098410606384277344e-01,1.959409952163696289e+00,5.423824730798123550e-01,0.000000000000000000e+00,1.120000000000000000e+02
0.000000000000000000e+00,1.000000000000000000e+00,0.000000000000000000e+00,5.900000000000000000e+01,1.730200000000000000e+04,4.529440402984619141e-01,2.052817106246948242e+00,6.118123699349511391e-01,0.000000000000000000e+00,1.120000000000000000e+02
1.000000000000000000e+00,1.000000000000000000e+00,1.000000000000000000e+00,5.700000000000000000e+01,1.735900000000000000e+04,3.579480648040771484e-01,1.611100912094116211e+00,2.733505972743541790e-01,0.000000000000000000e+00,1.120000000000000000e+02
0.000000000000000000e+00,1.000000000000000000e+00,0.000000000000000000e+00,5.500000000000000000e+01,1.741400000000000000e+04,4.303729534149169922e-01,1.755327939987182617e+00,3.286708204307707826e-01,0.000000000000000000e+00,1.120000000000000000e+02
1.000000000000000000e+00,1.000000000000000000e+00,1.000000000000000000e+00,5.700000000000000000e+01,1.747100000000000000e+04,5.764710903167724609e-01,2.022812843322753906e+00,4.680952721476739353e-01,0.000000000000000000e+00,1.120000000000000000e+02
1.000000000000000000e+00,1.000000000000000000e+00,1.000000000000000000e+00,6.400000000000000000e+01,1.753500000000000000e+04,5.011410713195800781e-01,1.906319141387939453e+00,4.078663222912285446e-01,0.000000000000000000e+00,1.120000000000000000e+02
1.000000000000000000e+00,1.000000000000000000e+00,1.000000000000000000e+00,6.000000000000000000e+01,1.759500000000000000e+04,5.941832065582275391e-01,2.172405958175659180e+00,5.968125916824760235e-01,0.000000000000000000e+00,1.120000000000000000e+02
1.000000000000000000e+00,1.000000000000000000e+00,1.000000000000000000e+00,5.900000000000000000e+01,1.765400000000000000e+04,5.255331993103027344e-01,2.201341152191162109e+00,6.981412614061588418e-01,0.000000000000000000e+00,1.120000000000000000e+02
1.000000000000000000e+00,0.000000000000000000e+00,0.000000000000000000e+00,4.000000000000000000e+01,1.769400000000000000e+04,5.687010288238525391e-01,1.889492034912109375e+00,3.380484291450197576e-01,1.000000000000000000e+00,1.110000000000000000e+02
1.000000000000000000e+00,1.000000000000000000e+00,1.000000000000000000e+00,5.900000000000000000e+01,1.775300000000000000e+04,7.137689590454101562e-01,2.008846998214721680e+00,2.970117880165338287e-01,0.000000000000000000e+00,1.110000000000000000e+02
0.000000000000000000e+00,1.000000000000000000e+00,0.000000000000000000e+00,6.100000000000000000e+01,1.781400000000000000e+04,5.228102207183837891e-01,2.085021972656250000e+00,5.817961752691067634e-01,0.000000000000000000e+00,1.110000000000000000e+02
0.000000000000000000e+00,1.000000000000000000e+00,0.000000000000000000e+00,6.300000000000000000e+01,1.787700000000000000e+04,5.325410366058349609e-01,2.215349197387695312e+00,6.971115297781531606e-01,0.000000000000000000e+00,1.110000000000000000e+02
0.000000000000000000e+00,1.000000000000000000e+00,0.000000000000000000e+00,5.700000000000000000e+01,1.793400000000000000e+04,6.929891109466552734e-01,2.100261926651000977e+00,3.977407588926220039e-01,0.000000000000000000e+00,1.110000000000000000e+02
0.000000000000000000e+00,1.000000000000000000e+00,0.000000000000000000e+00,6.100000000000000000e+01,1.799500000000000000e+04,4.139330387115478516e-01,1.870117902755737305e+00,4.678504231361810262e-01,0.000000000000000000e+00,1.110000000000000000e+02
1.000000000000000000e+00,1.000000000000000000e+00,1.000000000000000000e+00,5.600000000000000000e+01,1.805100000000000000e+04,3.707799911499023438e-01,1.859613895416259766e+00,4.942000807898753179e-01,0.000000000000000000e+00,1.110000000000000000e+02
0.000000000000000000e+00,1.000000000000000000e+00,0.000000000000000000e+00,5.400000000000000000e+01,1.810500000000000000e+04,3.838479518890380859e-01,1.747927904129028320e+00,3.756052300003656641e-01,0.000000000000000000e+00,1.110000000000000000e+02
0.000000000000000000e+00,1.000000000000000000e+00,0.000000000000000000e+00,5.700000000000000000e+01,1.816200000000000000e+04,3.819260597229003906e-01,2.062035083770751953e+00,6.873688544964621228e-01,0.000000000000000000e+00,1.110000000000000000e+02
1.000000000000000000e+00,1.000000000000000000e+00,1.000000000000000000e+00,6.300000000000000000e+01,1.822500000000000000e+04,3.522408008575439453e-01,1.968425989151000977e+00,6.225844247616917349e-01,0.000000000000000000e+00,1.110000000000000000e+02
0.000000000000000000e+00,1.000000000000000000e+00,0.000000000000000000e+00,6.100000000000000000e+01,1.828600000000000000e+04,3.746929168701171875e-01,1.881697177886962891e+00,5.211420520665431821e-01,0.000000000000000000e+00,1.110000000000000000e+02
0.000000000000000000e+00,1.000000000000000000e+00,0.000000000000000000e+00,5.500000000000000000e+01,1.834100000000000000e+04,4.064059257507324219e-01,1.870944976806640625e+00,4.755449271780726184e-01,0.000000000000000000e+00,1.110000000000000000e+02
0.000000000000000000e+00,1.000000000000000000e+00,0.000000000000000000e+00,5.600000000000000000e+01,1.839700000000000000e+04,4.288051128387451172e-01,2.032217025756835938e+00,6.076961803140507046e-01,0.000000000000000000e+00,1.110000000000000000e+02
0.000000000000000000e+00,1.000000000000000000e+00,0.000000000000000000e+00,5.700000000000000000e+01,1.845400000000000000e+04,3.545401096343994141e-01,1.750586032867431641e+00,4.085552889092471385e-01,0.000000000000000000e+00,1.110000000000000000e+02
0.000000000000000000e+00,1.000000000000000000e+00,0.000000000000000000e+00,6.100000000000000000e+01,1.851500000000000000e+04,4.056210517883300781e-01,2.108298063278198242e+00,7.166223654287929845e-01,0.000000000000000000e+00,1.110000000000000000e+02
0.000000000000000000e+00,1.000000000000000000e+00,0.000000000000000000e+00,6.200000000000000000e+01,1.857700000000000000e+04,4.910459518432617188e-01,1.927902936935424805e+00,4.448351981546898593e-01,0.000000000000000000e+00,1.110000000000000000e+02
0.000000000000000000e+00,1.000000000000000000e+00,0.000000000000000000e+00,5.600000000000000000e+01,1.863300000000000000e+04,4.394190311431884766e-01,1.997739076614379883e+00,5.758966089947035183e-01,0.000000000000000000e+00,1.110000000000000000e+02
1.000000000000000000e+00,1.000000000000000000e+00,1.000000000000000000e+00,6.000000000000000000e+01,1.869300000000000000e+04,3.364970684051513672e-01,1.861814022064208984e+00,5.377537581226597974e-01,0.000000000000000000e+00,1.110000000000000000e+02
1.000000000000000000e+00,1.000000000000000000e+00,1.000000000000000000e+00,5.600000000000000000e+01,1.874900000000000000e+04,3.969128131866455078e-01,2.006891965866088867e+00,6.113388478459133024e-01,0.000000000000000000e+00,1.110000000000000000e+02
1.000000000000000000e+00,1.000000000000000000e+00,1.000000000000000000e+00,6.200000000000000000e+01,1.881100000000000000e+04,4.229419231414794922e-01,1.923742055892944336e+00,5.185693649266744920e-01,0.000000000000000000e+00,1.110000000000000000e+02
0.000000000000000000e+00,1.000000000000000000e+00,0.000000000000000000e+00,6.200000000000000000e+01,1.887300000000000000e+04,7.837190628051757812e-01,2.339890003204345703e+00,5.585077136820009169e-01,0.000000000000000000e+00,1.110000000000000000e+02
1.000000000000000000e+00,1.000000000000000000e+00,1.000000000000000000e+00,5.600000000000000000e+01,1.892900000000000000e+04,3.674259185791015625e-01,1.837679862976074219e+00,4.796427633388009593e-01,0.000000000000000000e+00,1.110000000000000000e+02
0.000000000000000000e+00,1.000000000000000000e+00,0.000000000000000000e+00,5.700000000000000000e+01,1.898600000000000000e+04,4.082581996917724609e-01,2.056236028671264648e+00,6.691081743151910954e-01,0.000000000000000000e+00,1.110000000000000000e+02
1.000000000000000000e+00,1.000000000000000000e+00,1.000000000000000000e+00,6.300000000000000000e+01,1.904900000000000000e+04,3.456029891967773438e-01,1.889377117156982422e+00,5.420029792877281150e-01,0.000000000000000000e+00,1.110000000000000000e+02
1.000000000000000000e+00,1.000000000000000000e+00,1.000000000000000000e+00,6.300000000000000000e+01,1.911200000000000000e+04,4.433190822601318359e-01,1.743535995483398438e+00,3.191840349893131923e-01,0.000000000000000000e+00,1.110000000000000000e+02
1.000000000000000000e+00,1.000000000000000000e+00,1.000000000000000000e+00,6.100000000000000000e+01,1.917300000000000000e+04,5.954079627990722656e-01,1.856310129165649414e+00,2.589310752240875924e-01,0.000000000000000000e+00,1.110000000000000000e+02
0.000000000000000000e+00,1.000000000000000000e+00,0.000000000000000000e+00,6.000000000000000000e+01,1.923300000000000000e+04,6.494548320770263672e-01,2.082794904708862305e+00,4.416362993569561968e-01,0.000000000000000000e+00,1.110000000000000000e+02
0.000000000000000000e+00,1.000000000000000000e+00,0.000000000000000000e+00,5.600000000000000000e+01,1.928900000000000000e+04,4.131758213043212891e-01,1.830101013183593750e+00,4.218005157834229801e-01,0.000000000000000000e+00,1.110000000000000000e+02
0.000000000000000000e+00,1.000000000000000000e+00,0.000000000000000000e+00,6.000000000000000000e+01,1.934900000000000000e+04,8.909339904785156250e-01,2.155311107635498047e+00,2.773492536826931976e-01,0.000000000000000000e+00,1.110000000000000000e+02
1.000000000000000000e+00,1.000000000000000000e+00,1.000000000000000000e+00,6.200000000000000000e+01,1.941100000000000000e+04,3.600389957427978516e-01,1.768844842910766602e+00,4.294161587101437694e-01,0.000000000000000000e+00,1.110000000000000000e+02
1.000000000000000000e+00,1.000000000000000000e+00,1.000000000000000000e+00,5.900000000000000000e+01,1.947000000000000000e+04,4.933929443359375000e-01,2.186221837997436523e+00,7.154088045592608136e-01,0.000000000000000000e+00,1.110000000000000000e+02
0.000000000000000000e+00,1.000000000000000000e+00,0.000000000000000000e+00,6.000000000000000000e+01,1.953000000000000000e+04,3.774809837341308594e-01,1.788840770721435547e+00,4.212655304707884074e-01,0.000000000000000000e+00,1.110000000000000000e+02
0.000000000000000000e+00,1.000000000000000000e+00,0.000000000000000000e+00,6.100000000000000000e+01,1.959100000000000000e+04,6.992101669311523438e-01,2.420442104339599609e+00,7.248379357558775160e-01,0.000000000000000000e+00,1.110000000000000000e+02
0.000000000000000000e+00,0.000000000000000000e+00,1.000000000000000000e+00,5.000000000000000000e+01,1.964100000000000000e+04,6.986041069030761719e-01,1.961838006973266602e+00,2.705661465824690248e-01,1.000000000000000000e+00,1.120000000000000000e+02
1.000000000000000000e+00,0.000000000000000000e+00,0.000000000000000000e+00,4.200000000000000000e+01,1.968300000000000000e+04,9.780580997467041016e-01,2.453593969345092773e+00,4.740002232127468185e-01,0.000000000000000000e+00,1.120000000000000000e+02
0.000000000000000000e+00,0.000000000000000000e+00,1.000000000000000000e+00,4.000000000000000000e+01,1.972300000000000000e+04,6.511211395263671875e-01,1.970521926879882812e+00,3.280951132396753289e-01,0.000000000000000000e+00,1.120000000000000000e+02
0.000000000000000000e+00,1.000000000000000000e+00,0.000000000000000000e+00,5.900000000000000000e+01,1.978200000000000000e+04,4.515089988708496094e-01,1.700196027755737305e+00,2.617456661429080622e-01,0.000000000000000000e+00,1.120000000000000000e+02
1.000000000000000000e+00,1.000000000000000000e+00,1.000000000000000000e+00,5.700000000000000000e+01,1.983900000000000000e+04,6.655728816986083984e-01,2.084419965744018555e+00,4.293716938719872589e-01,0.000000000000000000e+00,1.120000000000000000e+02
0.000000000000000000e+00,1.000000000000000000e+00,0.000000000000000000e+00,6.000000000000000000e+01,1.989900000000000000e+04,4.422848224639892578e-01,2.057986021041870117e+00,6.372223738380478064e-01,0.000000000000000000e+00,1.120000000000000000e+02
0.000000000000000000e+00,1.000000000000000000e+00,0.000000000000000000e+00,5.600000000000000000e+01,1.995500000000000000e+04,5.537559986114501953e-01,2.198645114898681641e+00,6.525804479911057054e-01,0.000000000000000000e+00,1.120000000000000000e+02
1.000000000000000000e+00,1.000000000000000000e+00,1.000000000000000000e+00,6.100000000000000000e+01,2.001600000000000000e+04,4.727869033813476562e-01,1.993286132812500000e+00,5.294212534716835616e-01,0.000000000000000000e+00,1.120000000000000000e+02
1.000000000000000000e+00,1.000000000000000000e+00,1.000000000000000000e+00,5.600000000000000000e+01,2.007200000000000000e+04,6.085360050201416016e-01,1.957607984542846680e+00,3.705978322756807164e-01,0.000000000000000000e+00,1.120000000000000000e+02
1.000000000000000000e+00,1.000000000000000000e+00,1.000000000000000000e+00,6.000000000000000000e+01,2.013200000000000000e+04,7.029521465301513672e-01,2.402076959609985352e+00,7.057171663370511716e-01,0.000000000000000000e+00,1.120000000000000000e+02
0.000000000000000000e+00,1.000000000000000000e+00,0.000000000000000000e+00,5.300000000000000000e+01,2.018500000000000000e+04,5.691399574279785156e-01,2.104204893112182617e+00,5.435226352016270246e-01,0.000000000000000000e+00,1.120000000000000000e+02
0.000000000000000000e+00,1.000000000000000000e+00,0.000000000000000000e+00,6.400000000000000000e+01,2.024900000000000000e+04,5.581359863281250000e-01,1.996094942092895508e+00,4.564528600781841416e-01,0.000000000000000000e+00,1.120000000000000000e+02
1.000000000000000000e+00,1.000000000000000000e+00,1.000000000000000000e+00,6.000000000000000000e+01,2.030900000000000000e+04,4.341018199920654297e-01,1.739289999008178711e+00,3.125955803117566600e-01,0.000000000000000000e+00,1.120000000000000000e+02
1.000000000000000000e+00,1.000000000000000000e+00,1.000000000000000000e+00,6.400000000000000000e+01,2.037300000000000000e+04,4.649381637573242188e-01,2.047630071640014648e+00,5.933530680268909174e-01,0.000000000000000000e+00,1.120000000000000000e+02
0.000000000000000000e+00,1.000000000000000000e+00,0.000000000000000000e+00,6.100000000000000000e+01,2.043400000000000000e+04,3.189361095428466797e-01,1.732604980468750000e+00,4.261725691081231782e-01,0.000000000000000000e+00,1.120000000000000000e+02
0.000000000000000000e+00,1.000000000000000000e+00,0.000000000000000000e+00,5.200000000000000000e+01,2.048600000000000000e+04,3.766870498657226562e-01,2.070230960845947266e+00,7.128708842144119151e-01,0.000000000000000000e+00,1.120000000000000000e+02
0.000000000000000000e+00,1.000000000000000000e+00,0.000000000000000000e+00,5.700000000000000000e+01,2.054300000000000000e+04,3.240220546722412109e-01,1.654084920883178711e+00,3.507077388558987319e-01,0.000000000000000000e+00,1.120000000000000000e+02
1.000000000000000000e+00,1.000000000000000000e+00,1.000000000000000000e+00,5.600000000000000000e+01,2.059900000000000000e+04,4.984648227691650391e-01,1.943378925323486328e+00,4.440430375610279201e-01,0.000000000000000000e+00,1.120000000000000000e+02
0.000000000000000000e+00,1.000000000000000000e+00,0.000000000000000000e+00,6.400000000000000000e+01,2.066300000000000000e+04,3.432118892669677734e-01,1.682880878448486328e+00,3.604183357362495399e-01,0.000000000000000000e+00,1.120000000000000000e+02
1.000000000000000000e+00,1.000000000000000000e+00,1.000000000000000000e+00,6.000000000000000000e+01,2.072300000000000000e+04,4.439170360565185547e-01,1.932183980941772461e+00,5.091807434050144021e-01,0.000000000000000000e+00,1.120000000000000000e+02
0.000000000000000000e+00,1.000000000000000000e+00,0.000000000000000000e+00,6.200000000000000000e+01,2.078500000000000000e+04,3.006539344787597656e-01,1.745290994644165039e+00,4.545975967099796233e-01,0.000000000000000000e+00,1.120000000000000000e+02
0.000000000000000000e+00,1.000000000000000000e+00,0.000000000000000000e+00,6.100000000000000000e+01,2.084600000000000000e+04,3.828129768371582031e-01,1.901878833770751953e+00,5.231351301520519304e-01,0.000000000000000000e+00,1.120000000000000000e+02
1.000000000000000000e+00,1.000000000000000000e+00,1.000000000000000000e+00,6.000000000000000000e+01,2.090600000000000000e+04,3.737349510192871094e-01,1.966916799545288086e+00,6.067009939594875112e-01,0.000000000000000000e+00,1.120000000000000000e+02
0.000000000000000000e+00,1.000000000000000000e+00,0.000000000000000000e+00,6.400000000000000000e+01,2.097000000000000000e+04,2.871971130371093750e-01,1.655786991119384766e+00,3.794553905131348714e-01,0.000000000000000000e+00,1.120000000000000000e+02
0.000000000000000000e+00,1.000000000000000000e+00,0.000000000000000000e+00,6.300000000000000000e+01,2.103300000000000000e+04,4.551908969879150391e-01,2.112754821777343750e+00,6.753195781081309246e-01,0.000000000000000000e+00,1.120000000000000000e+02
0.000000000000000000e+00,1.000000000000000000e+00,0.000000000000000000e+00,5.900000000000000000e+01,2.109200000000000000e+04,2.925429344177246094e-01,1.997052192687988281e+00,7.224078666155127060e-01,0.000000000000000000e+00,1.120000000000000000e+02
1.000000000000000000e+00,1.000000000000000000e+00,1.000000000000000000e+00,5.900000000000000000e+01,2.115100000000000000e+04,4.067161083221435547e-01,1.999386787414550781e+00,6.050343689337807085e-01,0.000000000000000000e+00,1.120000000000000000e+02
1.000000000000000000e+00,1.000000000000000000e+00,1.000000000000000000e+00,5.600000000000000000e+01,2.120700000000000000e+04,5.157968997955322266e-01,1.900578975677490234e+00,3.895043924835114857e-01,0.000000000000000000e+00,1.120000000000000000e+02
0.000000000000000000e+00,1.000000000000000000e+00,0.000000000000000000e+00,5.600000000000000000e+01,2.126300000000000000e+04,5.968618392944335938e-01,2.123874902725219727e+00,5.299885960855592604e-01,0.000000000000000000e+00,1.120000000000000000e+02
0.000000000000000000e+00,1.000000000000000000e+00,0.000000000000000000e+00,5.600000000000000000e+01,2.131900000000000000e+04,5.004069805145263672e-01,2.193965196609497070e+00,7.071348928892209340e-01,0.000000000000000000e+00,1.120000000000000000e+02
1.000000000000000000e+00,1.000000000000000000e+00,1.000000000000000000e+00,6.000000000000000000e+01,2.137900000000000000e+04,3.333230018615722656e-01,1.670432806015014648e+00,3.446981160615206763e-01,0.000000000000000000e+00,1.120000000000000000e+02
0.000000000000000000e+00,0.000000000000000000e+00,1.000000000000000000e+00,4.000000000000000000e+01,2.141900000000000000e+04,7.047491073608398438e-01,2.246051073074340820e+00,5.572627269720256127e-01,1.000000000000000000e+00,1.110000000000000000e+02
0.000000000000000000e+00,1.000000000000000000e+00,0.000000000000000000e+00,6.100000000000000000e+01,2.148000000000000000e+04,3.458399772644042969e-01,2.046359062194824219e+00,7.035309083982554945e-01,0.000000000000000000e+00,1.110000000000000000e+02
0.000000000000000000e+00,1.000000000000000000e+00,0.000000000000000000e+00,5.700000000000000000e+01,2.153700000000000000e+04,2.778711318969726562e-01,1.638319969177246094e+00,3.756141875910377070e-01,0.000000000000000000e+00,1.110000000000000000e+02
1.000000000000000000e+00,1.000000000000000000e+00,1.000000000000000000e+00,5.900000000000000000e+01,2.159600000000000000e+04,4.796998500823974609e-01,1.965131998062133789e+00,4.906837892689254188e-01,0.000000000000000000e+00,1.110000000000000000e+02
0.000000000000000000e+00,1.000000000000000000e+00,0.000000000000000000e+00,5.700000000000000000e+01,2.165300000000000000e+04,3.249990940093994141e-01,1.645279884338378906e+00,3.362013938451099970e-01,0.000000000000000000e+00,1.110000000000000000e+02
1.000000000000000000e+00,1.000000000000000000e+00,1.000000000000000000e+00,6.700000000000000000e+01,2.172000000000000000e+04,3.930530548095703125e-01,1.841186046600341797e+00,4.605949945963274672e-01,0.000000000000000000e+00,1.110000000000000000e+02
1.000000000000000000e+00,1.000000000000000000e+00,1.000000000000000000e+00,6.000000000000000000e+01,2.178000000000000000e+04,4.528160095214843750e-01,1.784187078475952148e+00,3.449716893890837355e-01,0.000000000000000000e+00,1.110000000000000000e+02
0.000000000000000000e+00,1.000000000000000000e+00,0.000000000000000000e+00,5.900000000000000000e+01,2.183900000000000000e+04,3.154408931732177734e-01,1.877109050750732422e+00,5.719213431519781787e-01,0.000000000000000000e+00,1.110000000000000000e+02
0.000000000000000000e+00,1.000000000000000000e+00,0.000000000000000000e+00,5.600000000000000000e+01,2.189500000000000000e+04,3.472268581390380859e-01,2.050032138824462891e+00,7.052205085306524346e-01,0.000000000000000000e+00,1.110000000000000000e+02
1.000000000000000000e+00,1.000000000000000000e+00,1.000000000000000000e+00,6.000000000000000000e+01,2.195500000000000000e+04,3.283309936523437500e-01,1.722568035125732422e+00,4.114866353639491381e-01,0.000000000000000000e+00,1.110000000000000000e+02
0.000000000000000000e+00,1.000000000000000000e+00,0.000000000000000000e+00,5.400000000000000000e+01,2.200900000000000000e+04,4.046940803527832031e-01,2.133930921554565430e+00,7.451623833366851635e-01,0.000000000000000000e+00,1.110000000000000000e+02
1.000000000000000000e+00,1.000000000000000000e+00,1.000000000000000000e+00,6.000000000000000000e+01,2.206900000000000000e+04,3.974750041961669922e-01,1.801458120346069336e+00,4.136719072985932111e-01,0.000000000000000000e+00,1.110000000000000000e+02
0.000000000000000000e+00,1.000000000000000000e+00,0.000000000000000000e+00,6.000000000000000000e+01,2.212900000000000000e+04,3.495450019836425781e-01,1.929249048233032227e+00,5.927920370624810698e-01,0.000000000000000000e+00,1.110000000000000000e+02
0.000000000000000000e+00,1.000000000000000000e+00,0.000000000000000000e+00,6.100000000000000000e+01,2.219000000000000000e+04,2.762479782104492188e-01,2.005803823471069336e+00,7.484875128758554652e-01,0.000000000000000000e+00,1.110000000000000000e+02
1.000000000000000000e+00,1.000000000000000000e+00,1.000000000000000000e+00,6.300000000000000000e+01,2.225300000000000000e+04,2.566890716552734375e-01,1.879625797271728516e+00,6.283297491174215654e-01,0.000000000000000000e+00,1.110000000000000000e+02
1.000000000000000000e+00,1.000000000000000000e+00,1.000000000000000000e+00,6.100000000000000000e+01,2.231400000000000000e+04,4.790542125701904297e-01,1.972186088562011719e+00,5.007055637218628119e-01,0.000000000000000000e+00,1.110000000000000000e+02
1.000000000000000000e+00,1.000000000000000000e+00,1.000000000000000000e+00,5.700000000000000000e+01,2.237100000000000000e+04,3.528070449829101562e-01,1.609523057937622070e+00,2.605177864091445250e-01,0.000000000000000000e+00,1.110000000000000000e+02
