choice, accuracy, solution,  reward, cumulative_reward, rt,  total_trial_time, iti, cp_with_slow_fast, high_val_cue
1.000000000000000000e+00,0.000000000000000000e+00,0.000000000000000000e+00,3.400000000000000000e+01,3.400000000000000000e+01,9.630610942840576172e-01,2.607578039169311523e+00,6.422807616914516515e-01,0.000000000000000000e+00,1.120000000000000000e+02
1.000000000000000000e+00,0.000000000000000000e+00,0.000000000000000000e+00,4.100000000000000000e+01,7.500000000000000000e+01,5.121209621429443359e-01,1.915596008300781250e+00,4.081706282884071113e-01,0.000000000000000000e+00,1.120000000000000000e+02
0.000000000000000000e+00,0.000000000000000000e+00,1.000000000000000000e+00,3.800000000000000000e+01,1.130000000000000000e+02,4.075658321380615234e-01,2.080665826797485352e+00,6.885439019931536286e-01,0.000000000000000000e+00,1.120000000000000000e+02
0.000000000000000000e+00,0.000000000000000000e+00,1.000000000000000000e+00,3.100000000000000000e+01,1.440000000000000000e+02,3.793351650238037109e-01,1.837952136993408203e+00,4.601231553606732749e-01,0.000000000000000000e+00,1.120000000000000000e+02
1.000000000000000000e+00,1.000000000000000000e+00,1.000000000000000000e+00,6.200000000000000000e+01,2.060000000000000000e+02,3.380351066589355469e-01,1.909552097320556641e+00,5.862559718896259708e-01,0.000000000000000000e+00,1.120000000000000000e+02
1.000000000000000000e+00,1.000000000000000000e+00,1.000000000000000000e+00,6.400000000000000000e+01,2.700000000000000000e+02,3.844490051269531250e-01,2.024877071380615234e+00,6.444265450600168421e-01,0.000000000000000000e+00,1.120000000000000000e+02
1.000000000000000000e+00,1.000000000000000000e+00,1.000000000000000000e+00,6.200000000000000000e+01,3.320000000000000000e+02,4.298129081726074219e-01,1.921271800994873047e+00,4.992181954231980634e-01,0.000000000000000000e+00,1.120000000000000000e+02
0.000000000000000000e+00,1.000000000000000000e+00,0.000000000000000000e+00,6.700000000000000000e+01,3.990000000000000000e+02,3.935029506683349609e-01,1.711659908294677734e+00,3.110872932830941462e-01,0.000000000000000000e+00,1.120000000000000000e+02
0.000000000000000000e+00,1.000000000000000000e+00,0.000000000000000000e+00,6.900000000000000000e+01,4.680000000000000000e+02,4.986190795898437500e-01,2.130172967910766602e+00,6.410180934522137219e-01,0.000000000000000000e+00,1.120000000000000000e+02
1.000000000000000000e+00,1.000000000000000000e+00,1.000000000000000000e+00,5.700000000000000000e+01,5.250000000000000000e+02,3.303859233856201172e-01,1.773145914077758789e+00,4.476768785121822414e-01,0.000000000000000000e+00,1.120000000000000000e+02
0.000000000000000000e+00,1.000000000000000000e+00,0.000000000000000000e+00,6.000000000000000000e+01,5.850000000000000000e+02,3.687651157379150391e-01,1.768738031387329102e+00,4.164818934623378266e-01,0.000000000000000000e+00,1.120000000000000000e+02
0.000000000000000000e+00,1.000000000000000000e+00,0.000000000000000000e+00,6.100000000000000000e+01,6.460000000000000000e+02,3.435359001159667969e-01,1.983742952346801758e+00,6.500388591633563529e-01,0.000000000000000000e+00,1.120000000000000000e+02
1.000000000000000000e+00,1.000000000000000000e+00,1.000000000000000000e+00,6.100000000000000000e+01,7.070000000000000000e+02,3.032279014587402344e-01,1.973124027252197266e+00,6.731617463113805933e-01,0.000000000000000000e+00,1.120000000000000000e+02
0.000000000000000000e+00,1.000000000000000000e+00,0.000000000000000000e+00,6.500000000000000000e+01,7.720000000000000000e+02,3.226749897003173828e-01,1.776165008544921875e+00,4.662895929919805282e-01,0.000000000000000000e+00,1.120000000000000000e+02
0.000000000000000000e+00,0.000000000000000000e+00,1.000000000000000000e+00,4.000000000000000000e+01,8.120000000000000000e+02,3.383340835571289062e-01,1.922226905822753906e+00,5.883646995073481545e-01,0.000000000000000000e+00,1.120000000000000000e+02
1.000000000000000000e+00,1.000000000000000000e+00,1.000000000000000000e+00,6.900000000000000000e+01,8.810000000000000000e+02,3.297309875488281250e-01,1.914473056793212891e+00,5.862286093224560179e-01,0.000000000000000000e+00,1.120000000000000000e+02
0.000000000000000000e+00,1.000000000000000000e+00,0.000000000000000000e+00,6.400000000000000000e+01,9.450000000000000000e+02,2.841279506683349609e-01,1.731298923492431641e+00,4.510044633074896669e-01,0.000000000000000000e+00,1.120000000000000000e+02
1.000000000000000000e+00,1.000000000000000000e+00,1.000000000000000000e+00,6.300000000000000000e+01,1.008000000000000000e+03,2.428479194641113281e-01,1.597015857696533203e+00,3.648139813069289916e-01,0.000000000000000000e+00,1.120000000000000000e+02
1.000000000000000000e+00,1.000000000000000000e+00,1.000000000000000000e+00,6.100000000000000000e+01,1.069000000000000000e+03,3.515400886535644531e-01,1.867927074432373047e+00,5.326018933509814035e-01,0.000000000000000000e+00,1.120000000000000000e+02
0.000000000000000000e+00,1.000000000000000000e+00,0.000000000000000000e+00,6.600000000000000000e+01,1.135000000000000000e+03,3.943440914154052734e-01,1.894462108612060547e+00,4.938060450857681971e-01,0.000000000000000000e+00,1.120000000000000000e+02
0.000000000000000000e+00,1.000000000000000000e+00,0.000000000000000000e+00,6.300000000000000000e+01,1.198000000000000000e+03,2.750661373138427734e-01,1.565608024597167969e+00,3.096296085131793885e-01,0.000000000000000000e+00,1.120000000000000000e+02
1.000000000000000000e+00,1.000000000000000000e+00,1.000000000000000000e+00,6.300000000000000000e+01,1.261000000000000000e+03,2.633731365203857422e-01,1.641515016555786133e+00,3.844205038803226171e-01,0.000000000000000000e+00,1.120000000000000000e+02
0.000000000000000000e+00,1.000000000000000000e+00,0.000000000000000000e+00,6.700000000000000000e+01,1.328000000000000000e+03,2.074930667877197266e-01,1.910706996917724609e+00,7.115121478638659624e-01,0.000000000000000000e+00,1.120000000000000000e+02
0.000000000000000000e+00,1.000000000000000000e+00,0.000000000000000000e+00,6.200000000000000000e+01,1.390000000000000000e+03,2.675211429595947266e-01,1.716192007064819336e+00,4.613310165499432958e-01,0.000000000000000000e+00,1.120000000000000000e+02
0.000000000000000000e+00,1.000000000000000000e+00,0.000000000000000000e+00,5.600000000000000000e+01,1.446000000000000000e+03,2.779190540313720703e-01,1.615442991256713867e+00,3.269214740799463725e-01,0.000000000000000000e+00,1.120000000000000000e+02
0.000000000000000000e+00,1.000000000000000000e+00,0.000000000000000000e+00,6.400000000000000000e+01,1.510000000000000000e+03,3.164939880371093750e-01,1.779464960098266602e+00,4.729547336543956648e-01,0.000000000000000000e+00,1.120000000000000000e+02
0.000000000000000000e+00,1.000000000000000000e+00,0.000000000000000000e+00,6.800000000000000000e+01,1.578000000000000000e+03,2.940320968627929688e-01,1.803616046905517578e+00,5.098926152623020069e-01,0.000000000000000000e+00,1.120000000000000000e+02
0.000000000000000000e+00,1.000000000000000000e+00,0.000000000000000000e+00,6.500000000000000000e+01,1.643000000000000000e+03,3.161199092864990234e-01,1.796746015548706055e+00,4.900323939976913845e-01,0.000000000000000000e+00,1.120000000000000000e+02
1.000000000000000000e+00,1.000000000000000000e+00,1.000000000000000000e+00,6.400000000000000000e+01,1.707000000000000000e+03,3.522529602050781250e-01,1.653101921081542969e+00,3.099801224267536015e-01,0.000000000000000000e+00,1.120000000000000000e+02
0.000000000000000000e+00,1.000000000000000000e+00,0.000000000000000000e+00,6.600000000000000000e+01,1.773000000000000000e+03,2.902009487152099609e-01,1.851002931594848633e+00,5.773728681910204052e-01,0.000000000000000000e+00,1.120000000000000000e+02
1.000000000000000000e+00,1.000000000000000000e+00,1.000000000000000000e+00,6.000000000000000000e+01,1.833000000000000000e+03,3.482129573822021484e-01,1.973825931549072266e+00,6.345185544273832523e-01,0.000000000000000000e+00,1.120000000000000000e+02
1.000000000000000000e+00,1.000000000000000000e+00,1.000000000000000000e+00,6.300000000000000000e+01,1.896000000000000000e+03,2.709381580352783203e-01,1.998903036117553711e+00,7.333876844297813058e-01,0.000000000000000000e+00,1.120000000000000000e+02
0.000000000000000000e+00,0.000000000000000000e+00,1.000000000000000000e+00,3.500000000000000000e+01,1.931000000000000000e+03,1.468248367309570312e-01,1.874585151672363281e+00,7.246853885654700456e-01,0.000000000000000000e+00,1.120000000000000000e+02
0.000000000000000000e+00,1.000000000000000000e+00,0.000000000000000000e+00,6.600000000000000000e+01,1.997000000000000000e+03,3.443849086761474609e-01,1.694195032119750977e+00,3.526001009648867535e-01,0.000000000000000000e+00,1.120000000000000000e+02
0.000000000000000000e+00,1.000000000000000000e+00,0.000000000000000000e+00,7.000000000000000000e+01,2.067000000000000000e+03,2.565829753875732422e-01,1.986804008483886719e+00,7.390463159442879348e-01,0.000000000000000000e+00,1.120000000000000000e+02
1.000000000000000000e+00,1.000000000000000000e+00,1.000000000000000000e+00,6.600000000000000000e+01,2.133000000000000000e+03,2.392702102661132812e-01,1.880739927291870117e+00,6.532537575213126502e-01,0.000000000000000000e+00,1.120000000000000000e+02
0.000000000000000000e+00,0.000000000000000000e+00,1.000000000000000000e+00,4.300000000000000000e+01,2.176000000000000000e+03,3.270189762115478516e-01,1.813388109207153320e+00,4.835089682108414388e-01,1.000000000000000000e+00,1.110000000000000000e+02
1.000000000000000000e+00,1.000000000000000000e+00,1.000000000000000000e+00,6.000000000000000000e+01,2.236000000000000000e+03,3.484289646148681641e-01,1.716017961502075195e+00,3.663310940724544551e-01,0.000000000000000000e+00,1.110000000000000000e+02
0.000000000000000000e+00,1.000000000000000000e+00,0.000000000000000000e+00,6.100000000000000000e+01,2.297000000000000000e+03,4.168241024017333984e-01,1.810883045196533203e+00,3.938949386105394801e-01,0.000000000000000000e+00,1.110000000000000000e+02
0.000000000000000000e+00,1.000000000000000000e+00,0.000000000000000000e+00,6.300000000000000000e+01,2.360000000000000000e+03,4.697661399841308594e-01,1.757148981094360352e+00,3.011638708601903636e-01,0.000000000000000000e+00,1.110000000000000000e+02
1.000000000000000000e+00,1.000000000000000000e+00,1.000000000000000000e+00,6.500000000000000000e+01,2.425000000000000000e+03,2.791781425476074219e-01,1.787894010543823242e+00,5.055620890082370700e-01,0.000000000000000000e+00,1.110000000000000000e+02
0.000000000000000000e+00,1.000000000000000000e+00,0.000000000000000000e+00,6.000000000000000000e+01,2.485000000000000000e+03,2.928929328918457031e-01,1.615471839904785156e+00,3.378953990688271514e-01,0.000000000000000000e+00,1.110000000000000000e+02
0.000000000000000000e+00,0.000000000000000000e+00,1.000000000000000000e+00,3.800000000000000000e+01,2.523000000000000000e+03,3.912711143493652344e-01,1.708442926406860352e+00,3.296975432389802063e-01,0.000000000000000000e+00,1.110000000000000000e+02
1.000000000000000000e+00,1.000000000000000000e+00,1.000000000000000000e+00,6.200000000000000000e+01,2.585000000000000000e+03,4.163231849670410156e-01,1.678926229476928711e+00,2.753730688940803639e-01,0.000000000000000000e+00,1.110000000000000000e+02
0.000000000000000000e+00,1.000000000000000000e+00,0.000000000000000000e+00,5.200000000000000000e+01,2.637000000000000000e+03,3.150608539581298828e-01,1.652841806411743164e+00,3.448354569022679672e-01,0.000000000000000000e+00,1.110000000000000000e+02
1.000000000000000000e+00,1.000000000000000000e+00,1.000000000000000000e+00,6.800000000000000000e+01,2.705000000000000000e+03,3.251919746398925781e-01,2.030972003936767578e+00,7.254532408340748084e-01,0.000000000000000000e+00,1.110000000000000000e+02
0.000000000000000000e+00,1.000000000000000000e+00,0.000000000000000000e+00,6.300000000000000000e+01,2.768000000000000000e+03,3.448441028594970703e-01,1.672291994094848633e+00,3.315336901459664531e-01,0.000000000000000000e+00,1.110000000000000000e+02
1.000000000000000000e+00,1.000000000000000000e+00,1.000000000000000000e+00,6.100000000000000000e+01,2.829000000000000000e+03,3.142671585083007812e-01,1.713287830352783203e+00,4.114072194947305805e-01,0.000000000000000000e+00,1.110000000000000000e+02
0.000000000000000000e+00,1.000000000000000000e+00,0.000000000000000000e+00,6.100000000000000000e+01,2.890000000000000000e+03,3.206210136413574219e-01,1.913944959640502930e+00,6.085384506134028371e-01,0.000000000000000000e+00,1.110000000000000000e+02
0.000000000000000000e+00,1.000000000000000000e+00,0.000000000000000000e+00,6.200000000000000000e+01,2.952000000000000000e+03,3.260259628295898438e-01,1.721279859542846680e+00,4.133905287250905780e-01,0.000000000000000000e+00,1.110000000000000000e+02
0.000000000000000000e+00,1.000000000000000000e+00,0.000000000000000000e+00,6.300000000000000000e+01,3.015000000000000000e+03,3.175470829010009766e-01,1.770107984542846680e+00,4.667776891258675898e-01,0.000000000000000000e+00,1.110000000000000000e+02
1.000000000000000000e+00,1.000000000000000000e+00,1.000000000000000000e+00,5.600000000000000000e+01,3.071000000000000000e+03,2.201950550079345703e-01,1.838774919509887695e+00,6.220847856095563788e-01,0.000000000000000000e+00,1.110000000000000000e+02
1.000000000000000000e+00,1.000000000000000000e+00,1.000000000000000000e+00,6.200000000000000000e+01,3.133000000000000000e+03,3.099651336669921875e-01,1.973082065582275391e+00,6.785199430163759704e-01,0.000000000000000000e+00,1.110000000000000000e+02
1.000000000000000000e+00,1.000000000000000000e+00,1.000000000000000000e+00,6.600000000000000000e+01,3.199000000000000000e+03,2.602949142456054688e-01,1.928368091583251953e+00,6.736172039874221973e-01,0.000000000000000000e+00,1.110000000000000000e+02
1.000000000000000000e+00,1.000000000000000000e+00,1.000000000000000000e+00,5.500000000000000000e+01,3.254000000000000000e+03,2.870810031890869141e-01,1.763686895370483398e+00,4.874715586374367415e-01,0.000000000000000000e+00,1.110000000000000000e+02
1.000000000000000000e+00,1.000000000000000000e+00,1.000000000000000000e+00,5.700000000000000000e+01,3.311000000000000000e+03,2.844128608703613281e-01,1.766309976577758789e+00,4.871265820480218944e-01,0.000000000000000000e+00,1.110000000000000000e+02
1.000000000000000000e+00,1.000000000000000000e+00,1.000000000000000000e+00,6.100000000000000000e+01,3.372000000000000000e+03,2.688620090484619141e-01,1.816637039184570312e+00,5.537481659599372552e-01,0.000000000000000000e+00,1.110000000000000000e+02
1.000000000000000000e+00,1.000000000000000000e+00,1.000000000000000000e+00,5.600000000000000000e+01,3.428000000000000000e+03,3.703331947326660156e-01,2.094678163528442383e+00,7.316080192888706479e-01,0.000000000000000000e+00,1.110000000000000000e+02
0.000000000000000000e+00,1.000000000000000000e+00,0.000000000000000000e+00,6.100000000000000000e+01,3.489000000000000000e+03,2.399399280548095703e-01,1.840777873992919922e+00,6.225515958436030894e-01,0.000000000000000000e+00,1.110000000000000000e+02
1.000000000000000000e+00,1.000000000000000000e+00,1.000000000000000000e+00,5.200000000000000000e+01,3.541000000000000000e+03,2.530848979949951172e-01,1.497739791870117188e+00,2.540165899610451472e-01,0.000000000000000000e+00,1.110000000000000000e+02
1.000000000000000000e+00,0.000000000000000000e+00,0.000000000000000000e+00,3.800000000000000000e+01,3.579000000000000000e+03,4.781119823455810547e-01,1.792732000350952148e+00,3.133871639199982129e-01,0.000000000000000000e+00,1.110000000000000000e+02
0.000000000000000000e+00,0.000000000000000000e+00,1.000000000000000000e+00,4.600000000000000000e+01,3.625000000000000000e+03,3.808591365814208984e-01,1.993663072586059570e+00,6.234308586488466197e-01,1.000000000000000000e+00,1.120000000000000000e+02
0.000000000000000000e+00,1.000000000000000000e+00,0.000000000000000000e+00,5.700000000000000000e+01,3.682000000000000000e+03,4.289300441741943359e-01,1.868628025054931641e+00,4.423003171263465427e-01,0.000000000000000000e+00,1.120000000000000000e+02
1.000000000000000000e+00,1.000000000000000000e+00,1.000000000000000000e+00,5.700000000000000000e+01,3.739000000000000000e+03,3.693308830261230469e-01,2.051352024078369141e+00,6.934017830254455284e-01,0.000000000000000000e+00,1.120000000000000000e+02
0.000000000000000000e+00,1.000000000000000000e+00,0.000000000000000000e+00,5.900000000000000000e+01,3.798000000000000000e+03,3.244049549102783203e-01,1.950023174285888672e+00,6.435227502649017994e-01,0.000000000000000000e+00,1.120000000000000000e+02
1.000000000000000000e+00,1.000000000000000000e+00,1.000000000000000000e+00,5.700000000000000000e+01,3.855000000000000000e+03,2.765009403228759766e-01,1.681782960891723633e+00,4.255533710753547361e-01,0.000000000000000000e+00,1.120000000000000000e+02
1.000000000000000000e+00,1.000000000000000000e+00,1.000000000000000000e+00,5.600000000000000000e+01,3.911000000000000000e+03,3.441948890686035156e-01,2.066246986389160156e+00,7.248870117960781734e-01,0.000000000000000000e+00,1.120000000000000000e+02
1.000000000000000000e+00,1.000000000000000000e+00,1.000000000000000000e+00,5.700000000000000000e+01,3.968000000000000000e+03,3.186368942260742188e-01,1.604712009429931641e+00,2.966902667550183614e-01,0.000000000000000000e+00,1.120000000000000000e+02
0.000000000000000000e+00,1.000000000000000000e+00,0.000000000000000000e+00,5.500000000000000000e+01,4.023000000000000000e+03,3.946530818939208984e-01,1.994112968444824219e+00,6.071715083721522799e-01,0.000000000000000000e+00,1.120000000000000000e+02
0.000000000000000000e+00,1.000000000000000000e+00,0.000000000000000000e+00,5.500000000000000000e+01,4.078000000000000000e+03,2.667419910430908203e-01,1.754061222076416016e+00,4.947330789390637640e-01,0.000000000000000000e+00,1.120000000000000000e+02
0.000000000000000000e+00,1.000000000000000000e+00,0.000000000000000000e+00,5.600000000000000000e+01,4.134000000000000000e+03,3.248710632324218750e-01,2.045162916183471680e+00,7.396716993778114091e-01,0.000000000000000000e+00,1.120000000000000000e+02
1.000000000000000000e+00,0.000000000000000000e+00,0.000000000000000000e+00,4.400000000000000000e+01,4.178000000000000000e+03,1.659581661224365234e-01,1.479969024658203125e+00,3.201038228855772605e-01,0.000000000000000000e+00,1.120000000000000000e+02
1.000000000000000000e+00,1.000000000000000000e+00,1.000000000000000000e+00,5.200000000000000000e+01,4.230000000000000000e+03,3.445670604705810547e-01,1.925544023513793945e+00,5.787713173083162133e-01,0.000000000000000000e+00,1.120000000000000000e+02
0.000000000000000000e+00,1.000000000000000000e+00,0.000000000000000000e+00,6.000000000000000000e+01,4.290000000000000000e+03,2.959749698638916016e-01,1.985354185104370117e+00,6.973845941088380185e-01,0.000000000000000000e+00,1.120000000000000000e+02
0.000000000000000000e+00,1.000000000000000000e+00,0.000000000000000000e+00,6.000000000000000000e+01,4.350000000000000000e+03,3.017208576202392578e-01,1.620584011077880859e+00,3.350198296963579625e-01,0.000000000000000000e+00,1.120000000000000000e+02
1.000000000000000000e+00,0.000000000000000000e+00,0.000000000000000000e+00,4.000000000000000000e+01,4.390000000000000000e+03,4.235630035400390625e-01,1.816932916641235352e+00,4.019112308500460973e-01,0.000000000000000000e+00,1.120000000000000000e+02
1.000000000000000000e+00,1.000000000000000000e+00,1.000000000000000000e+00,5.600000000000000000e+01,4.446000000000000000e+03,5.488588809967041016e-01,2.101559877395629883e+00,5.533288044246583715e-01,0.000000000000000000e+00,1.120000000000000000e+02
1.000000000000000000e+00,1.000000000000000000e+00,1.000000000000000000e+00,5.500000000000000000e+01,4.501000000000000000e+03,3.689599037170410156e-01,1.745893955230712891e+00,3.828000897667748204e-01,0.000000000000000000e+00,1.120000000000000000e+02
1.000000000000000000e+00,1.000000000000000000e+00,1.000000000000000000e+00,5.900000000000000000e+01,4.560000000000000000e+03,3.369488716125488281e-01,1.661218881607055664e+00,3.274335952082871315e-01,0.000000000000000000e+00,1.120000000000000000e+02
0.000000000000000000e+00,1.000000000000000000e+00,0.000000000000000000e+00,6.300000000000000000e+01,4.623000000000000000e+03,2.950079441070556641e-01,1.541888952255249023e+00,2.527452079473507252e-01,0.000000000000000000e+00,1.120000000000000000e+02
1.000000000000000000e+00,1.000000000000000000e+00,1.000000000000000000e+00,5.600000000000000000e+01,4.679000000000000000e+03,3.680901527404785156e-01,2.054655075073242188e+00,6.903167316019380717e-01,0.000000000000000000e+00,1.120000000000000000e+02
0.000000000000000000e+00,1.000000000000000000e+00,0.000000000000000000e+00,5.000000000000000000e+01,4.729000000000000000e+03,3.021850585937500000e-01,1.687471151351928711e+00,3.947636096548645668e-01,0.000000000000000000e+00,1.120000000000000000e+02
0.000000000000000000e+00,1.000000000000000000e+00,0.000000000000000000e+00,5.600000000000000000e+01,4.785000000000000000e+03,3.638958930969238281e-01,1.805386781692504883e+00,4.501593482884919672e-01,0.000000000000000000e+00,1.120000000000000000e+02
0.000000000000000000e+00,1.000000000000000000e+00,0.000000000000000000e+00,5.700000000000000000e+01,4.842000000000000000e+03,3.742990493774414062e-01,1.865270853042602539e+00,4.987323762445016184e-01,0.000000000000000000e+00,1.120000000000000000e+02
0.000000000000000000e+00,1.000000000000000000e+00,0.000000000000000000e+00,6.200000000000000000e+01,4.904000000000000000e+03,3.127119541168212891e-01,1.853838205337524414e+00,5.359400934414624285e-01,0.000000000000000000e+00,1.120000000000000000e+02
1.000000000000000000e+00,1.000000000000000000e+00,1.000000000000000000e+00,5.900000000000000000e+01,4.963000000000000000e+03,3.487741947174072266e-01,1.613779067993164062e+00,2.666586143120215358e-01,0.000000000000000000e+00,1.120000000000000000e+02
0.000000000000000000e+00,1.000000000000000000e+00,0.000000000000000000e+00,6.000000000000000000e+01,5.023000000000000000e+03,2.871589660644531250e-01,1.993479967117309570e+00,7.097163802156905010e-01,0.000000000000000000e+00,1.120000000000000000e+02
0.000000000000000000e+00,1.000000000000000000e+00,0.000000000000000000e+00,5.700000000000000000e+01,5.080000000000000000e+03,2.888960838317871094e-01,1.715280055999755859e+00,4.419400334239318440e-01,0.000000000000000000e+00,1.120000000000000000e+02
0.000000000000000000e+00,1.000000000000000000e+00,0.000000000000000000e+00,5.400000000000000000e+01,5.134000000000000000e+03,3.092057704925537109e-01,1.939723968505859375e+00,6.481747301451261656e-01,0.000000000000000000e+00,1.120000000000000000e+02
1.000000000000000000e+00,0.000000000000000000e+00,0.000000000000000000e+00,5.000000000000000000e+01,5.184000000000000000e+03,3.470301628112792969e-01,1.998641967773437500e+00,6.635710080048686788e-01,0.000000000000000000e+00,1.120000000000000000e+02
1.000000000000000000e+00,0.000000000000000000e+00,0.000000000000000000e+00,4.300000000000000000e+01,5.227000000000000000e+03,3.361020088195800781e-01,1.743954896926879883e+00,4.243968758304356714e-01,0.000000000000000000e+00,1.120000000000000000e+02
0.000000000000000000e+00,0.000000000000000000e+00,1.000000000000000000e+00,4.300000000000000000e+01,5.270000000000000000e+03,5.041699409484863281e-01,2.046442985534667969e+00,5.540805659959875396e-01,0.000000000000000000e+00,1.120000000000000000e+02
1.000000000000000000e+00,0.000000000000000000e+00,0.000000000000000000e+00,4.900000000000000000e+01,5.319000000000000000e+03,4.041590690612792969e-01,1.761609077453613281e+00,3.659002906577863978e-01,1.000000000000000000e+00,1.110000000000000000e+02
1.000000000000000000e+00,1.000000000000000000e+00,1.000000000000000000e+00,5.700000000000000000e+01,5.376000000000000000e+03,5.916478633880615234e-01,2.039160013198852539e+00,4.550090925839943568e-01,0.000000000000000000e+00,1.110000000000000000e+02
0.000000000000000000e+00,1.000000000000000000e+00,0.000000000000000000e+00,6.100000000000000000e+01,5.437000000000000000e+03,3.473918437957763672e-01,1.922270059585571289e+00,5.771922093678782950e-01,0.000000000000000000e+00,1.110000000000000000e+02
0.000000000000000000e+00,1.000000000000000000e+00,0.000000000000000000e+00,5.700000000000000000e+01,5.494000000000000000e+03,2.925970554351806641e-01,1.829310178756713867e+00,5.566039210256588099e-01,0.000000000000000000e+00,1.110000000000000000e+02
0.000000000000000000e+00,1.000000000000000000e+00,0.000000000000000000e+00,5.700000000000000000e+01,5.551000000000000000e+03,3.713719844818115234e-01,1.743980884552001953e+00,3.840756160933048724e-01,0.000000000000000000e+00,1.110000000000000000e+02
1.000000000000000000e+00,1.000000000000000000e+00,1.000000000000000000e+00,6.300000000000000000e+01,5.614000000000000000e+03,3.955678939819335938e-01,1.816710948944091797e+00,4.174732885595749399e-01,0.000000000000000000e+00,1.110000000000000000e+02
1.000000000000000000e+00,1.000000000000000000e+00,1.000000000000000000e+00,6.700000000000000000e+01,5.681000000000000000e+03,2.808918952941894531e-01,1.806133031845092773e+00,5.235027578835136364e-01,0.000000000000000000e+00,1.110000000000000000e+02
1.000000000000000000e+00,1.000000000000000000e+00,1.000000000000000000e+00,5.600000000000000000e+01,5.737000000000000000e+03,2.809779644012451172e-01,1.561728954315185547e+00,2.855285499013318073e-01,0.000000000000000000e+00,1.110000000000000000e+02
0.000000000000000000e+00,1.000000000000000000e+00,0.000000000000000000e+00,5.900000000000000000e+01,5.796000000000000000e+03,3.834400177001953125e-01,1.653327941894531250e+00,2.722161262277469906e-01,0.000000000000000000e+00,1.110000000000000000e+02
1.000000000000000000e+00,1.000000000000000000e+00,1.000000000000000000e+00,5.900000000000000000e+01,5.855000000000000000e+03,2.794458866119384766e-01,1.663119792938232422e+00,3.852201540210670738e-01,0.000000000000000000e+00,1.110000000000000000e+02
1.000000000000000000e+00,1.000000000000000000e+00,1.000000000000000000e+00,5.500000000000000000e+01,5.910000000000000000e+03,2.757589817047119141e-01,1.889986991882324219e+00,6.250134157764249965e-01,0.000000000000000000e+00,1.110000000000000000e+02
0.000000000000000000e+00,1.000000000000000000e+00,0.000000000000000000e+00,5.600000000000000000e+01,5.966000000000000000e+03,2.896201610565185547e-01,1.770361900329589844e+00,4.955505895309777475e-01,0.000000000000000000e+00,1.110000000000000000e+02
1.000000000000000000e+00,1.000000000000000000e+00,1.000000000000000000e+00,5.500000000000000000e+01,6.021000000000000000e+03,3.148488998413085938e-01,1.703193187713623047e+00,3.988723242284150650e-01,0.000000000000000000e+00,1.110000000000000000e+02
0.000000000000000000e+00,0.000000000000000000e+00,1.000000000000000000e+00,4.200000000000000000e+01,6.063000000000000000e+03,1.941940784454345703e-01,1.526921033859252930e+00,3.425305927458412447e-01,0.000000000000000000e+00,1.110000000000000000e+02
1.000000000000000000e+00,1.000000000000000000e+00,1.000000000000000000e+00,6.000000000000000000e+01,6.123000000000000000e+03,5.976250171661376953e-01,1.949126005172729492e+00,3.585025637375943708e-01,0.000000000000000000e+00,1.110000000000000000e+02
1.000000000000000000e+00,1.000000000000000000e+00,1.000000000000000000e+00,6.700000000000000000e+01,6.190000000000000000e+03,3.768398761749267578e-01,1.983349084854125977e+00,6.248137117176182365e-01,0.000000000000000000e+00,1.110000000000000000e+02
1.000000000000000000e+00,1.000000000000000000e+00,1.000000000000000000e+00,6.000000000000000000e+01,6.250000000000000000e+03,2.385499477386474609e-01,1.889954805374145508e+00,6.647305068320419341e-01,0.000000000000000000e+00,1.110000000000000000e+02
0.000000000000000000e+00,1.000000000000000000e+00,0.000000000000000000e+00,6.000000000000000000e+01,6.310000000000000000e+03,3.231599330902099609e-01,1.786948919296264648e+00,4.852333398650238161e-01,0.000000000000000000e+00,1.110000000000000000e+02
1.000000000000000000e+00,1.000000000000000000e+00,1.000000000000000000e+00,5.700000000000000000e+01,6.367000000000000000e+03,2.872850894927978516e-01,2.008479118347167969e+00,7.268253667787596406e-01,0.000000000000000000e+00,1.110000000000000000e+02
0.000000000000000000e+00,1.000000000000000000e+00,0.000000000000000000e+00,6.600000000000000000e+01,6.433000000000000000e+03,3.572859764099121094e-01,2.059730052947998047e+00,7.199502187129666053e-01,0.000000000000000000e+00,1.110000000000000000e+02
1.000000000000000000e+00,1.000000000000000000e+00,1.000000000000000000e+00,6.500000000000000000e+01,6.498000000000000000e+03,3.577229976654052734e-01,1.729769945144653320e+00,3.834254590540968621e-01,0.000000000000000000e+00,1.110000000000000000e+02
1.000000000000000000e+00,1.000000000000000000e+00,1.000000000000000000e+00,5.600000000000000000e+01,6.554000000000000000e+03,3.515851497650146484e-01,1.911574125289916992e+00,5.614797383362524208e-01,0.000000000000000000e+00,1.110000000000000000e+02
0.000000000000000000e+00,1.000000000000000000e+00,0.000000000000000000e+00,6.200000000000000000e+01,6.616000000000000000e+03,3.645639419555664062e-01,1.895165920257568359e+00,5.400555808859446305e-01,0.000000000000000000e+00,1.110000000000000000e+02
1.000000000000000000e+00,1.000000000000000000e+00,1.000000000000000000e+00,5.900000000000000000e+01,6.675000000000000000e+03,2.565660476684570312e-01,1.876305103302001953e+00,6.329412746017775149e-01,0.000000000000000000e+00,1.110000000000000000e+02
0.000000000000000000e+00,1.000000000000000000e+00,0.000000000000000000e+00,6.300000000000000000e+01,6.738000000000000000e+03,3.244378566741943359e-01,1.743370056152343750e+00,4.265708428303477961e-01,0.000000000000000000e+00,1.110000000000000000e+02
0.000000000000000000e+00,1.000000000000000000e+00,0.000000000000000000e+00,5.700000000000000000e+01,6.795000000000000000e+03,3.730120658874511719e-01,1.662886857986450195e+00,3.062926111924152428e-01,0.000000000000000000e+00,1.110000000000000000e+02
1.000000000000000000e+00,1.000000000000000000e+00,1.000000000000000000e+00,6.000000000000000000e+01,6.855000000000000000e+03,2.994220256805419922e-01,1.715037822723388672e+00,4.212493666833053152e-01,0.000000000000000000e+00,1.110000000000000000e+02
0.000000000000000000e+00,1.000000000000000000e+00,0.000000000000000000e+00,6.300000000000000000e+01,6.918000000000000000e+03,3.501060009002685547e-01,1.889632940292358398e+00,5.440842607154338095e-01,0.000000000000000000e+00,1.110000000000000000e+02
0.000000000000000000e+00,1.000000000000000000e+00,0.000000000000000000e+00,6.500000000000000000e+01,6.983000000000000000e+03,3.055179119110107422e-01,1.838001966476440430e+00,5.487832591165117124e-01,0.000000000000000000e+00,1.110000000000000000e+02
1.000000000000000000e+00,1.000000000000000000e+00,1.000000000000000000e+00,6.000000000000000000e+01,7.043000000000000000e+03,1.536390781402587891e-01,1.888657093048095703e+00,7.373052269195299324e-01,0.000000000000000000e+00,1.110000000000000000e+02
0.000000000000000000e+00,0.000000000000000000e+00,1.000000000000000000e+00,4.400000000000000000e+01,7.087000000000000000e+03,3.283379077911376953e-01,1.851186990737915039e+00,5.220492717779030567e-01,0.000000000000000000e+00,1.110000000000000000e+02
1.000000000000000000e+00,1.000000000000000000e+00,1.000000000000000000e+00,5.600000000000000000e+01,7.143000000000000000e+03,3.113729953765869141e-01,1.714622974395751953e+00,3.868778041959161640e-01,0.000000000000000000e+00,1.110000000000000000e+02
1.000000000000000000e+00,0.000000000000000000e+00,0.000000000000000000e+00,4.000000000000000000e+01,7.183000000000000000e+03,4.227709770202636719e-01,1.997553825378417969e+00,5.842471384678251667e-01,1.000000000000000000e+00,1.120000000000000000e+02
1.000000000000000000e+00,1.000000000000000000e+00,1.000000000000000000e+00,6.000000000000000000e+01,7.243000000000000000e+03,3.318529129028320312e-01,1.853153228759765625e+00,5.208343013145189104e-01,0.000000000000000000e+00,1.120000000000000000e+02
0.000000000000000000e+00,1.000000000000000000e+00,0.000000000000000000e+00,6.500000000000000000e+01,7.308000000000000000e+03,3.429098129272460938e-01,1.868535041809082031e+00,5.393793731325332574e-01,0.000000000000000000e+00,1.120000000000000000e+02
0.000000000000000000e+00,1.000000000000000000e+00,0.000000000000000000e+00,5.700000000000000000e+01,7.365000000000000000e+03,4.713139533996582031e-01,2.130571842193603516e+00,6.698423193434963618e-01,0.000000000000000000e+00,1.120000000000000000e+02
1.000000000000000000e+00,1.000000000000000000e+00,1.000000000000000000e+00,6.200000000000000000e+01,7.427000000000000000e+03,7.720470428466796875e-01,2.290094852447509766e+00,5.268034384095988676e-01,0.000000000000000000e+00,1.120000000000000000e+02
0.000000000000000000e+00,1.000000000000000000e+00,0.000000000000000000e+00,6.100000000000000000e+01,7.488000000000000000e+03,2.927749156951904297e-01,1.580044031143188477e+00,3.071145765118474258e-01,0.000000000000000000e+00,1.120000000000000000e+02
0.000000000000000000e+00,1.000000000000000000e+00,0.000000000000000000e+00,6.700000000000000000e+01,7.555000000000000000e+03,3.916258811950683594e-01,1.806041955947875977e+00,4.297357764556430371e-01,0.000000000000000000e+00,1.120000000000000000e+02
0.000000000000000000e+00,1.000000000000000000e+00,0.000000000000000000e+00,6.200000000000000000e+01,7.617000000000000000e+03,4.997119903564453125e-01,1.783171176910400391e+00,2.964031721363780125e-01,0.000000000000000000e+00,1.120000000000000000e+02
0.000000000000000000e+00,1.000000000000000000e+00,0.000000000000000000e+00,6.600000000000000000e+01,7.683000000000000000e+03,4.213361740112304688e-01,2.062642812728881836e+00,6.587115010859332376e-01,0.000000000000000000e+00,1.120000000000000000e+02
0.000000000000000000e+00,1.000000000000000000e+00,0.000000000000000000e+00,6.600000000000000000e+01,7.749000000000000000e+03,3.228528499603271484e-01,1.584662914276123047e+00,2.771234812483720500e-01,0.000000000000000000e+00,1.120000000000000000e+02
1.000000000000000000e+00,1.000000000000000000e+00,1.000000000000000000e+00,6.100000000000000000e+01,7.810000000000000000e+03,3.145558834075927734e-01,1.728145122528076172e+00,4.217977087321593266e-01,0.000000000000000000e+00,1.120000000000000000e+02
0.000000000000000000e+00,1.000000000000000000e+00,0.000000000000000000e+00,6.300000000000000000e+01,7.873000000000000000e+03,3.052699565887451172e-01,1.886334896087646484e+00,5.915014233023151435e-01,0.000000000000000000e+00,1.120000000000000000e+02
0.000000000000000000e+00,1.000000000000000000e+00,0.000000000000000000e+00,6.600000000000000000e+01,7.939000000000000000e+03,3.300361633300781250e-01,2.043927907943725586e+00,7.185292084985874794e-01,0.000000000000000000e+00,1.120000000000000000e+02
1.000000000000000000e+00,1.000000000000000000e+00,1.000000000000000000e+00,6.800000000000000000e+01,8.007000000000000000e+03,2.391500473022460938e-01,1.875849008560180664e+00,6.444743191017876516e-01,0.000000000000000000e+00,1.120000000000000000e+02
1.000000000000000000e+00,1.000000000000000000e+00,1.000000000000000000e+00,6.000000000000000000e+01,8.067000000000000000e+03,3.704731464385986328e-01,1.904173135757446289e+00,5.487608312176659453e-01,0.000000000000000000e+00,1.120000000000000000e+02
0.000000000000000000e+00,1.000000000000000000e+00,0.000000000000000000e+00,6.300000000000000000e+01,8.130000000000000000e+03,2.909049987792968750e-01,1.839387893676757812e+00,5.548650647376355272e-01,0.000000000000000000e+00,1.120000000000000000e+02
0.000000000000000000e+00,1.000000000000000000e+00,0.000000000000000000e+00,6.500000000000000000e+01,8.195000000000000000e+03,3.346180915832519531e-01,1.704434871673583984e+00,3.761704187984778458e-01,0.000000000000000000e+00,1.120000000000000000e+02
0.000000000000000000e+00,1.000000000000000000e+00,0.000000000000000000e+00,6.800000000000000000e+01,8.263000000000000000e+03,2.876310348510742188e-01,1.918935060501098633e+00,6.448696615570840285e-01,0.000000000000000000e+00,1.120000000000000000e+02
0.000000000000000000e+00,1.000000000000000000e+00,0.000000000000000000e+00,6.100000000000000000e+01,8.324000000000000000e+03,3.450269699096679688e-01,1.749541044235229492e+00,4.113491707211555104e-01,0.000000000000000000e+00,1.120000000000000000e+02
0.000000000000000000e+00,1.000000000000000000e+00,0.000000000000000000e+00,6.600000000000000000e+01,8.390000000000000000e+03,2.881081104278564453e-01,1.661334991455078125e+00,3.893691386230450080e-01,0.000000000000000000e+00,1.120000000000000000e+02
0.000000000000000000e+00,1.000000000000000000e+00,0.000000000000000000e+00,7.000000000000000000e+01,8.460000000000000000e+03,4.225850105285644531e-01,2.149593114852905273e+00,7.386630932425359841e-01,0.000000000000000000e+00,1.120000000000000000e+02
1.000000000000000000e+00,1.000000000000000000e+00,1.000000000000000000e+00,6.700000000000000000e+01,8.527000000000000000e+03,2.876310348510742188e-01,1.698349952697753906e+00,4.207112153313012914e-01,0.000000000000000000e+00,1.120000000000000000e+02
0.000000000000000000e+00,1.000000000000000000e+00,0.000000000000000000e+00,6.200000000000000000e+01,8.589000000000000000e+03,3.556230068206787109e-01,1.888478994369506836e+00,5.424539759399740202e-01,0.000000000000000000e+00,1.120000000000000000e+02
0.000000000000000000e+00,1.000000000000000000e+00,0.000000000000000000e+00,6.100000000000000000e+01,8.650000000000000000e+03,2.954339981079101562e-01,1.867834091186523438e+00,5.769184244237228754e-01,0.000000000000000000e+00,1.120000000000000000e+02
1.000000000000000000e+00,1.000000000000000000e+00,1.000000000000000000e+00,6.300000000000000000e+01,8.713000000000000000e+03,2.667670249938964844e-01,1.546238899230957031e+00,2.901652271382769710e-01,0.000000000000000000e+00,1.120000000000000000e+02
1.000000000000000000e+00,1.000000000000000000e+00,1.000000000000000000e+00,6.600000000000000000e+01,8.779000000000000000e+03,4.288079738616943359e-01,2.107280015945434570e+00,6.804100107661286145e-01,0.000000000000000000e+00,1.120000000000000000e+02
0.000000000000000000e+00,1.000000000000000000e+00,0.000000000000000000e+00,6.600000000000000000e+01,8.845000000000000000e+03,3.448369503021240234e-01,2.046468019485473633e+00,7.268634781267420131e-01,0.000000000000000000e+00,1.120000000000000000e+02
0.000000000000000000e+00,1.000000000000000000e+00,0.000000000000000000e+00,6.400000000000000000e+01,8.909000000000000000e+03,2.660248279571533203e-01,1.636218070983886719e+00,3.801420779687079698e-01,0.000000000000000000e+00,1.120000000000000000e+02
0.000000000000000000e+00,1.000000000000000000e+00,0.000000000000000000e+00,5.600000000000000000e+01,8.965000000000000000e+03,3.087048530578613281e-01,1.654188871383666992e+00,3.676943176100584409e-01,0.000000000000000000e+00,1.120000000000000000e+02
0.000000000000000000e+00,1.000000000000000000e+00,0.000000000000000000e+00,6.000000000000000000e+01,9.025000000000000000e+03,3.141291141510009766e-01,1.850695848464965820e+00,5.349212200370350168e-01,0.000000000000000000e+00,1.120000000000000000e+02
1.000000000000000000e+00,1.000000000000000000e+00,1.000000000000000000e+00,6.900000000000000000e+01,9.094000000000000000e+03,3.201220035552978516e-01,1.817642927169799805e+00,5.026273313647744434e-01,0.000000000000000000e+00,1.120000000000000000e+02
1.000000000000000000e+00,1.000000000000000000e+00,1.000000000000000000e+00,6.300000000000000000e+01,9.157000000000000000e+03,3.226180076599121094e-01,1.661129951477050781e+00,3.472860619671417903e-01,0.000000000000000000e+00,1.120000000000000000e+02
1.000000000000000000e+00,1.000000000000000000e+00,1.000000000000000000e+00,6.400000000000000000e+01,9.221000000000000000e+03,3.525810241699218750e-01,1.747210025787353516e+00,4.110891771884855883e-01,0.000000000000000000e+00,1.120000000000000000e+02
1.000000000000000000e+00,1.000000000000000000e+00,1.000000000000000000e+00,6.100000000000000000e+01,9.282000000000000000e+03,2.556321620941162109e-01,1.743402957916259766e+00,5.044681679238351979e-01,0.000000000000000000e+00,1.120000000000000000e+02
1.000000000000000000e+00,1.000000000000000000e+00,1.000000000000000000e+00,6.600000000000000000e+01,9.348000000000000000e+03,3.196711540222167969e-01,1.849017858505249023e+00,5.368479407148423199e-01,0.000000000000000000e+00,1.120000000000000000e+02
1.000000000000000000e+00,0.000000000000000000e+00,0.000000000000000000e+00,4.300000000000000000e+01,9.391000000000000000e+03,3.237960338592529297e-01,2.055989027023315430e+00,7.426193876203999178e-01,1.000000000000000000e+00,1.110000000000000000e+02
1.000000000000000000e+00,0.000000000000000000e+00,0.000000000000000000e+00,4.800000000000000000e+01,9.439000000000000000e+03,3.818919658660888672e-01,1.830357789993286133e+00,4.566776528102188815e-01,0.000000000000000000e+00,1.110000000000000000e+02
0.000000000000000000e+00,0.000000000000000000e+00,1.000000000000000000e+00,4.200000000000000000e+01,9.481000000000000000e+03,3.966219425201416016e-01,1.947190999984741211e+00,5.537786559571040712e-01,0.000000000000000000e+00,1.110000000000000000e+02
1.000000000000000000e+00,0.000000000000000000e+00,0.000000000000000000e+00,4.200000000000000000e+01,9.523000000000000000e+03,3.037619590759277344e-01,1.968843936920166016e+00,6.725659890904243099e-01,0.000000000000000000e+00,1.110000000000000000e+02
0.000000000000000000e+00,1.000000000000000000e+00,0.000000000000000000e+00,5.900000000000000000e+01,9.582000000000000000e+03,3.541109561920166016e-01,1.933640956878662109e+00,5.896504470826919864e-01,0.000000000000000000e+00,1.110000000000000000e+02
1.000000000000000000e+00,1.000000000000000000e+00,1.000000000000000000e+00,5.500000000000000000e+01,9.637000000000000000e+03,4.028480052947998047e-01,1.699094057083129883e+00,3.057005089403851961e-01,0.000000000000000000e+00,1.110000000000000000e+02
0.000000000000000000e+00,1.000000000000000000e+00,0.000000000000000000e+00,5.600000000000000000e+01,9.693000000000000000e+03,3.809001445770263672e-01,1.733208894729614258e+00,3.555588813972222484e-01,0.000000000000000000e+00,1.110000000000000000e+02
0.000000000000000000e+00,1.000000000000000000e+00,0.000000000000000000e+00,5.700000000000000000e+01,9.750000000000000000e+03,2.356419563293457031e-01,1.518687963485717773e+00,2.910056733639655446e-01,0.000000000000000000e+00,1.110000000000000000e+02
0.000000000000000000e+00,1.000000000000000000e+00,0.000000000000000000e+00,5.900000000000000000e+01,9.809000000000000000e+03,3.339800834655761719e-01,1.778629064559936523e+00,4.528358723896496740e-01,0.000000000000000000e+00,1.110000000000000000e+02
0.000000000000000000e+00,1.000000000000000000e+00,0.000000000000000000e+00,5.700000000000000000e+01,9.866000000000000000e+03,2.607679367065429688e-01,1.783612966537475586e+00,5.363570319810082587e-01,0.000000000000000000e+00,1.110000000000000000e+02
1.000000000000000000e+00,1.000000000000000000e+00,1.000000000000000000e+00,5.500000000000000000e+01,9.921000000000000000e+03,2.535719871520996094e-01,1.548201084136962891e+00,3.015334879431003090e-01,0.000000000000000000e+00,1.110000000000000000e+02
0.000000000000000000e+00,1.000000000000000000e+00,0.000000000000000000e+00,5.600000000000000000e+01,9.977000000000000000e+03,3.755021095275878906e-01,1.673768997192382812e+00,3.086425826299431519e-01,0.000000000000000000e+00,1.110000000000000000e+02
1.000000000000000000e+00,1.000000000000000000e+00,1.000000000000000000e+00,5.700000000000000000e+01,1.003400000000000000e+04,2.119019031524658203e-01,1.639963865280151367e+00,4.318255799113218107e-01,0.000000000000000000e+00,1.110000000000000000e+02
0.000000000000000000e+00,1.000000000000000000e+00,0.000000000000000000e+00,5.500000000000000000e+01,1.008900000000000000e+04,2.675068378448486328e-01,1.652576208114624023e+00,4.011745409352300284e-01,0.000000000000000000e+00,1.110000000000000000e+02
0.000000000000000000e+00,1.000000000000000000e+00,0.000000000000000000e+00,6.100000000000000000e+01,1.015000000000000000e+04,3.250048160552978516e-01,1.664970874786376953e+00,3.495078927600727137e-01,0.000000000000000000e+00,1.110000000000000000e+02
1.000000000000000000e+00,1.000000000000000000e+00,1.000000000000000000e+00,5.300000000000000000e+01,1.020300000000000000e+04,1.893920898437500000e-01,1.607343912124633789e+00,4.234896135399210393e-01,0.000000000000000000e+00,1.110000000000000000e+02
0.000000000000000000e+00,1.000000000000000000e+00,0.000000000000000000e+00,5.400000000000000000e+01,1.025700000000000000e+04,3.343682289123535156e-01,2.057646989822387695e+00,7.308510212040325582e-01,0.000000000000000000e+00,1.110000000000000000e+02
1.000000000000000000e+00,1.000000000000000000e+00,1.000000000000000000e+00,5.600000000000000000e+01,1.031300000000000000e+04,2.514491081237792969e-01,1.929545879364013672e+00,6.937991198042010588e-01,0.000000000000000000e+00,1.110000000000000000e+02
1.000000000000000000e+00,1.000000000000000000e+00,1.000000000000000000e+00,5.600000000000000000e+01,1.036900000000000000e+04,2.111411094665527344e-01,1.794135093688964844e+00,6.047099164493168200e-01,0.000000000000000000e+00,1.110000000000000000e+02
1.000000000000000000e+00,1.000000000000000000e+00,1.000000000000000000e+00,5.200000000000000000e+01,1.042100000000000000e+04,2.841939926147460938e-01,1.590902090072631836e+00,3.126452509092097487e-01,0.000000000000000000e+00,1.110000000000000000e+02
0.000000000000000000e+00,1.000000000000000000e+00,0.000000000000000000e+00,5.700000000000000000e+01,1.047800000000000000e+04,3.041410446166992188e-01,1.793853044509887695e+00,5.063117371804710665e-01,0.000000000000000000e+00,1.110000000000000000e+02
0.000000000000000000e+00,1.000000000000000000e+00,0.000000000000000000e+00,5.600000000000000000e+01,1.053400000000000000e+04,2.630748748779296875e-01,1.583033084869384766e+00,3.228988389223289013e-01,0.000000000000000000e+00,1.110000000000000000e+02
0.000000000000000000e+00,1.000000000000000000e+00,0.000000000000000000e+00,5.500000000000000000e+01,1.058900000000000000e+04,2.877049446105957031e-01,2.026690006256103516e+00,7.491642677209916501e-01,0.000000000000000000e+00,1.110000000000000000e+02
1.000000000000000000e+00,1.000000000000000000e+00,1.000000000000000000e+00,6.100000000000000000e+01,1.065000000000000000e+04,2.714629173278808594e-01,1.889693975448608398e+00,6.223797085324733747e-01,0.000000000000000000e+00,1.110000000000000000e+02
1.000000000000000000e+00,1.000000000000000000e+00,1.000000000000000000e+00,5.700000000000000000e+01,1.070700000000000000e+04,4.013149738311767578e-01,2.006375074386596680e+00,6.121036177562915181e-01,0.000000000000000000e+00,1.110000000000000000e+02
0.000000000000000000e+00,0.000000000000000000e+00,1.000000000000000000e+00,3.700000000000000000e+01,1.074400000000000000e+04,2.323181629180908203e-01,1.701851844787597656e+00,4.808146732058848905e-01,1.000000000000000000e+00,1.120000000000000000e+02
0.000000000000000000e+00,1.000000000000000000e+00,0.000000000000000000e+00,6.100000000000000000e+01,1.080500000000000000e+04,3.132820129394531250e-01,1.955768823623657227e+00,6.531234517443073040e-01,0.000000000000000000e+00,1.120000000000000000e+02
0.000000000000000000e+00,1.000000000000000000e+00,0.000000000000000000e+00,6.200000000000000000e+01,1.086700000000000000e+04,3.008279800415039062e-01,1.695194005966186523e+00,3.985742543128675819e-01,0.000000000000000000e+00,1.120000000000000000e+02
1.000000000000000000e+00,1.000000000000000000e+00,1.000000000000000000e+00,5.400000000000000000e+01,1.092100000000000000e+04,2.444739341735839844e-01,1.570319890975952148e+00,3.523138973026038179e-01,0.000000000000000000e+00,1.120000000000000000e+02
0.000000000000000000e+00,1.000000000000000000e+00,0.000000000000000000e+00,6.700000000000000000e+01,1.098800000000000000e+04,2.771499156951904297e-01,1.951109170913696289e+00,6.697956832284819306e-01,0.000000000000000000e+00,1.120000000000000000e+02
1.000000000000000000e+00,1.000000000000000000e+00,1.000000000000000000e+00,5.900000000000000000e+01,1.104700000000000000e+04,2.872760295867919922e-01,1.888339996337890625e+00,6.082663827590041317e-01,0.000000000000000000e+00,1.120000000000000000e+02
0.000000000000000000e+00,1.000000000000000000e+00,0.000000000000000000e+00,5.400000000000000000e+01,1.110100000000000000e+04,2.979130744934082031e-01,1.783339977264404297e+00,4.917218013955528821e-01,0.000000000000000000e+00,1.120000000000000000e+02
1.000000000000000000e+00,1.000000000000000000e+00,1.000000000000000000e+00,5.700000000000000000e+01,1.115800000000000000e+04,2.526988983154296875e-01,1.856315135955810547e+00,6.146161307134709872e-01,0.000000000000000000e+00,1.120000000000000000e+02
0.000000000000000000e+00,1.000000000000000000e+00,0.000000000000000000e+00,6.200000000000000000e+01,1.122000000000000000e+04,2.889380455017089844e-01,1.742654800415039062e+00,4.741368133998500323e-01,0.000000000000000000e+00,1.120000000000000000e+02
1.000000000000000000e+00,1.000000000000000000e+00,1.000000000000000000e+00,5.700000000000000000e+01,1.127700000000000000e+04,1.979269981384277344e-01,1.559018850326538086e+00,3.665858247208791942e-01,0.000000000000000000e+00,1.120000000000000000e+02
1.000000000000000000e+00,1.000000000000000000e+00,1.000000000000000000e+00,6.000000000000000000e+01,1.133700000000000000e+04,2.891738414764404297e-01,1.834907054901123047e+00,5.513272479763491329e-01,0.000000000000000000e+00,1.120000000000000000e+02
0.000000000000000000e+00,1.000000000000000000e+00,0.000000000000000000e+00,5.900000000000000000e+01,1.139600000000000000e+04,2.989580631256103516e-01,1.679245948791503906e+00,3.808249998778047707e-01,0.000000000000000000e+00,1.120000000000000000e+02
1.000000000000000000e+00,1.000000000000000000e+00,1.000000000000000000e+00,5.200000000000000000e+01,1.144800000000000000e+04,2.382869720458984375e-01,1.728755235671997070e+00,5.094162035714318026e-01,0.000000000000000000e+00,1.120000000000000000e+02
1.000000000000000000e+00,1.000000000000000000e+00,1.000000000000000000e+00,6.200000000000000000e+01,1.151000000000000000e+04,2.642071247100830078e-01,1.765808820724487305e+00,5.086437490598247901e-01,0.000000000000000000e+00,1.120000000000000000e+02
1.000000000000000000e+00,1.000000000000000000e+00,1.000000000000000000e+00,5.200000000000000000e+01,1.156200000000000000e+04,2.355279922485351562e-01,1.815698862075805664e+00,5.909429338300581369e-01,0.000000000000000000e+00,1.120000000000000000e+02
1.000000000000000000e+00,1.000000000000000000e+00,1.000000000000000000e+00,5.600000000000000000e+01,1.161800000000000000e+04,2.068700790405273438e-01,1.530160188674926758e+00,3.380695771264232707e-01,0.000000000000000000e+00,1.120000000000000000e+02
1.000000000000000000e+00,0.000000000000000000e+00,0.000000000000000000e+00,3.500000000000000000e+01,1.165300000000000000e+04,2.015390396118164062e-01,1.746899843215942383e+00,5.514370380669564309e-01,0.000000000000000000e+00,1.120000000000000000e+02
1.000000000000000000e+00,1.000000000000000000e+00,1.000000000000000000e+00,6.400000000000000000e+01,1.171700000000000000e+04,3.246679306030273438e-01,1.914365053176879883e+00,5.991399744824695839e-01,0.000000000000000000e+00,1.120000000000000000e+02
0.000000000000000000e+00,1.000000000000000000e+00,0.000000000000000000e+00,5.500000000000000000e+01,1.177200000000000000e+04,3.090348243713378906e-01,1.693104982376098633e+00,3.924771170586275337e-01,0.000000000000000000e+00,1.120000000000000000e+02
0.000000000000000000e+00,1.000000000000000000e+00,0.000000000000000000e+00,6.000000000000000000e+01,1.183200000000000000e+04,3.398549556732177734e-01,1.727936029434204102e+00,4.037863968464207587e-01,0.000000000000000000e+00,1.120000000000000000e+02
1.000000000000000000e+00,1.000000000000000000e+00,1.000000000000000000e+00,6.000000000000000000e+01,1.189200000000000000e+04,3.555729389190673828e-01,1.978842973709106445e+00,6.324108520848681358e-01,0.000000000000000000e+00,1.120000000000000000e+02
0.000000000000000000e+00,1.000000000000000000e+00,0.000000000000000000e+00,5.500000000000000000e+01,1.194700000000000000e+04,3.041999340057373047e-01,1.841017007827758789e+00,5.404299916583998886e-01,0.000000000000000000e+00,1.120000000000000000e+02
0.000000000000000000e+00,1.000000000000000000e+00,0.000000000000000000e+00,5.600000000000000000e+01,1.200300000000000000e+04,3.460819721221923828e-01,2.034367799758911133e+00,6.911342433197735780e-01,0.000000000000000000e+00,1.120000000000000000e+02
1.000000000000000000e+00,1.000000000000000000e+00,1.000000000000000000e+00,6.200000000000000000e+01,1.206500000000000000e+04,3.218309879302978516e-01,2.040424823760986328e+00,7.315502454958469070e-01,0.000000000000000000e+00,1.120000000000000000e+02
1.000000000000000000e+00,1.000000000000000000e+00,1.000000000000000000e+00,6.000000000000000000e+01,1.212500000000000000e+04,2.800898551940917969e-01,1.710783958435058594e+00,4.260347700105427959e-01,0.000000000000000000e+00,1.120000000000000000e+02
0.000000000000000000e+00,1.000000000000000000e+00,0.000000000000000000e+00,6.300000000000000000e+01,1.218800000000000000e+04,2.759790420532226562e-01,1.851835966110229492e+00,5.943482543571092513e-01,0.000000000000000000e+00,1.120000000000000000e+02
1.000000000000000000e+00,1.000000000000000000e+00,1.000000000000000000e+00,5.400000000000000000e+01,1.224200000000000000e+04,2.290039062500000000e-01,1.517765998840332031e+00,2.958402126045256431e-01,0.000000000000000000e+00,1.120000000000000000e+02
0.000000000000000000e+00,1.000000000000000000e+00,0.000000000000000000e+00,5.400000000000000000e+01,1.229600000000000000e+04,3.385660648345947266e-01,1.639970779418945312e+00,3.188734461096724981e-01,0.000000000000000000e+00,1.120000000000000000e+02
1.000000000000000000e+00,1.000000000000000000e+00,1.000000000000000000e+00,5.900000000000000000e+01,1.235500000000000000e+04,3.594920635223388672e-01,1.997398853302001953e+00,6.495682995093332579e-01,0.000000000000000000e+00,1.120000000000000000e+02
0.000000000000000000e+00,1.000000000000000000e+00,0.000000000000000000e+00,6.000000000000000000e+01,1.241500000000000000e+04,2.995450496673583984e-01,1.553434848785400391e+00,2.534628647185302452e-01,0.000000000000000000e+00,1.120000000000000000e+02
0.000000000000000000e+00,1.000000000000000000e+00,0.000000000000000000e+00,6.100000000000000000e+01,1.247600000000000000e+04,5.435931682586669922e-01,2.191910982131958008e+00,6.616064862237441835e-01,0.000000000000000000e+00,1.120000000000000000e+02
1.000000000000000000e+00,1.000000000000000000e+00,1.000000000000000000e+00,6.100000000000000000e+01,1.253700000000000000e+04,2.453420162200927734e-01,1.555655002593994141e+00,3.176605237157851258e-01,0.000000000000000000e+00,1.120000000000000000e+02
0.000000000000000000e+00,1.000000000000000000e+00,0.000000000000000000e+00,5.900000000000000000e+01,1.259600000000000000e+04,2.977409362792968750e-01,1.943135976791381836e+00,6.438200877480084738e-01,0.000000000000000000e+00,1.120000000000000000e+02
0.000000000000000000e+00,1.000000000000000000e+00,0.000000000000000000e+00,6.000000000000000000e+01,1.265600000000000000e+04,3.114459514617919922e-01,2.001245021820068359e+00,6.950406265761791547e-01,0.000000000000000000e+00,1.120000000000000000e+02
0.000000000000000000e+00,1.000000000000000000e+00,0.000000000000000000e+00,5.600000000000000000e+01,1.271200000000000000e+04,3.445761203765869141e-01,1.941050052642822266e+00,6.028994235567561866e-01,0.000000000000000000e+00,1.120000000000000000e+02
0.000000000000000000e+00,0.000000000000000000e+00,1.000000000000000000e+00,3.900000000000000000e+01,1.275100000000000000e+04,2.936029434204101562e-01,1.801003932952880859e+00,5.040344197110335767e-01,1.000000000000000000e+00,1.110000000000000000e+02
0.000000000000000000e+00,1.000000000000000000e+00,0.000000000000000000e+00,5.600000000000000000e+01,1.280700000000000000e+04,3.045458793640136719e-01,1.568727016448974609e+00,2.730584065729307341e-01,0.000000000000000000e+00,1.110000000000000000e+02
0.000000000000000000e+00,1.000000000000000000e+00,0.000000000000000000e+00,6.400000000000000000e+01,1.287100000000000000e+04,3.519890308380126953e-01,1.688720941543579102e+00,3.450742231656124259e-01,0.000000000000000000e+00,1.110000000000000000e+02
1.000000000000000000e+00,1.000000000000000000e+00,1.000000000000000000e+00,5.600000000000000000e+01,1.292700000000000000e+04,2.566401958465576172e-01,1.950200080871582031e+00,7.115808046072684689e-01,0.000000000000000000e+00,1.110000000000000000e+02
0.000000000000000000e+00,1.000000000000000000e+00,0.000000000000000000e+00,5.500000000000000000e+01,1.298200000000000000e+04,3.017508983612060547e-01,1.681441068649291992e+00,3.933984677127733698e-01,0.000000000000000000e+00,1.110000000000000000e+02
0.000000000000000000e+00,1.000000000000000000e+00,0.000000000000000000e+00,5.600000000000000000e+01,1.303800000000000000e+04,3.415260314941406250e-01,1.742603063583374023e+00,4.193175080389625609e-01,0.000000000000000000e+00,1.110000000000000000e+02
0.000000000000000000e+00,1.000000000000000000e+00,0.000000000000000000e+00,5.600000000000000000e+01,1.309400000000000000e+04,2.584969997406005859e-01,1.652831077575683594e+00,4.055208384626064477e-01,0.000000000000000000e+00,1.110000000000000000e+02
1.000000000000000000e+00,1.000000000000000000e+00,1.000000000000000000e+00,6.200000000000000000e+01,1.315600000000000000e+04,2.855501174926757812e-01,1.966096878051757812e+00,6.880098305535831127e-01,0.000000000000000000e+00,1.110000000000000000e+02
0.000000000000000000e+00,1.000000000000000000e+00,0.000000000000000000e+00,5.900000000000000000e+01,1.321500000000000000e+04,3.109760284423828125e-01,1.998463869094848633e+00,6.865189215773643827e-01,0.000000000000000000e+00,1.110000000000000000e+02
0.000000000000000000e+00,1.000000000000000000e+00,0.000000000000000000e+00,5.600000000000000000e+01,1.327100000000000000e+04,2.990441322326660156e-01,1.765753030776977539e+00,4.692208295588568001e-01,0.000000000000000000e+00,1.110000000000000000e+02
0.000000000000000000e+00,1.000000000000000000e+00,0.000000000000000000e+00,5.300000000000000000e+01,1.332400000000000000e+04,3.204431533813476562e-01,1.989814996719360352e+00,6.755153396100617158e-01,0.000000000000000000e+00,1.110000000000000000e+02
0.000000000000000000e+00,1.000000000000000000e+00,0.000000000000000000e+00,5.900000000000000000e+01,1.338300000000000000e+04,3.152410984039306641e-01,1.945761919021606445e+00,6.380393374805690687e-01,0.000000000000000000e+00,1.110000000000000000e+02
0.000000000000000000e+00,1.000000000000000000e+00,0.000000000000000000e+00,5.600000000000000000e+01,1.343900000000000000e+04,2.912368774414062500e-01,1.908998012542724609e+00,6.303579625521148477e-01,0.000000000000000000e+00,1.110000000000000000e+02
0.000000000000000000e+00,1.000000000000000000e+00,0.000000000000000000e+00,6.300000000000000000e+01,1.350200000000000000e+04,2.593491077423095703e-01,1.651090145111083984e+00,4.150743804078815824e-01,0.000000000000000000e+00,1.110000000000000000e+02
0.000000000000000000e+00,0.000000000000000000e+00,1.000000000000000000e+00,5.000000000000000000e+01,1.355200000000000000e+04,1.903619766235351562e-01,1.684217929840087891e+00,5.158684322581599258e-01,0.000000000000000000e+00,1.110000000000000000e+02
1.000000000000000000e+00,1.000000000000000000e+00,1.000000000000000000e+00,5.600000000000000000e+01,1.360800000000000000e+04,5.014259815216064453e-01,1.888741970062255859e+00,3.881108263706014583e-01,0.000000000000000000e+00,1.110000000000000000e+02
1.000000000000000000e+00,1.000000000000000000e+00,1.000000000000000000e+00,5.200000000000000000e+01,1.366000000000000000e+04,4.351429939270019531e-01,1.925256967544555664e+00,4.966482637757217433e-01,0.000000000000000000e+00,1.110000000000000000e+02
1.000000000000000000e+00,0.000000000000000000e+00,0.000000000000000000e+00,3.600000000000000000e+01,1.369600000000000000e+04,3.845589160919189453e-01,1.747015953063964844e+00,3.771062038723682064e-01,0.000000000000000000e+00,1.110000000000000000e+02
1.000000000000000000e+00,1.000000000000000000e+00,1.000000000000000000e+00,5.600000000000000000e+01,1.375200000000000000e+04,5.416250228881835938e-01,1.983566999435424805e+00,4.606450497073530936e-01,0.000000000000000000e+00,1.110000000000000000e+02
0.000000000000000000e+00,1.000000000000000000e+00,0.000000000000000000e+00,6.000000000000000000e+01,1.381200000000000000e+04,3.173580169677734375e-01,1.598701000213623047e+00,2.928842797611276305e-01,0.000000000000000000e+00,1.110000000000000000e+02
0.000000000000000000e+00,1.000000000000000000e+00,0.000000000000000000e+00,5.200000000000000000e+01,1.386400000000000000e+04,4.164960384368896484e-01,2.088421821594238281e+00,6.809179726906160468e-01,0.000000000000000000e+00,1.110000000000000000e+02
1.000000000000000000e+00,1.000000000000000000e+00,1.000000000000000000e+00,5.600000000000000000e+01,1.392000000000000000e+04,2.452819347381591797e-01,1.916422843933105469e+00,6.807269561855118223e-01,0.000000000000000000e+00,1.110000000000000000e+02
0.000000000000000000e+00,1.000000000000000000e+00,0.000000000000000000e+00,5.500000000000000000e+01,1.397500000000000000e+04,2.895450592041015625e-01,1.835904121398925781e+00,5.667818689882146987e-01,0.000000000000000000e+00,1.110000000000000000e+02
1.000000000000000000e+00,1.000000000000000000e+00,1.000000000000000000e+00,6.300000000000000000e+01,1.403800000000000000e+04,1.856169700622558594e-01,1.849853992462158203e+00,6.665837393330897864e-01,0.000000000000000000e+00,1.110000000000000000e+02
0.000000000000000000e+00,1.000000000000000000e+00,0.000000000000000000e+00,5.600000000000000000e+01,1.409400000000000000e+04,2.636549472808837891e-01,1.923115968704223633e+00,6.564002310860219680e-01,0.000000000000000000e+00,1.110000000000000000e+02
1.000000000000000000e+00,0.000000000000000000e+00,0.000000000000000000e+00,4.000000000000000000e+01,1.413400000000000000e+04,1.790361404418945312e-01,1.887315988540649414e+00,7.103184256164624122e-01,1.000000000000000000e+00,1.120000000000000000e+02
1.000000000000000000e+00,1.000000000000000000e+00,1.000000000000000000e+00,6.800000000000000000e+01,1.420200000000000000e+04,3.019759654998779297e-01,1.805085897445678711e+00,5.156604448045687406e-01,0.000000000000000000e+00,1.120000000000000000e+02
0.000000000000000000e+00,1.000000000000000000e+00,0.000000000000000000e+00,6.900000000000000000e+01,1.427100000000000000e+04,3.053009510040283203e-01,1.914496183395385742e+00,6.134509212550356416e-01,0.000000000000000000e+00,1.120000000000000000e+02
1.000000000000000000e+00,1.000000000000000000e+00,1.000000000000000000e+00,7.000000000000000000e+01,1.434100000000000000e+04,3.663899898529052734e-01,1.735879898071289062e+00,3.829460475621037641e-01,0.000000000000000000e+00,1.120000000000000000e+02
0.000000000000000000e+00,1.000000000000000000e+00,0.000000000000000000e+00,6.900000000000000000e+01,1.441000000000000000e+04,3.514451980590820312e-01,2.081330776214599609e+00,7.305782385217461927e-01,0.000000000000000000e+00,1.120000000000000000e+02
1.000000000000000000e+00,1.000000000000000000e+00,1.000000000000000000e+00,6.800000000000000000e+01,1.447800000000000000e+04,2.948100566864013672e-01,1.667943000793457031e+00,3.822571750240085220e-01,0.000000000000000000e+00,1.120000000000000000e+02
0.000000000000000000e+00,1.000000000000000000e+00,0.000000000000000000e+00,6.300000000000000000e+01,1.454100000000000000e+04,3.515930175781250000e-01,1.965241909027099609e+00,6.139450109035733405e-01,0.000000000000000000e+00,1.120000000000000000e+02
0.000000000000000000e+00,1.000000000000000000e+00,0.000000000000000000e+00,6.800000000000000000e+01,1.460900000000000000e+04,3.516180515289306641e-01,1.913233995437622070e+00,5.772529833472610505e-01,0.000000000000000000e+00,1.120000000000000000e+02
1.000000000000000000e+00,1.000000000000000000e+00,1.000000000000000000e+00,6.700000000000000000e+01,1.467600000000000000e+04,2.380039691925048828e-01,1.529299020767211914e+00,3.068781519109733957e-01,0.000000000000000000e+00,1.120000000000000000e+02
0.000000000000000000e+00,1.000000000000000000e+00,0.000000000000000000e+00,6.200000000000000000e+01,1.473800000000000000e+04,2.887349128723144531e-01,1.814815998077392578e+00,5.381341986769936359e-01,0.000000000000000000e+00,1.120000000000000000e+02
1.000000000000000000e+00,1.000000000000000000e+00,1.000000000000000000e+00,7.000000000000000000e+01,1.480800000000000000e+04,3.229990005493164062e-01,1.997510910034179688e+00,6.855272084540602329e-01,0.000000000000000000e+00,1.120000000000000000e+02
1.000000000000000000e+00,1.000000000000000000e+00,1.000000000000000000e+00,6.700000000000000000e+01,1.487500000000000000e+04,3.502249717712402344e-01,1.751693010330200195e+00,4.042270622173437800e-01,0.000000000000000000e+00,1.120000000000000000e+02
1.000000000000000000e+00,1.000000000000000000e+00,1.000000000000000000e+00,6.400000000000000000e+01,1.493900000000000000e+04,2.492511272430419922e-01,1.994582176208496094e+00,7.484808987042699258e-01,0.000000000000000000e+00,1.120000000000000000e+02
1.000000000000000000e+00,1.000000000000000000e+00,1.000000000000000000e+00,6.300000000000000000e+01,1.500200000000000000e+04,2.813460826873779297e-01,1.788426876068115234e+00,5.038559058386982148e-01,0.000000000000000000e+00,1.120000000000000000e+02
1.000000000000000000e+00,1.000000000000000000e+00,1.000000000000000000e+00,6.700000000000000000e+01,1.506900000000000000e+04,3.250470161437988281e-01,1.633563041687011719e+00,3.209955052227330130e-01,0.000000000000000000e+00,1.120000000000000000e+02
0.000000000000000000e+00,1.000000000000000000e+00,0.000000000000000000e+00,6.300000000000000000e+01,1.513200000000000000e+04,4.717850685119628906e-01,2.047575235366821289e+00,5.850056979527138434e-01,0.000000000000000000e+00,1.120000000000000000e+02
0.000000000000000000e+00,1.000000000000000000e+00,0.000000000000000000e+00,6.300000000000000000e+01,1.519500000000000000e+04,3.878819942474365234e-01,1.673710823059082031e+00,2.923674206939852471e-01,0.000000000000000000e+00,1.120000000000000000e+02
1.000000000000000000e+00,1.000000000000000000e+00,1.000000000000000000e+00,7.300000000000000000e+01,1.526800000000000000e+04,2.902350425720214844e-01,1.782371997833251953e+00,5.078737190260936840e-01,0.000000000000000000e+00,1.120000000000000000e+02
0.000000000000000000e+00,1.000000000000000000e+00,0.000000000000000000e+00,6.800000000000000000e+01,1.533600000000000000e+04,3.189959526062011719e-01,1.838476896286010742e+00,5.296862986585880728e-01,0.000000000000000000e+00,1.120000000000000000e+02
0.000000000000000000e+00,1.000000000000000000e+00,0.000000000000000000e+00,6.500000000000000000e+01,1.540100000000000000e+04,4.337050914764404297e-01,1.837008953094482422e+00,4.168440026223105277e-01,0.000000000000000000e+00,1.120000000000000000e+02
1.000000000000000000e+00,1.000000000000000000e+00,1.000000000000000000e+00,6.200000000000000000e+01,1.546300000000000000e+04,3.377859592437744141e-01,2.036103010177612305e+00,7.026795651325745684e-01,0.000000000000000000e+00,1.120000000000000000e+02
0.000000000000000000e+00,1.000000000000000000e+00,0.000000000000000000e+00,6.900000000000000000e+01,1.553200000000000000e+04,2.305951118469238281e-01,1.607687950134277344e+00,3.773969339815675395e-01,0.000000000000000000e+00,1.120000000000000000e+02
1.000000000000000000e+00,1.000000000000000000e+00,1.000000000000000000e+00,6.600000000000000000e+01,1.559800000000000000e+04,2.536420822143554688e-01,1.776407957077026367e+00,5.370334960632690002e-01,0.000000000000000000e+00,1.120000000000000000e+02
0.000000000000000000e+00,0.000000000000000000e+00,1.000000000000000000e+00,3.400000000000000000e+01,1.563200000000000000e+04,2.163219451904296875e-01,1.863016128540039062e+00,6.499797074703226318e-01,0.000000000000000000e+00,1.120000000000000000e+02
0.000000000000000000e+00,1.000000000000000000e+00,0.000000000000000000e+00,6.100000000000000000e+01,1.569300000000000000e+04,3.526690006256103516e-01,1.978789091110229492e+00,6.287815930827493904e-01,0.000000000000000000e+00,1.120000000000000000e+02
0.000000000000000000e+00,1.000000000000000000e+00,0.000000000000000000e+00,7.200000000000000000e+01,1.576500000000000000e+04,2.851178646087646484e-01,1.779556035995483398e+00,5.084903320310284469e-01,0.000000000000000000e+00,1.120000000000000000e+02
1.000000000000000000e+00,1.000000000000000000e+00,1.000000000000000000e+00,6.600000000000000000e+01,1.583100000000000000e+04,1.987249851226806641e-01,1.516676902770996094e+00,3.254063282134212476e-01,0.000000000000000000e+00,1.120000000000000000e+02
1.000000000000000000e+00,1.000000000000000000e+00,1.000000000000000000e+00,6.700000000000000000e+01,1.589800000000000000e+04,3.041701316833496094e-01,1.907577991485595703e+00,6.160891452407104563e-01,0.000000000000000000e+00,1.120000000000000000e+02
1.000000000000000000e+00,0.000000000000000000e+00,0.000000000000000000e+00,3.500000000000000000e+01,1.593300000000000000e+04,2.575950622558593750e-01,1.964507818222045898e+00,7.137885855721761708e-01,1.000000000000000000e+00,1.110000000000000000e+02
0.000000000000000000e+00,0.000000000000000000e+00,1.000000000000000000e+00,3.300000000000000000e+01,1.596600000000000000e+04,2.836811542510986328e-01,2.010183095932006836e+00,7.406583768733516759e-01,0.000000000000000000e+00,1.110000000000000000e+02
1.000000000000000000e+00,1.000000000000000000e+00,1.000000000000000000e+00,7.000000000000000000e+01,1.603600000000000000e+04,1.729910373687744141e-01,1.548079967498779297e+00,3.891233160450566775e-01,0.000000000000000000e+00,1.110000000000000000e+02
0.000000000000000000e+00,1.000000000000000000e+00,0.000000000000000000e+00,6.300000000000000000e+01,1.609900000000000000e+04,3.261158466339111328e-01,1.772221088409423828e+00,4.613169106112967044e-01,0.000000000000000000e+00,1.110000000000000000e+02
1.000000000000000000e+00,1.000000000000000000e+00,1.000000000000000000e+00,6.300000000000000000e+01,1.616200000000000000e+04,3.364009857177734375e-01,1.754952907562255859e+00,4.329857848483682492e-01,0.000000000000000000e+00,1.110000000000000000e+02
0.000000000000000000e+00,1.000000000000000000e+00,0.000000000000000000e+00,6.500000000000000000e+01,1.622700000000000000e+04,2.808361053466796875e-01,1.570628881454467773e+00,2.871109940199438326e-01,0.000000000000000000e+00,1.110000000000000000e+02
1.000000000000000000e+00,1.000000000000000000e+00,1.000000000000000000e+00,6.600000000000000000e+01,1.629300000000000000e+04,3.113379478454589844e-01,1.815663099288940430e+00,5.025699631005279278e-01,0.000000000000000000e+00,1.110000000000000000e+02
1.000000000000000000e+00,1.000000000000000000e+00,1.000000000000000000e+00,6.700000000000000000e+01,1.636000000000000000e+04,3.577060699462890625e-01,1.774049043655395508e+00,4.267451711200863085e-01,0.000000000000000000e+00,1.110000000000000000e+02
1.000000000000000000e+00,1.000000000000000000e+00,1.000000000000000000e+00,6.500000000000000000e+01,1.642500000000000000e+04,2.980918884277343750e-01,1.581753969192504883e+00,2.919900791786637084e-01,0.000000000000000000e+00,1.110000000000000000e+02
0.000000000000000000e+00,1.000000000000000000e+00,0.000000000000000000e+00,7.000000000000000000e+01,1.649500000000000000e+04,3.596901893615722656e-01,2.022290945053100586e+00,6.807584702117780440e-01,0.000000000000000000e+00,1.110000000000000000e+02
1.000000000000000000e+00,1.000000000000000000e+00,1.000000000000000000e+00,7.200000000000000000e+01,1.656700000000000000e+04,2.732350826263427734e-01,1.525806188583374023e+00,2.734784013885699361e-01,0.000000000000000000e+00,1.110000000000000000e+02
0.000000000000000000e+00,1.000000000000000000e+00,0.000000000000000000e+00,6.500000000000000000e+01,1.663200000000000000e+04,2.939479351043701172e-01,1.666409015655517578e+00,3.898402433872967254e-01,0.000000000000000000e+00,1.110000000000000000e+02
1.000000000000000000e+00,1.000000000000000000e+00,1.000000000000000000e+00,6.800000000000000000e+01,1.670000000000000000e+04,2.272119522094726562e-01,1.753582954406738281e+00,5.432939080765453177e-01,0.000000000000000000e+00,1.110000000000000000e+02
0.000000000000000000e+00,1.000000000000000000e+00,0.000000000000000000e+00,6.600000000000000000e+01,1.676600000000000000e+04,2.593088150024414062e-01,1.840708017349243164e+00,6.006239727462094891e-01,0.000000000000000000e+00,1.110000000000000000e+02
0.000000000000000000e+00,1.000000000000000000e+00,0.000000000000000000e+00,6.700000000000000000e+01,1.683300000000000000e+04,3.763799667358398438e-01,1.959976911544799805e+00,5.939814292856302469e-01,0.000000000000000000e+00,1.110000000000000000e+02
0.000000000000000000e+00,1.000000000000000000e+00,0.000000000000000000e+00,6.900000000000000000e+01,1.690200000000000000e+04,3.024020195007324219e-01,1.692063093185424805e+00,4.030056007616062419e-01,0.000000000000000000e+00,1.110000000000000000e+02
1.000000000000000000e+00,1.000000000000000000e+00,1.000000000000000000e+00,6.700000000000000000e+01,1.696900000000000000e+04,1.946680545806884766e-01,1.659080028533935547e+00,4.786930690255543630e-01,0.000000000000000000e+00,1.110000000000000000e+02
1.000000000000000000e+00,1.000000000000000000e+00,1.000000000000000000e+00,6.700000000000000000e+01,1.703600000000000000e+04,2.777140140533447266e-01,1.867706060409545898e+00,6.129528701816705505e-01,0.000000000000000000e+00,1.110000000000000000e+02
0.000000000000000000e+00,1.000000000000000000e+00,0.000000000000000000e+00,6.100000000000000000e+01,1.709700000000000000e+04,2.412421703338623047e-01,1.697149038314819336e+00,4.769081722169106197e-01,0.000000000000000000e+00,1.110000000000000000e+02
0.000000000000000000e+00,1.000000000000000000e+00,0.000000000000000000e+00,6.100000000000000000e+01,1.715800000000000000e+04,3.481440544128417969e-01,1.677397012710571289e+00,3.378584343865176365e-01,0.000000000000000000e+00,1.110000000000000000e+02
1.000000000000000000e+00,1.000000000000000000e+00,1.000000000000000000e+00,6.400000000000000000e+01,1.722200000000000000e+04,3.737778663635253906e-01,1.627655029296875000e+00,2.655993831351460277e-01,0.000000000000000000e+00,1.110000000000000000e+02
0.000000000000000000e+00,1.000000000000000000e+00,0.000000000000000000e+00,6.600000000000000000e+01,1.728800000000000000e+04,3.364880084991455078e-01,1.701586961746215820e+00,3.670972189315819256e-01,0.000000000000000000e+00,1.110000000000000000e+02
1.000000000000000000e+00,1.000000000000000000e+00,1.000000000000000000e+00,6.300000000000000000e+01,1.735100000000000000e+04,3.075459003448486328e-01,2.030400037765502930e+00,7.309616439406416699e-01,0.000000000000000000e+00,1.110000000000000000e+02
0.000000000000000000e+00,1.000000000000000000e+00,0.000000000000000000e+00,7.000000000000000000e+01,1.742100000000000000e+04,2.891011238098144531e-01,1.586942195892333984e+00,3.178863518246515807e-01,0.000000000000000000e+00,1.110000000000000000e+02
1.000000000000000000e+00,1.000000000000000000e+00,1.000000000000000000e+00,6.600000000000000000e+01,1.748700000000000000e+04,3.190951347351074219e-01,1.994901895523071289e+00,6.791311830380742931e-01,0.000000000000000000e+00,1.110000000000000000e+02
0.000000000000000000e+00,1.000000000000000000e+00,0.000000000000000000e+00,6.500000000000000000e+01,1.755200000000000000e+04,2.997829914093017578e-01,1.992108106613159180e+00,7.045724351715885181e-01,0.000000000000000000e+00,1.110000000000000000e+02
1.000000000000000000e+00,1.000000000000000000e+00,1.000000000000000000e+00,6.200000000000000000e+01,1.761400000000000000e+04,2.349519729614257812e-01,1.772228956222534180e+00,5.436906059011925585e-01,0.000000000000000000e+00,1.110000000000000000e+02
1.000000000000000000e+00,0.000000000000000000e+00,0.000000000000000000e+00,3.600000000000000000e+01,1.765000000000000000e+04,3.093121051788330078e-01,1.566486120223999023e+00,2.770958713420569319e-01,1.000000000000000000e+00,1.120000000000000000e+02
0.000000000000000000e+00,1.000000000000000000e+00,0.000000000000000000e+00,6.100000000000000000e+01,1.771100000000000000e+04,3.667011260986328125e-01,1.627237081527709961e+00,2.710236062344558161e-01,0.000000000000000000e+00,1.120000000000000000e+02
1.000000000000000000e+00,1.000000000000000000e+00,1.000000000000000000e+00,6.600000000000000000e+01,1.777700000000000000e+04,3.583128452301025391e-01,1.687391042709350586e+00,3.417136873148812759e-01,0.000000000000000000e+00,1.120000000000000000e+02
0.000000000000000000e+00,1.000000000000000000e+00,0.000000000000000000e+00,6.500000000000000000e+01,1.784200000000000000e+04,3.360521793365478516e-01,2.010797977447509766e+00,6.854916390138239279e-01,0.000000000000000000e+00,1.120000000000000000e+02
1.000000000000000000e+00,1.000000000000000000e+00,1.000000000000000000e+00,6.000000000000000000e+01,1.790200000000000000e+04,3.489239215850830078e-01,2.077328920364379883e+00,7.294566605988626051e-01,0.000000000000000000e+00,1.120000000000000000e+02
1.000000000000000000e+00,1.000000000000000000e+00,1.000000000000000000e+00,6.000000000000000000e+01,1.796200000000000000e+04,3.329501152038574219e-01,1.801751136779785156e+00,4.815397712278456366e-01,0.000000000000000000e+00,1.120000000000000000e+02
1.000000000000000000e+00,1.000000000000000000e+00,1.000000000000000000e+00,6.800000000000000000e+01,1.803000000000000000e+04,2.560019493103027344e-01,1.702219009399414062e+00,4.671731435413248867e-01,0.000000000000000000e+00,1.120000000000000000e+02
1.000000000000000000e+00,1.000000000000000000e+00,1.000000000000000000e+00,6.300000000000000000e+01,1.809300000000000000e+04,2.793691158294677734e-01,1.586724996566772461e+00,3.040757548269857335e-01,0.000000000000000000e+00,1.120000000000000000e+02
1.000000000000000000e+00,1.000000000000000000e+00,1.000000000000000000e+00,6.900000000000000000e+01,1.816200000000000000e+04,3.210659027099609375e-01,2.057399034500122070e+00,7.444070531713558037e-01,0.000000000000000000e+00,1.120000000000000000e+02
1.000000000000000000e+00,1.000000000000000000e+00,1.000000000000000000e+00,6.500000000000000000e+01,1.822700000000000000e+04,3.091428279876708984e-01,1.745166063308715820e+00,4.565259936944873198e-01,0.000000000000000000e+00,1.120000000000000000e+02
0.000000000000000000e+00,1.000000000000000000e+00,0.000000000000000000e+00,6.900000000000000000e+01,1.829600000000000000e+04,3.042230606079101562e-01,1.802967071533203125e+00,5.094909663765978536e-01,0.000000000000000000e+00,1.120000000000000000e+02
1.000000000000000000e+00,1.000000000000000000e+00,1.000000000000000000e+00,6.100000000000000000e+01,1.835700000000000000e+04,1.903278827667236328e-01,1.901153802871704102e+00,7.271049544448964230e-01,0.000000000000000000e+00,1.120000000000000000e+02
1.000000000000000000e+00,1.000000000000000000e+00,1.000000000000000000e+00,6.100000000000000000e+01,1.841800000000000000e+04,2.733819484710693359e-01,1.855552911758422852e+00,5.995581898264679133e-01,0.000000000000000000e+00,1.120000000000000000e+02
0.000000000000000000e+00,1.000000000000000000e+00,0.000000000000000000e+00,6.400000000000000000e+01,1.848200000000000000e+04,2.727861404418945312e-01,1.951888084411621094e+00,6.846695352999669915e-01,0.000000000000000000e+00,1.120000000000000000e+02
1.000000000000000000e+00,1.000000000000000000e+00,1.000000000000000000e+00,6.600000000000000000e+01,1.854800000000000000e+04,2.527070045471191406e-01,1.782562017440795898e+00,5.341222695834064726e-01,0.000000000000000000e+00,1.120000000000000000e+02
1.000000000000000000e+00,1.000000000000000000e+00,1.000000000000000000e+00,6.600000000000000000e+01,1.861400000000000000e+04,2.445230484008789062e-01,1.560101985931396484e+00,3.277724568492721424e-01,0.000000000000000000e+00,1.120000000000000000e+02
0.000000000000000000e+00,1.000000000000000000e+00,0.000000000000000000e+00,6.700000000000000000e+01,1.868100000000000000e+04,2.905199527740478516e-01,1.714796066284179688e+00,4.424887662942507682e-01,0.000000000000000000e+00,1.120000000000000000e+02
1.000000000000000000e+00,1.000000000000000000e+00,1.000000000000000000e+00,6.300000000000000000e+01,1.874400000000000000e+04,2.360010147094726562e-01,1.910696029663085938e+00,6.862845718265593309e-01,0.000000000000000000e+00,1.120000000000000000e+02
0.000000000000000000e+00,1.000000000000000000e+00,0.000000000000000000e+00,7.100000000000000000e+01,1.881500000000000000e+04,2.974169254302978516e-01,1.713070869445800781e+00,4.163852719537893821e-01,0.000000000000000000e+00,1.120000000000000000e+02
1.000000000000000000e+00,0.000000000000000000e+00,0.000000000000000000e+00,3.200000000000000000e+01,1.884700000000000000e+04,2.097148895263671875e-01,1.467986822128295898e+00,2.678559648275812832e-01,0.000000000000000000e+00,1.120000000000000000e+02
0.000000000000000000e+00,1.000000000000000000e+00,0.000000000000000000e+00,7.100000000000000000e+01,1.891800000000000000e+04,4.160830974578857422e-01,1.978398799896240234e+00,5.626752145531982441e-01,0.000000000000000000e+00,1.120000000000000000e+02
1.000000000000000000e+00,1.000000000000000000e+00,1.000000000000000000e+00,6.300000000000000000e+01,1.898100000000000000e+04,2.724900245666503906e-01,1.611823797225952148e+00,3.580735573486292789e-01,0.000000000000000000e+00,1.120000000000000000e+02
0.000000000000000000e+00,1.000000000000000000e+00,0.000000000000000000e+00,7.200000000000000000e+01,1.905300000000000000e+04,2.448649406433105469e-01,1.540108919143676758e+00,2.982455350564530150e-01,0.000000000000000000e+00,1.120000000000000000e+02
0.000000000000000000e+00,1.000000000000000000e+00,0.000000000000000000e+00,6.200000000000000000e+01,1.911500000000000000e+04,3.607349395751953125e-01,1.643888950347900391e+00,2.921653823168465225e-01,0.000000000000000000e+00,1.120000000000000000e+02
1.000000000000000000e+00,1.000000000000000000e+00,1.000000000000000000e+00,6.500000000000000000e+01,1.918000000000000000e+04,2.407119274139404297e-01,1.923257827758789062e+00,6.983860813938463918e-01,0.000000000000000000e+00,1.120000000000000000e+02
0.000000000000000000e+00,0.000000000000000000e+00,1.000000000000000000e+00,3.600000000000000000e+01,1.921600000000000000e+04,2.191679477691650391e-01,1.472490072250366211e+00,2.713502596495787067e-01,0.000000000000000000e+00,1.120000000000000000e+02
1.000000000000000000e+00,1.000000000000000000e+00,1.000000000000000000e+00,5.900000000000000000e+01,1.927500000000000000e+04,3.698670864105224609e-01,1.615483999252319336e+00,2.535498761071734997e-01,0.000000000000000000e+00,1.120000000000000000e+02
0.000000000000000000e+00,0.000000000000000000e+00,1.000000000000000000e+00,3.700000000000000000e+01,1.931200000000000000e+04,3.173141479492187500e-01,1.685444116592407227e+00,3.722036320704411039e-01,1.000000000000000000e+00,1.110000000000000000e+02
1.000000000000000000e+00,1.000000000000000000e+00,1.000000000000000000e+00,6.700000000000000000e+01,1.937900000000000000e+04,4.339091777801513672e-01,1.957016944885253906e+00,5.291041352369604267e-01,0.000000000000000000e+00,1.110000000000000000e+02
0.000000000000000000e+00,1.000000000000000000e+00,0.000000000000000000e+00,6.400000000000000000e+01,1.944300000000000000e+04,1.840610504150390625e-01,1.460647106170654297e+00,2.900327588645559285e-01,0.000000000000000000e+00,1.110000000000000000e+02
1.000000000000000000e+00,1.000000000000000000e+00,1.000000000000000000e+00,6.600000000000000000e+01,1.950900000000000000e+04,2.733809947967529297e-01,1.924928903579711914e+00,6.645973053706288880e-01,0.000000000000000000e+00,1.110000000000000000e+02
0.000000000000000000e+00,1.000000000000000000e+00,0.000000000000000000e+00,5.700000000000000000e+01,1.956600000000000000e+04,2.668471336364746094e-01,1.944492101669311523e+00,6.924490786836721146e-01,0.000000000000000000e+00,1.110000000000000000e+02
1.000000000000000000e+00,0.000000000000000000e+00,0.000000000000000000e+00,3.800000000000000000e+01,1.960400000000000000e+04,1.889309883117675781e-01,1.427767038345336914e+00,2.540162928795500208e-01,0.000000000000000000e+00,1.110000000000000000e+02
0.000000000000000000e+00,1.000000000000000000e+00,0.000000000000000000e+00,6.200000000000000000e+01,1.966600000000000000e+04,3.306550979614257812e-01,2.061506986618041992e+00,7.317082064182227619e-01,0.000000000000000000e+00,1.110000000000000000e+02
1.000000000000000000e+00,1.000000000000000000e+00,1.000000000000000000e+00,6.600000000000000000e+01,1.973200000000000000e+04,2.620530128479003906e-01,1.820965051651000977e+00,5.529466069071534706e-01,0.000000000000000000e+00,1.110000000000000000e+02
0.000000000000000000e+00,1.000000000000000000e+00,0.000000000000000000e+00,6.300000000000000000e+01,1.979500000000000000e+04,2.833921909332275391e-01,1.744359016418457031e+00,4.640503493429972148e-01,0.000000000000000000e+00,1.110000000000000000e+02
0.000000000000000000e+00,1.000000000000000000e+00,0.000000000000000000e+00,6.600000000000000000e+01,1.986100000000000000e+04,3.132150173187255859e-01,1.813280105590820312e+00,5.106656106376048498e-01,0.000000000000000000e+00,1.110000000000000000e+02
0.000000000000000000e+00,1.000000000000000000e+00,0.000000000000000000e+00,6.900000000000000000e+01,1.993000000000000000e+04,2.635309696197509766e-01,1.625539064407348633e+00,3.697087068517458386e-01,0.000000000000000000e+00,1.110000000000000000e+02
0.000000000000000000e+00,1.000000000000000000e+00,0.000000000000000000e+00,6.600000000000000000e+01,1.999600000000000000e+04,3.113150596618652344e-01,1.600775957107543945e+00,2.872682077769238562e-01,0.000000000000000000e+00,1.110000000000000000e+02
0.000000000000000000e+00,1.000000000000000000e+00,0.000000000000000000e+00,6.600000000000000000e+01,2.006200000000000000e+04,3.523788452148437500e-01,2.008780956268310547e+00,6.623664783251461685e-01,0.000000000000000000e+00,1.110000000000000000e+02
1.000000000000000000e+00,1.000000000000000000e+00,1.000000000000000000e+00,6.800000000000000000e+01,2.013000000000000000e+04,3.083949089050292969e-01,1.797985792160034180e+00,5.105063196090067201e-01,0.000000000000000000e+00,1.110000000000000000e+02
0.000000000000000000e+00,1.000000000000000000e+00,0.000000000000000000e+00,6.300000000000000000e+01,2.019300000000000000e+04,2.563951015472412109e-01,1.651266098022460938e+00,4.119484258762026174e-01,0.000000000000000000e+00,1.110000000000000000e+02
1.000000000000000000e+00,1.000000000000000000e+00,1.000000000000000000e+00,7.000000000000000000e+01,2.026300000000000000e+04,2.365550994873046875e-01,1.812400102615356445e+00,5.908459028264823054e-01,0.000000000000000000e+00,1.110000000000000000e+02
1.000000000000000000e+00,1.000000000000000000e+00,1.000000000000000000e+00,5.200000000000000000e+01,2.031500000000000000e+04,3.248488903045654297e-01,1.980705976486206055e+00,6.715123945929575289e-01,0.000000000000000000e+00,1.110000000000000000e+02
0.000000000000000000e+00,1.000000000000000000e+00,0.000000000000000000e+00,5.600000000000000000e+01,2.037100000000000000e+04,2.805550098419189453e-01,1.899441957473754883e+00,6.210386525789779455e-01,0.000000000000000000e+00,1.110000000000000000e+02
0.000000000000000000e+00,1.000000000000000000e+00,0.000000000000000000e+00,6.600000000000000000e+01,2.043700000000000000e+04,3.506319522857666016e-01,1.809087991714477539e+00,4.636158561286947699e-01,0.000000000000000000e+00,1.110000000000000000e+02
1.000000000000000000e+00,1.000000000000000000e+00,1.000000000000000000e+00,6.500000000000000000e+01,2.050200000000000000e+04,2.566981315612792969e-01,1.878965139389038086e+00,6.424765442938638049e-01,0.000000000000000000e+00,1.110000000000000000e+02
1.000000000000000000e+00,1.000000000000000000e+00,1.000000000000000000e+00,6.800000000000000000e+01,2.057000000000000000e+04,2.624261379241943359e-01,1.538926124572753906e+00,2.817837473614784871e-01,0.000000000000000000e+00,1.110000000000000000e+02
0.000000000000000000e+00,1.000000000000000000e+00,0.000000000000000000e+00,6.500000000000000000e+01,2.063500000000000000e+04,2.452778816223144531e-01,1.817277908325195312e+00,5.821131077234570350e-01,0.000000000000000000e+00,1.110000000000000000e+02
1.000000000000000000e+00,0.000000000000000000e+00,0.000000000000000000e+00,3.900000000000000000e+01,2.067400000000000000e+04,2.000238895416259766e-01,1.720780134201049805e+00,5.196641579774363695e-01,0.000000000000000000e+00,1.110000000000000000e+02
0.000000000000000000e+00,1.000000000000000000e+00,0.000000000000000000e+00,6.600000000000000000e+01,2.074000000000000000e+04,3.874750137329101562e-01,1.943799018859863281e+00,5.634520378490202042e-01,0.000000000000000000e+00,1.110000000000000000e+02
1.000000000000000000e+00,1.000000000000000000e+00,1.000000000000000000e+00,7.000000000000000000e+01,2.081000000000000000e+04,2.821159362792968750e-01,1.742423057556152344e+00,4.726764146770159325e-01,0.000000000000000000e+00,1.110000000000000000e+02
0.000000000000000000e+00,1.000000000000000000e+00,0.000000000000000000e+00,6.400000000000000000e+01,2.087400000000000000e+04,2.991938591003417969e-01,1.650420904159545898e+00,3.565578984102715787e-01,0.000000000000000000e+00,1.110000000000000000e+02
0.000000000000000000e+00,1.000000000000000000e+00,0.000000000000000000e+00,6.200000000000000000e+01,2.093600000000000000e+04,2.502479553222656250e-01,1.984370946884155273e+00,7.405590193898579088e-01,0.000000000000000000e+00,1.110000000000000000e+02
0.000000000000000000e+00,0.000000000000000000e+00,1.000000000000000000e+00,4.200000000000000000e+01,2.097800000000000000e+04,2.909829616546630859e-01,1.546449899673461914e+00,2.708689882905666590e-01,1.000000000000000000e+00,1.120000000000000000e+02
0.000000000000000000e+00,1.000000000000000000e+00,0.000000000000000000e+00,5.700000000000000000e+01,2.103500000000000000e+04,3.000469207763671875e-01,1.922422885894775391e+00,6.262978185888878890e-01,0.000000000000000000e+00,1.120000000000000000e+02
0.000000000000000000e+00,1.000000000000000000e+00,0.000000000000000000e+00,5.600000000000000000e+01,2.109100000000000000e+04,2.894480228424072266e-01,1.770761013031005859e+00,4.971902542184108431e-01,0.000000000000000000e+00,1.120000000000000000e+02
0.000000000000000000e+00,1.000000000000000000e+00,0.000000000000000000e+00,5.700000000000000000e+01,2.114800000000000000e+04,2.508189678192138672e-01,1.894400835037231445e+00,6.581306289259791775e-01,0.000000000000000000e+00,1.120000000000000000e+02
0.000000000000000000e+00,1.000000000000000000e+00,0.000000000000000000e+00,6.000000000000000000e+01,2.120800000000000000e+04,3.017799854278564453e-01,1.691191911697387695e+00,3.996065111188832342e-01,0.000000000000000000e+00,1.120000000000000000e+02
0.000000000000000000e+00,1.000000000000000000e+00,0.000000000000000000e+00,5.600000000000000000e+01,2.126400000000000000e+04,3.007960319519042969e-01,1.792284011840820312e+00,4.918170585103870951e-01,0.000000000000000000e+00,1.120000000000000000e+02
0.000000000000000000e+00,1.000000000000000000e+00,0.000000000000000000e+00,5.600000000000000000e+01,2.132000000000000000e+04,2.555201053619384766e-01,1.513736963272094727e+00,2.724917065193953603e-01,0.000000000000000000e+00,1.120000000000000000e+02
0.000000000000000000e+00,1.000000000000000000e+00,0.000000000000000000e+00,6.200000000000000000e+01,2.138200000000000000e+04,2.549178600311279297e-01,1.768175125122070312e+00,5.237256740185064485e-01,0.000000000000000000e+00,1.120000000000000000e+02
1.000000000000000000e+00,1.000000000000000000e+00,1.000000000000000000e+00,5.600000000000000000e+01,2.143800000000000000e+04,2.672920227050781250e-01,1.567543029785156250e+00,3.082332257999032543e-01,0.000000000000000000e+00,1.120000000000000000e+02
0.000000000000000000e+00,1.000000000000000000e+00,0.000000000000000000e+00,6.200000000000000000e+01,2.150000000000000000e+04,2.567179203033447266e-01,1.639365911483764648e+00,3.975176151232596156e-01,0.000000000000000000e+00,1.120000000000000000e+02
1.000000000000000000e+00,1.000000000000000000e+00,1.000000000000000000e+00,5.900000000000000000e+01,2.155900000000000000e+04,2.806160449981689453e-01,1.821971893310546875e+00,5.527371497830088076e-01,0.000000000000000000e+00,1.120000000000000000e+02
1.000000000000000000e+00,1.000000000000000000e+00,1.000000000000000000e+00,5.600000000000000000e+01,2.161500000000000000e+04,2.572360038757324219e-01,1.759576082229614258e+00,5.123700260267320949e-01,0.000000000000000000e+00,1.120000000000000000e+02
0.000000000000000000e+00,1.000000000000000000e+00,0.000000000000000000e+00,6.100000000000000000e+01,2.167600000000000000e+04,2.273187637329101562e-01,1.654317140579223633e+00,4.500809197403591311e-01,0.000000000000000000e+00,1.120000000000000000e+02
1.000000000000000000e+00,1.000000000000000000e+00,1.000000000000000000e+00,5.500000000000000000e+01,2.173100000000000000e+04,2.207040786743164062e-01,1.802336931228637695e+00,5.856350026257727270e-01,0.000000000000000000e+00,1.120000000000000000e+02
0.000000000000000000e+00,0.000000000000000000e+00,1.000000000000000000e+00,4.000000000000000000e+01,2.177100000000000000e+04,1.818001270294189453e-01,1.887309074401855469e+00,7.062034738326998795e-01,0.000000000000000000e+00,1.120000000000000000e+02
0.000000000000000000e+00,0.000000000000000000e+00,1.000000000000000000e+00,4.000000000000000000e+01,2.181100000000000000e+04,3.193979263305664062e-01,2.028437852859497070e+00,7.180389470739992896e-01,0.000000000000000000e+00,1.120000000000000000e+02
1.000000000000000000e+00,1.000000000000000000e+00,1.000000000000000000e+00,5.600000000000000000e+01,2.186700000000000000e+04,3.131480216979980469e-01,1.796472787857055664e+00,4.814363325984057917e-01,0.000000000000000000e+00,1.120000000000000000e+02
1.000000000000000000e+00,1.000000000000000000e+00,1.000000000000000000e+00,5.200000000000000000e+01,2.191900000000000000e+04,3.358440399169921875e-01,1.783147811889648438e+00,4.646128733156312807e-01,0.000000000000000000e+00,1.120000000000000000e+02
1.000000000000000000e+00,1.000000000000000000e+00,1.000000000000000000e+00,5.600000000000000000e+01,2.197500000000000000e+04,2.956428527832031250e-01,1.712697982788085938e+00,4.274050387675472074e-01,0.000000000000000000e+00,1.120000000000000000e+02
1.000000000000000000e+00,1.000000000000000000e+00,1.000000000000000000e+00,5.300000000000000000e+01,2.202800000000000000e+04,3.260600566864013672e-01,1.572296857833862305e+00,2.665558778382168814e-01,0.000000000000000000e+00,1.120000000000000000e+02
1.000000000000000000e+00,1.000000000000000000e+00,1.000000000000000000e+00,6.400000000000000000e+01,2.209200000000000000e+04,3.437769412994384766e-01,2.033108234405517578e+00,6.992631011865542146e-01,0.000000000000000000e+00,1.120000000000000000e+02
1.000000000000000000e+00,0.000000000000000000e+00,0.000000000000000000e+00,4.000000000000000000e+01,2.213200000000000000e+04,4.755799770355224609e-01,2.211467027664184570e+00,7.273195553593803098e-01,0.000000000000000000e+00,1.120000000000000000e+02
1.000000000000000000e+00,1.000000000000000000e+00,1.000000000000000000e+00,5.600000000000000000e+01,2.218800000000000000e+04,3.106610774993896484e-01,1.782750844955444336e+00,4.937726394918977024e-01,0.000000000000000000e+00,1.120000000000000000e+02
1.000000000000000000e+00,1.000000000000000000e+00,1.000000000000000000e+00,5.900000000000000000e+01,2.224700000000000000e+04,3.204820156097412109e-01,1.910507917404174805e+00,6.042385404709343932e-01,0.000000000000000000e+00,1.120000000000000000e+02
0.000000000000000000e+00,1.000000000000000000e+00,0.000000000000000000e+00,5.400000000000000000e+01,2.230100000000000000e+04,3.256909847259521484e-01,1.670287132263183594e+00,3.581021629698277198e-01,0.000000000000000000e+00,1.120000000000000000e+02
1.000000000000000000e+00,0.000000000000000000e+00,0.000000000000000000e+00,3.900000000000000000e+01,2.234000000000000000e+04,2.962200641632080078e-01,1.764585971832275391e+00,4.726154753237213346e-01,0.000000000000000000e+00,1.120000000000000000e+02
0.000000000000000000e+00,1.000000000000000000e+00,0.000000000000000000e+00,5.700000000000000000e+01,2.239700000000000000e+04,3.226718902587890625e-01,1.690995931625366211e+00,3.803348030360538812e-01,0.000000000000000000e+00,1.120000000000000000e+02
1.000000000000000000e+00,1.000000000000000000e+00,1.000000000000000000e+00,5.300000000000000000e+01,2.245000000000000000e+04,2.782890796661376953e-01,1.865864992141723633e+00,5.960036653306655108e-01,0.000000000000000000e+00,1.120000000000000000e+02
1.000000000000000000e+00,1.000000000000000000e+00,1.000000000000000000e+00,5.900000000000000000e+01,2.250900000000000000e+04,2.586820125579833984e-01,1.611944913864135742e+00,3.749180413578410698e-01,0.000000000000000000e+00,1.120000000000000000e+02
0.000000000000000000e+00,1.000000000000000000e+00,0.000000000000000000e+00,6.200000000000000000e+01,2.257100000000000000e+04,2.750890254974365234e-01,1.677700996398925781e+00,4.192562319950735583e-01,0.000000000000000000e+00,1.120000000000000000e+02
0.000000000000000000e+00,1.000000000000000000e+00,0.000000000000000000e+00,5.200000000000000000e+01,2.262300000000000000e+04,3.237268924713134766e-01,1.653630018234252930e+00,3.396591590931234417e-01,0.000000000000000000e+00,1.120000000000000000e+02
1.000000000000000000e+00,1.000000000000000000e+00,1.000000000000000000e+00,5.900000000000000000e+01,2.268200000000000000e+04,4.058749675750732422e-01,1.899896860122680664e+00,5.060761806696971732e-01,0.000000000000000000e+00,1.120000000000000000e+02
0.000000000000000000e+00,0.000000000000000000e+00,1.000000000000000000e+00,4.000000000000000000e+01,2.272200000000000000e+04,2.569339275360107422e-01,1.642778158187866211e+00,3.990187278318025332e-01,0.000000000000000000e+00,1.120000000000000000e+02
0.000000000000000000e+00,0.000000000000000000e+00,1.000000000000000000e+00,4.400000000000000000e+01,2.276600000000000000e+04,2.429502010345458984e-01,1.708178997039794922e+00,4.737999855971051222e-01,0.000000000000000000e+00,1.120000000000000000e+02
1.000000000000000000e+00,0.000000000000000000e+00,0.000000000000000000e+00,3.300000000000000000e+01,2.279900000000000000e+04,2.789289951324462891e-01,1.976363897323608398e+00,6.999364481545546912e-01,1.000000000000000000e+00,1.110000000000000000e+02
0.000000000000000000e+00,1.000000000000000000e+00,0.000000000000000000e+00,6.300000000000000000e+01,2.286200000000000000e+04,3.646690845489501953e-01,1.784531831741333008e+00,4.181594917548691059e-01,0.000000000000000000e+00,1.110000000000000000e+02
1.000000000000000000e+00,1.000000000000000000e+00,1.000000000000000000e+00,6.700000000000000000e+01,2.292900000000000000e+04,2.733821868896484375e-01,1.610503196716308594e+00,3.454434634666492809e-01,0.000000000000000000e+00,1.110000000000000000e+02
1.000000000000000000e+00,1.000000000000000000e+00,1.000000000000000000e+00,7.100000000000000000e+01,2.300000000000000000e+04,2.305049896240234375e-01,1.756155967712402344e+00,5.347269284535205447e-01,0.000000000000000000e+00,1.110000000000000000e+02
0.000000000000000000e+00,1.000000000000000000e+00,0.000000000000000000e+00,6.600000000000000000e+01,2.306600000000000000e+04,2.678830623626708984e-01,1.797670125961303711e+00,5.324789177179376498e-01,0.000000000000000000e+00,1.110000000000000000e+02
0.000000000000000000e+00,1.000000000000000000e+00,0.000000000000000000e+00,7.200000000000000000e+01,2.313800000000000000e+04,2.789909839630126953e-01,1.938011884689331055e+00,6.536865984369606419e-01,0.000000000000000000e+00,1.110000000000000000e+02
1.000000000000000000e+00,1.000000000000000000e+00,1.000000000000000000e+00,6.200000000000000000e+01,2.320000000000000000e+04,2.347497940063476562e-01,1.965770006179809570e+00,7.361114147989196166e-01,0.000000000000000000e+00,1.110000000000000000e+02
0.000000000000000000e+00,1.000000000000000000e+00,0.000000000000000000e+00,5.900000000000000000e+01,2.325900000000000000e+04,2.681231498718261719e-01,1.736338853836059570e+00,4.727090491690947860e-01,0.000000000000000000e+00,1.110000000000000000e+02
0.000000000000000000e+00,1.000000000000000000e+00,0.000000000000000000e+00,6.200000000000000000e+01,2.332100000000000000e+04,2.928941249847412109e-01,1.681483030319213867e+00,4.043113483921997320e-01,0.000000000000000000e+00,1.110000000000000000e+02
1.000000000000000000e+00,1.000000000000000000e+00,1.000000000000000000e+00,5.400000000000000000e+01,2.337500000000000000e+04,2.746710777282714844e-01,1.528278112411499023e+00,2.661191423877446449e-01,0.000000000000000000e+00,1.110000000000000000e+02
0.000000000000000000e+00,1.000000000000000000e+00,0.000000000000000000e+00,6.200000000000000000e+01,2.343700000000000000e+04,2.852480411529541016e-01,1.640419960021972656e+00,3.564933502032514578e-01,0.000000000000000000e+00,1.110000000000000000e+02
1.000000000000000000e+00,1.000000000000000000e+00,1.000000000000000000e+00,6.300000000000000000e+01,2.350000000000000000e+04,1.900098323822021484e-01,1.449646949768066406e+00,2.729248804147864638e-01,0.000000000000000000e+00,1.110000000000000000e+02
