choice, accuracy, solution,  reward, cumulative_reward, rt,  total_trial_time, iti, cp_with_slow_fast, high_val_cue
0.000000000000000000e+00,1.000000000000000000e+00,0.000000000000000000e+00,5.400000000000000000e+01,5.400000000000000000e+01,7.887110710144042969e-01,2.218546867370605469e+00,4.368030670239348989e-01,0.000000000000000000e+00,1.120000000000000000e+02
0.000000000000000000e+00,0.000000000000000000e+00,1.000000000000000000e+00,4.500000000000000000e+01,9.900000000000000000e+01,3.201899528503417969e-01,2.041332006454467773e+00,7.278559772971504582e-01,0.000000000000000000e+00,1.120000000000000000e+02
0.000000000000000000e+00,0.000000000000000000e+00,1.000000000000000000e+00,3.800000000000000000e+01,1.370000000000000000e+02,2.066309452056884766e-01,1.796695947647094727e+00,6.080449420842806152e-01,0.000000000000000000e+00,1.120000000000000000e+02
1.000000000000000000e+00,0.000000000000000000e+00,0.000000000000000000e+00,4.500000000000000000e+01,1.820000000000000000e+02,2.700150012969970703e-01,1.584478139877319336e+00,3.261608635009695667e-01,0.000000000000000000e+00,1.120000000000000000e+02
0.000000000000000000e+00,1.000000000000000000e+00,0.000000000000000000e+00,5.900000000000000000e+01,2.410000000000000000e+02,3.136589527130126953e-01,1.743156909942626953e+00,4.359019567847374210e-01,0.000000000000000000e+00,1.120000000000000000e+02
0.000000000000000000e+00,0.000000000000000000e+00,1.000000000000000000e+00,4.200000000000000000e+01,2.830000000000000000e+02,2.177729606628417969e-01,1.611768007278442383e+00,3.977677660082768463e-01,0.000000000000000000e+00,1.120000000000000000e+02
0.000000000000000000e+00,1.000000000000000000e+00,0.000000000000000000e+00,6.400000000000000000e+01,3.470000000000000000e+02,2.117989063262939453e-01,1.894263982772827148e+00,6.917319624789390886e-01,0.000000000000000000e+00,1.120000000000000000e+02
0.000000000000000000e+00,0.000000000000000000e+00,1.000000000000000000e+00,4.700000000000000000e+01,3.940000000000000000e+02,1.258461475372314453e-01,1.622185945510864258e+00,4.975167357790396538e-01,0.000000000000000000e+00,1.120000000000000000e+02
1.000000000000000000e+00,1.000000000000000000e+00,1.000000000000000000e+00,5.600000000000000000e+01,4.500000000000000000e+02,1.952250003814697266e-01,1.667424917221069336e+00,4.816472052187612540e-01,0.000000000000000000e+00,1.120000000000000000e+02
1.000000000000000000e+00,0.000000000000000000e+00,0.000000000000000000e+00,4.500000000000000000e+01,4.950000000000000000e+02,2.296400070190429688e-01,1.922047138214111328e+00,7.035020395896141032e-01,0.000000000000000000e+00,1.120000000000000000e+02
1.000000000000000000e+00,1.000000000000000000e+00,1.000000000000000000e+00,5.900000000000000000e+01,5.540000000000000000e+02,1.544020175933837891e-01,1.614582061767578125e+00,4.683782126335432894e-01,0.000000000000000000e+00,1.120000000000000000e+02
1.000000000000000000e+00,1.000000000000000000e+00,1.000000000000000000e+00,5.600000000000000000e+01,6.100000000000000000e+02,3.507409095764160156e-01,2.043916940689086914e+00,6.954197016998548975e-01,0.000000000000000000e+00,1.120000000000000000e+02
0.000000000000000000e+00,1.000000000000000000e+00,0.000000000000000000e+00,5.600000000000000000e+01,6.660000000000000000e+02,1.594839096069335938e-01,1.808704137802124023e+00,6.708675888795296860e-01,0.000000000000000000e+00,1.120000000000000000e+02
0.000000000000000000e+00,0.000000000000000000e+00,1.000000000000000000e+00,4.700000000000000000e+01,7.130000000000000000e+02,1.688339710235595703e-01,1.638188838958740234e+00,4.759615236095707802e-01,0.000000000000000000e+00,1.120000000000000000e+02
0.000000000000000000e+00,0.000000000000000000e+00,1.000000000000000000e+00,4.000000000000000000e+01,7.530000000000000000e+02,1.936779022216796875e-01,1.613229990005493164e+00,4.225908536225460588e-01,0.000000000000000000e+00,1.120000000000000000e+02
0.000000000000000000e+00,0.000000000000000000e+00,1.000000000000000000e+00,3.900000000000000000e+01,7.920000000000000000e+02,1.990268230438232422e-01,1.743095874786376953e+00,5.489191436021196857e-01,0.000000000000000000e+00,1.120000000000000000e+02
0.000000000000000000e+00,1.000000000000000000e+00,0.000000000000000000e+00,6.200000000000000000e+01,8.540000000000000000e+02,1.290841102600097656e-01,1.649677991867065430e+00,5.153439682290437140e-01,0.000000000000000000e+00,1.120000000000000000e+02
0.000000000000000000e+00,1.000000000000000000e+00,0.000000000000000000e+00,5.700000000000000000e+01,9.110000000000000000e+02,1.661801338195800781e-01,1.917752027511596680e+00,7.495866540708623349e-01,0.000000000000000000e+00,1.120000000000000000e+02
0.000000000000000000e+00,0.000000000000000000e+00,1.000000000000000000e+00,4.700000000000000000e+01,9.580000000000000000e+02,2.082178592681884766e-01,1.671896934509277344e+00,4.717747217625073430e-01,0.000000000000000000e+00,1.120000000000000000e+02
0.000000000000000000e+00,1.000000000000000000e+00,0.000000000000000000e+00,5.400000000000000000e+01,1.012000000000000000e+03,2.109060287475585938e-01,1.484607934951782227e+00,2.733013589149919098e-01,0.000000000000000000e+00,1.120000000000000000e+02
0.000000000000000000e+00,1.000000000000000000e+00,0.000000000000000000e+00,6.200000000000000000e+01,1.074000000000000000e+03,2.666649818420410156e-01,1.921092987060546875e+00,6.606956961728055466e-01,0.000000000000000000e+00,1.120000000000000000e+02
0.000000000000000000e+00,0.000000000000000000e+00,1.000000000000000000e+00,4.300000000000000000e+01,1.117000000000000000e+03,1.861050128936767578e-01,1.814032077789306641e+00,6.414766929302886389e-01,0.000000000000000000e+00,1.120000000000000000e+02
0.000000000000000000e+00,0.000000000000000000e+00,1.000000000000000000e+00,4.500000000000000000e+01,1.162000000000000000e+03,1.695160865783691406e-01,1.550628900527954102e+00,3.923786643084093417e-01,0.000000000000000000e+00,1.120000000000000000e+02
0.000000000000000000e+00,0.000000000000000000e+00,1.000000000000000000e+00,4.000000000000000000e+01,1.202000000000000000e+03,2.385268211364746094e-01,1.643676996231079102e+00,4.193989031591739414e-01,0.000000000000000000e+00,1.120000000000000000e+02
0.000000000000000000e+00,0.000000000000000000e+00,1.000000000000000000e+00,0.000000000000000000e+00,1.202000000000000000e+03,6.664180755615234375e-02,5.677373170852661133e+00,4.801652433109792062e-01,-2.000000000000000000e+00,1.110000000000000000e+02
0.000000000000000000e+00,1.000000000000000000e+00,0.000000000000000000e+00,5.200000000000000000e+01,1.254000000000000000e+03,7.350928783416748047e-01,2.181015968322753906e+00,4.612395775747109572e-01,1.000000000000000000e+00,1.120000000000000000e+02
1.000000000000000000e+00,1.000000000000000000e+00,1.000000000000000000e+00,5.200000000000000000e+01,1.306000000000000000e+03,2.938239574432373047e-01,1.569328069686889648e+00,2.974317417691604848e-01,0.000000000000000000e+00,1.120000000000000000e+02
1.000000000000000000e+00,0.000000000000000000e+00,0.000000000000000000e+00,4.900000000000000000e+01,1.355000000000000000e+03,3.932309150695800781e-01,2.089012861251831055e+00,7.193636326143697524e-01,0.000000000000000000e+00,1.120000000000000000e+02
0.000000000000000000e+00,1.000000000000000000e+00,0.000000000000000000e+00,5.100000000000000000e+01,1.406000000000000000e+03,1.902608871459960938e-01,1.565024137496948242e+00,3.847799011798958557e-01,0.000000000000000000e+00,1.120000000000000000e+02
0.000000000000000000e+00,1.000000000000000000e+00,0.000000000000000000e+00,5.300000000000000000e+01,1.459000000000000000e+03,2.766249179840087891e-01,1.636683940887451172e+00,3.714745119931995854e-01,0.000000000000000000e+00,1.120000000000000000e+02
0.000000000000000000e+00,0.000000000000000000e+00,1.000000000000000000e+00,4.900000000000000000e+01,1.508000000000000000e+03,2.313988208770751953e-01,1.753658056259155273e+00,5.250163549842059574e-01,0.000000000000000000e+00,1.120000000000000000e+02
0.000000000000000000e+00,1.000000000000000000e+00,0.000000000000000000e+00,5.300000000000000000e+01,1.561000000000000000e+03,2.045471668243408203e-01,1.802945137023925781e+00,6.115267300477895684e-01,0.000000000000000000e+00,1.120000000000000000e+02
0.000000000000000000e+00,1.000000000000000000e+00,0.000000000000000000e+00,5.100000000000000000e+01,1.612000000000000000e+03,2.075071334838867188e-01,1.890210866928100586e+00,7.014153372737881309e-01,0.000000000000000000e+00,1.120000000000000000e+02
0.000000000000000000e+00,1.000000000000000000e+00,0.000000000000000000e+00,5.000000000000000000e+01,1.662000000000000000e+03,1.676390171051025391e-01,1.771449089050292969e+00,6.063075594356640563e-01,0.000000000000000000e+00,1.120000000000000000e+02
0.000000000000000000e+00,1.000000000000000000e+00,0.000000000000000000e+00,5.600000000000000000e+01,1.718000000000000000e+03,1.980390548706054688e-01,1.761940002441406250e+00,5.683241553357221143e-01,0.000000000000000000e+00,1.120000000000000000e+02
0.000000000000000000e+00,1.000000000000000000e+00,0.000000000000000000e+00,5.100000000000000000e+01,1.769000000000000000e+03,2.434139251708984375e-01,1.762155055999755859e+00,5.305527386085100439e-01,0.000000000000000000e+00,1.120000000000000000e+02
0.000000000000000000e+00,0.000000000000000000e+00,1.000000000000000000e+00,4.700000000000000000e+01,1.816000000000000000e+03,3.494410514831542969e-01,1.845748901367187500e+00,5.097037993327884209e-01,0.000000000000000000e+00,1.120000000000000000e+02
0.000000000000000000e+00,0.000000000000000000e+00,1.000000000000000000e+00,4.800000000000000000e+01,1.864000000000000000e+03,2.445859909057617188e-01,1.841401100158691406e+00,6.010625208304458678e-01,0.000000000000000000e+00,1.120000000000000000e+02
0.000000000000000000e+00,1.000000000000000000e+00,0.000000000000000000e+00,6.000000000000000000e+01,1.924000000000000000e+03,2.115318775177001953e-01,1.691973924636840820e+00,4.765142262636790083e-01,0.000000000000000000e+00,1.120000000000000000e+02
0.000000000000000000e+00,0.000000000000000000e+00,1.000000000000000000e+00,4.900000000000000000e+01,1.973000000000000000e+03,2.373011112213134766e-01,1.926295995712280273e+00,7.025991302435081742e-01,0.000000000000000000e+00,1.120000000000000000e+02
0.000000000000000000e+00,1.000000000000000000e+00,0.000000000000000000e+00,5.100000000000000000e+01,2.024000000000000000e+03,2.010979652404785156e-01,1.815024137496948242e+00,6.177595939443627504e-01,0.000000000000000000e+00,1.120000000000000000e+02
0.000000000000000000e+00,0.000000000000000000e+00,1.000000000000000000e+00,4.600000000000000000e+01,2.070000000000000000e+03,1.744480133056640625e-01,1.467304944992065430e+00,3.020931409410978485e-01,0.000000000000000000e+00,1.120000000000000000e+02
0.000000000000000000e+00,1.000000000000000000e+00,0.000000000000000000e+00,5.200000000000000000e+01,2.122000000000000000e+03,3.967761993408203125e-01,1.978598117828369141e+00,5.804400153109812166e-01,0.000000000000000000e+00,1.120000000000000000e+02
0.000000000000000000e+00,0.000000000000000000e+00,1.000000000000000000e+00,4.700000000000000000e+01,2.169000000000000000e+03,1.992831230163574219e-01,1.763778924942016602e+00,5.775530010406452197e-01,0.000000000000000000e+00,1.120000000000000000e+02
1.000000000000000000e+00,1.000000000000000000e+00,1.000000000000000000e+00,5.100000000000000000e+01,2.220000000000000000e+03,2.406821250915527344e-01,1.489794015884399414e+00,2.677274267280578268e-01,0.000000000000000000e+00,1.120000000000000000e+02
1.000000000000000000e+00,0.000000000000000000e+00,0.000000000000000000e+00,4.600000000000000000e+01,2.266000000000000000e+03,3.736329078674316406e-01,1.772302150726318359e+00,4.065736528244052739e-01,0.000000000000000000e+00,1.120000000000000000e+02
1.000000000000000000e+00,1.000000000000000000e+00,1.000000000000000000e+00,5.600000000000000000e+01,2.322000000000000000e+03,2.420392036437988281e-01,1.703855991363525391e+00,4.770529777005451111e-01,0.000000000000000000e+00,1.120000000000000000e+02
1.000000000000000000e+00,0.000000000000000000e+00,0.000000000000000000e+00,4.700000000000000000e+01,2.369000000000000000e+03,2.341690063476562500e-01,1.899433135986328125e+00,6.762980675829215471e-01,0.000000000000000000e+00,1.120000000000000000e+02
1.000000000000000000e+00,1.000000000000000000e+00,1.000000000000000000e+00,5.500000000000000000e+01,2.424000000000000000e+03,1.781761646270751953e-01,1.697839975357055664e+00,5.243448228673617262e-01,0.000000000000000000e+00,1.120000000000000000e+02
1.000000000000000000e+00,0.000000000000000000e+00,0.000000000000000000e+00,4.500000000000000000e+01,2.469000000000000000e+03,2.152681350708007812e-01,1.632962942123413086e+00,4.241286666413416895e-01,0.000000000000000000e+00,1.120000000000000000e+02
1.000000000000000000e+00,1.000000000000000000e+00,1.000000000000000000e+00,5.600000000000000000e+01,2.525000000000000000e+03,2.220108509063720703e-01,1.534478902816772461e+00,3.254020314637970923e-01,0.000000000000000000e+00,1.120000000000000000e+02
1.000000000000000000e+00,1.000000000000000000e+00,1.000000000000000000e+00,5.300000000000000000e+01,2.578000000000000000e+03,2.817320823669433594e-01,1.860677957534790039e+00,5.858640348106394224e-01,0.000000000000000000e+00,1.120000000000000000e+02
1.000000000000000000e+00,1.000000000000000000e+00,1.000000000000000000e+00,5.400000000000000000e+01,2.632000000000000000e+03,1.690940856933593750e-01,1.569823980331420898e+00,4.059248201440350257e-01,0.000000000000000000e+00,1.120000000000000000e+02
1.000000000000000000e+00,0.000000000000000000e+00,0.000000000000000000e+00,4.500000000000000000e+01,2.677000000000000000e+03,2.435119152069091797e-01,1.535552978515625000e+00,3.082632195924373542e-01,0.000000000000000000e+00,1.120000000000000000e+02
1.000000000000000000e+00,0.000000000000000000e+00,0.000000000000000000e+00,5.000000000000000000e+01,2.727000000000000000e+03,2.621841430664062500e-01,1.787603855133056641e+00,5.289591867917358137e-01,0.000000000000000000e+00,1.120000000000000000e+02
1.000000000000000000e+00,1.000000000000000000e+00,1.000000000000000000e+00,5.600000000000000000e+01,2.783000000000000000e+03,2.149181365966796875e-01,1.559501171112060547e+00,3.553331504418805742e-01,1.000000000000000000e+00,1.110000000000000000e+02
1.000000000000000000e+00,1.000000000000000000e+00,1.000000000000000000e+00,6.300000000000000000e+01,2.846000000000000000e+03,2.243528366088867188e-01,1.724972963333129883e+00,5.135188707931731544e-01,0.000000000000000000e+00,1.110000000000000000e+02
1.000000000000000000e+00,1.000000000000000000e+00,1.000000000000000000e+00,6.000000000000000000e+01,2.906000000000000000e+03,2.086360454559326172e-01,1.887622833251953125e+00,7.009799816305791742e-01,0.000000000000000000e+00,1.110000000000000000e+02
0.000000000000000000e+00,0.000000000000000000e+00,1.000000000000000000e+00,3.600000000000000000e+01,2.942000000000000000e+03,1.759169101715087891e-01,1.556868791580200195e+00,3.915338464730493406e-01,0.000000000000000000e+00,1.110000000000000000e+02
0.000000000000000000e+00,0.000000000000000000e+00,1.000000000000000000e+00,3.300000000000000000e+01,2.975000000000000000e+03,2.417600154876708984e-01,1.603552818298339844e+00,3.784954937531158081e-01,0.000000000000000000e+00,1.110000000000000000e+02
0.000000000000000000e+00,1.000000000000000000e+00,0.000000000000000000e+00,6.200000000000000000e+01,3.037000000000000000e+03,2.598750591278076172e-01,1.937395811080932617e+00,6.989268712561811370e-01,0.000000000000000000e+00,1.110000000000000000e+02
0.000000000000000000e+00,1.000000000000000000e+00,0.000000000000000000e+00,5.600000000000000000e+01,3.093000000000000000e+03,1.879169940948486328e-01,1.876929998397827148e+00,6.925609176339675432e-01,0.000000000000000000e+00,1.110000000000000000e+02
0.000000000000000000e+00,0.000000000000000000e+00,1.000000000000000000e+00,3.800000000000000000e+01,3.131000000000000000e+03,1.833631992340087891e-01,1.872488975524902344e+00,6.984523287247357271e-01,0.000000000000000000e+00,1.110000000000000000e+02
0.000000000000000000e+00,0.000000000000000000e+00,1.000000000000000000e+00,4.400000000000000000e+01,3.175000000000000000e+03,1.950149536132812500e-01,1.591409921646118164e+00,3.902053884320526023e-01,0.000000000000000000e+00,1.110000000000000000e+02
0.000000000000000000e+00,0.000000000000000000e+00,1.000000000000000000e+00,3.900000000000000000e+01,3.214000000000000000e+03,2.747409343719482422e-01,1.821886062622070312e+00,5.619294426549571453e-01,0.000000000000000000e+00,1.110000000000000000e+02
0.000000000000000000e+00,1.000000000000000000e+00,0.000000000000000000e+00,6.000000000000000000e+01,3.274000000000000000e+03,1.951220035552978516e-01,1.558015108108520508e+00,3.701673131245467596e-01,0.000000000000000000e+00,1.110000000000000000e+02
0.000000000000000000e+00,1.000000000000000000e+00,0.000000000000000000e+00,5.700000000000000000e+01,3.331000000000000000e+03,4.205679893493652344e-01,1.757626056671142578e+00,3.445369773794627610e-01,0.000000000000000000e+00,1.110000000000000000e+02
0.000000000000000000e+00,0.000000000000000000e+00,1.000000000000000000e+00,3.200000000000000000e+01,3.363000000000000000e+03,3.086318969726562500e-01,1.551383972167968750e+00,2.626885847662518425e-01,0.000000000000000000e+00,1.110000000000000000e+02
0.000000000000000000e+00,0.000000000000000000e+00,1.000000000000000000e+00,4.700000000000000000e+01,3.410000000000000000e+03,2.617330551147460938e-01,1.925271987915039062e+00,6.709390866682349852e-01,0.000000000000000000e+00,1.110000000000000000e+02
0.000000000000000000e+00,1.000000000000000000e+00,0.000000000000000000e+00,5.900000000000000000e+01,3.469000000000000000e+03,1.944520473480224609e-01,1.444880008697509766e+00,2.662402640818923860e-01,0.000000000000000000e+00,1.110000000000000000e+02
0.000000000000000000e+00,1.000000000000000000e+00,0.000000000000000000e+00,5.600000000000000000e+01,3.525000000000000000e+03,3.464970588684082031e-01,1.817537069320678711e+00,4.669479661210174659e-01,0.000000000000000000e+00,1.110000000000000000e+02
0.000000000000000000e+00,1.000000000000000000e+00,0.000000000000000000e+00,6.300000000000000000e+01,3.588000000000000000e+03,2.377810478210449219e-01,1.945949077606201172e+00,7.126548018926761596e-01,0.000000000000000000e+00,1.110000000000000000e+02
0.000000000000000000e+00,1.000000000000000000e+00,0.000000000000000000e+00,5.600000000000000000e+01,3.644000000000000000e+03,1.865789890289306641e-01,1.449418067932128906e+00,2.792449139992526641e-01,0.000000000000000000e+00,1.110000000000000000e+02
0.000000000000000000e+00,0.000000000000000000e+00,1.000000000000000000e+00,3.900000000000000000e+01,3.683000000000000000e+03,3.526098728179931641e-01,2.015861988067626953e+00,6.780882503894856139e-01,0.000000000000000000e+00,1.110000000000000000e+02
0.000000000000000000e+00,1.000000000000000000e+00,0.000000000000000000e+00,6.100000000000000000e+01,3.744000000000000000e+03,1.370370388031005859e-01,1.848587036132812500e+00,7.266326073781605999e-01,0.000000000000000000e+00,1.110000000000000000e+02
0.000000000000000000e+00,0.000000000000000000e+00,1.000000000000000000e+00,3.300000000000000000e+01,3.777000000000000000e+03,1.731169223785400391e-01,1.442224979400634766e+00,2.860137229992100738e-01,0.000000000000000000e+00,1.110000000000000000e+02
0.000000000000000000e+00,0.000000000000000000e+00,1.000000000000000000e+00,3.600000000000000000e+01,3.813000000000000000e+03,2.951688766479492188e-01,2.043765068054199219e+00,7.459930157725578326e-01,0.000000000000000000e+00,1.110000000000000000e+02
0.000000000000000000e+00,1.000000000000000000e+00,0.000000000000000000e+00,5.300000000000000000e+01,3.866000000000000000e+03,2.009110450744628906e-01,1.539915084838867188e+00,3.530299631211160638e-01,0.000000000000000000e+00,1.110000000000000000e+02
1.000000000000000000e+00,1.000000000000000000e+00,1.000000000000000000e+00,6.400000000000000000e+01,3.930000000000000000e+03,3.359589576721191406e-01,2.057011842727661133e+00,7.263699930685483253e-01,0.000000000000000000e+00,1.110000000000000000e+02
1.000000000000000000e+00,0.000000000000000000e+00,0.000000000000000000e+00,4.100000000000000000e+01,3.971000000000000000e+03,2.120850086212158203e-01,1.632181882858276367e+00,4.255711914962127529e-01,0.000000000000000000e+00,1.110000000000000000e+02
1.000000000000000000e+00,1.000000000000000000e+00,1.000000000000000000e+00,5.700000000000000000e+01,4.028000000000000000e+03,2.528660297393798828e-01,1.843167066574096680e+00,6.019461688020262269e-01,0.000000000000000000e+00,1.110000000000000000e+02
1.000000000000000000e+00,0.000000000000000000e+00,0.000000000000000000e+00,4.400000000000000000e+01,4.072000000000000000e+03,1.718780994415283203e-01,1.824270009994506836e+00,6.595241387983210579e-01,0.000000000000000000e+00,1.110000000000000000e+02
1.000000000000000000e+00,1.000000000000000000e+00,1.000000000000000000e+00,5.600000000000000000e+01,4.128000000000000000e+03,2.232320308685302734e-01,1.939849138259887695e+00,7.326605341524987658e-01,0.000000000000000000e+00,1.110000000000000000e+02
1.000000000000000000e+00,0.000000000000000000e+00,0.000000000000000000e+00,4.000000000000000000e+01,4.168000000000000000e+03,2.343330383300781250e-01,1.732103109359741211e+00,4.983607297832616245e-01,0.000000000000000000e+00,1.110000000000000000e+02
1.000000000000000000e+00,0.000000000000000000e+00,0.000000000000000000e+00,3.900000000000000000e+01,4.207000000000000000e+03,2.807319164276123047e-01,1.802881956100463867e+00,5.345952207564856895e-01,0.000000000000000000e+00,1.110000000000000000e+02
1.000000000000000000e+00,1.000000000000000000e+00,1.000000000000000000e+00,6.000000000000000000e+01,4.267000000000000000e+03,2.360918521881103516e-01,1.509835958480834961e+00,2.780671386904691178e-01,1.000000000000000000e+00,1.120000000000000000e+02
1.000000000000000000e+00,0.000000000000000000e+00,0.000000000000000000e+00,4.400000000000000000e+01,4.311000000000000000e+03,3.122169971466064453e-01,1.669588804244995117e+00,3.642577933781889210e-01,0.000000000000000000e+00,1.120000000000000000e+02
1.000000000000000000e+00,0.000000000000000000e+00,0.000000000000000000e+00,4.900000000000000000e+01,4.360000000000000000e+03,2.614660263061523438e-01,1.960482835769653320e+00,7.243895177636197058e-01,0.000000000000000000e+00,1.120000000000000000e+02
1.000000000000000000e+00,1.000000000000000000e+00,1.000000000000000000e+00,5.900000000000000000e+01,4.419000000000000000e+03,2.029871940612792969e-01,1.755205154418945312e+00,5.631428863927635531e-01,0.000000000000000000e+00,1.120000000000000000e+02
1.000000000000000000e+00,1.000000000000000000e+00,1.000000000000000000e+00,6.000000000000000000e+01,4.479000000000000000e+03,2.160420417785644531e-01,1.817898988723754883e+00,6.143367700296560319e-01,0.000000000000000000e+00,1.120000000000000000e+02
1.000000000000000000e+00,0.000000000000000000e+00,0.000000000000000000e+00,4.500000000000000000e+01,4.524000000000000000e+03,2.174291610717773438e-01,1.468137025833129883e+00,2.662198784298770438e-01,0.000000000000000000e+00,1.120000000000000000e+02
1.000000000000000000e+00,0.000000000000000000e+00,0.000000000000000000e+00,4.400000000000000000e+01,4.568000000000000000e+03,2.931759357452392578e-01,1.647787094116210938e+00,3.639426859125681202e-01,0.000000000000000000e+00,1.120000000000000000e+02
1.000000000000000000e+00,0.000000000000000000e+00,0.000000000000000000e+00,4.400000000000000000e+01,4.612000000000000000e+03,2.548830509185791016e-01,1.506980895996093750e+00,2.710560596553044932e-01,0.000000000000000000e+00,1.120000000000000000e+02
1.000000000000000000e+00,0.000000000000000000e+00,0.000000000000000000e+00,4.300000000000000000e+01,4.655000000000000000e+03,2.602260112762451172e-01,1.808417081832885742e+00,5.458665347068102358e-01,0.000000000000000000e+00,1.120000000000000000e+02
1.000000000000000000e+00,1.000000000000000000e+00,1.000000000000000000e+00,5.400000000000000000e+01,4.709000000000000000e+03,2.094168663024902344e-01,1.742156028747558594e+00,5.546866844444120481e-01,0.000000000000000000e+00,1.120000000000000000e+02
0.000000000000000000e+00,1.000000000000000000e+00,0.000000000000000000e+00,5.400000000000000000e+01,4.763000000000000000e+03,2.034208774566650391e-01,1.646821975708007812e+00,4.516687453868620250e-01,0.000000000000000000e+00,1.120000000000000000e+02
0.000000000000000000e+00,0.000000000000000000e+00,1.000000000000000000e+00,4.700000000000000000e+01,4.810000000000000000e+03,2.434060573577880859e-01,1.799446105957031250e+00,5.676921208921887896e-01,0.000000000000000000e+00,1.120000000000000000e+02
0.000000000000000000e+00,1.000000000000000000e+00,0.000000000000000000e+00,6.100000000000000000e+01,4.871000000000000000e+03,1.964931488037109375e-01,1.504765033721923828e+00,3.061142361879377605e-01,0.000000000000000000e+00,1.120000000000000000e+02
0.000000000000000000e+00,0.000000000000000000e+00,1.000000000000000000e+00,4.400000000000000000e+01,4.915000000000000000e+03,2.525248527526855469e-01,1.943685054779052734e+00,6.994381639821566354e-01,0.000000000000000000e+00,1.120000000000000000e+02
0.000000000000000000e+00,0.000000000000000000e+00,1.000000000000000000e+00,4.100000000000000000e+01,4.956000000000000000e+03,1.846251487731933594e-01,1.855730056762695312e+00,6.718600155051586142e-01,0.000000000000000000e+00,1.120000000000000000e+02
0.000000000000000000e+00,1.000000000000000000e+00,0.000000000000000000e+00,5.700000000000000000e+01,5.013000000000000000e+03,1.836609840393066406e-01,1.664646863937377930e+00,4.867523016869930719e-01,0.000000000000000000e+00,1.120000000000000000e+02
0.000000000000000000e+00,0.000000000000000000e+00,1.000000000000000000e+00,4.400000000000000000e+01,5.057000000000000000e+03,2.320699691772460938e-01,1.747712135314941406e+00,5.178020651913394223e-01,0.000000000000000000e+00,1.120000000000000000e+02
0.000000000000000000e+00,0.000000000000000000e+00,1.000000000000000000e+00,4.600000000000000000e+01,5.103000000000000000e+03,2.121031284332275391e-01,1.644531011581420898e+00,4.291150693198859112e-01,0.000000000000000000e+00,1.120000000000000000e+02
0.000000000000000000e+00,1.000000000000000000e+00,0.000000000000000000e+00,5.500000000000000000e+01,5.158000000000000000e+03,1.958770751953125000e-01,1.909608125686645508e+00,7.217617195100879401e-01,0.000000000000000000e+00,1.120000000000000000e+02
0.000000000000000000e+00,1.000000000000000000e+00,0.000000000000000000e+00,0.000000000000000000e+00,5.158000000000000000e+03,8.470797538757324219e-02,5.933126926422119141e+00,7.216924192854994313e-01,-2.000000000000000000e+00,1.120000000000000000e+02
0.000000000000000000e+00,1.000000000000000000e+00,0.000000000000000000e+00,5.600000000000000000e+01,5.214000000000000000e+03,3.031949996948242188e-01,1.620445966720581055e+00,3.259569445613501593e-01,0.000000000000000000e+00,1.120000000000000000e+02
0.000000000000000000e+00,1.000000000000000000e+00,0.000000000000000000e+00,5.600000000000000000e+01,5.270000000000000000e+03,2.505161762237548828e-01,1.715671062469482422e+00,4.748019842362851128e-01,0.000000000000000000e+00,1.120000000000000000e+02
0.000000000000000000e+00,1.000000000000000000e+00,0.000000000000000000e+00,6.100000000000000000e+01,5.331000000000000000e+03,1.348688602447509766e-01,1.568359136581420898e+00,4.432446014491048247e-01,0.000000000000000000e+00,1.120000000000000000e+02
0.000000000000000000e+00,1.000000000000000000e+00,0.000000000000000000e+00,5.500000000000000000e+01,5.386000000000000000e+03,1.852369308471679688e-01,1.555075883865356445e+00,3.817579682499701588e-01,0.000000000000000000e+00,1.120000000000000000e+02
0.000000000000000000e+00,0.000000000000000000e+00,1.000000000000000000e+00,4.600000000000000000e+01,5.432000000000000000e+03,2.103250026702880859e-01,1.816053152084350586e+00,6.309005999367520712e-01,0.000000000000000000e+00,1.120000000000000000e+02
0.000000000000000000e+00,1.000000000000000000e+00,0.000000000000000000e+00,5.700000000000000000e+01,5.489000000000000000e+03,1.647129058837890625e-01,1.687091827392578125e+00,5.347678121521770578e-01,0.000000000000000000e+00,1.120000000000000000e+02
0.000000000000000000e+00,0.000000000000000000e+00,1.000000000000000000e+00,3.600000000000000000e+01,5.525000000000000000e+03,1.807880401611328125e-01,1.698337078094482422e+00,5.165116225583422649e-01,1.000000000000000000e+00,1.110000000000000000e+02
1.000000000000000000e+00,0.000000000000000000e+00,0.000000000000000000e+00,4.200000000000000000e+01,5.567000000000000000e+03,2.038691043853759766e-01,1.527233123779296875e+00,3.273149652969532530e-01,0.000000000000000000e+00,1.110000000000000000e+02
1.000000000000000000e+00,1.000000000000000000e+00,1.000000000000000000e+00,6.000000000000000000e+01,5.627000000000000000e+03,2.512321472167968750e-01,1.655818939208984375e+00,4.164308651606667411e-01,0.000000000000000000e+00,1.110000000000000000e+02
1.000000000000000000e+00,0.000000000000000000e+00,0.000000000000000000e+00,3.900000000000000000e+01,5.666000000000000000e+03,5.866060256958007812e-01,1.951322078704833984e+00,3.678084031145228971e-01,0.000000000000000000e+00,1.110000000000000000e+02
1.000000000000000000e+00,0.000000000000000000e+00,0.000000000000000000e+00,3.900000000000000000e+01,5.705000000000000000e+03,2.147331237792968750e-01,1.862987995147705078e+00,6.471975077278731003e-01,0.000000000000000000e+00,1.110000000000000000e+02
1.000000000000000000e+00,1.000000000000000000e+00,1.000000000000000000e+00,5.600000000000000000e+01,5.761000000000000000e+03,2.077438831329345703e-01,1.522499084472656250e+00,3.367512887516823095e-01,0.000000000000000000e+00,1.110000000000000000e+02
1.000000000000000000e+00,0.000000000000000000e+00,0.000000000000000000e+00,4.600000000000000000e+01,5.807000000000000000e+03,2.665560245513916016e-01,1.777737855911254883e+00,5.143091513267959991e-01,0.000000000000000000e+00,1.110000000000000000e+02
0.000000000000000000e+00,0.000000000000000000e+00,1.000000000000000000e+00,3.700000000000000000e+01,5.844000000000000000e+03,1.808838844299316406e-01,1.685844898223876953e+00,5.168481534230293661e-01,0.000000000000000000e+00,1.110000000000000000e+02
0.000000000000000000e+00,0.000000000000000000e+00,1.000000000000000000e+00,4.100000000000000000e+01,5.885000000000000000e+03,2.129340171813964844e-01,1.598200082778930664e+00,3.819070815369901561e-01,0.000000000000000000e+00,1.110000000000000000e+02
0.000000000000000000e+00,1.000000000000000000e+00,0.000000000000000000e+00,6.100000000000000000e+01,5.946000000000000000e+03,3.557119369506835938e-01,1.654167890548706055e+00,3.195164671489758579e-01,0.000000000000000000e+00,1.110000000000000000e+02
0.000000000000000000e+00,1.000000000000000000e+00,0.000000000000000000e+00,5.700000000000000000e+01,6.003000000000000000e+03,2.210609912872314453e-01,1.930783033370971680e+00,7.166143483512342760e-01,0.000000000000000000e+00,1.110000000000000000e+02
0.000000000000000000e+00,1.000000000000000000e+00,0.000000000000000000e+00,5.700000000000000000e+01,6.060000000000000000e+03,1.739208698272705078e-01,1.830778121948242188e+00,6.641180977699117083e-01,0.000000000000000000e+00,1.110000000000000000e+02
0.000000000000000000e+00,1.000000000000000000e+00,0.000000000000000000e+00,5.700000000000000000e+01,6.117000000000000000e+03,1.751551628112792969e-01,1.402897119522094727e+00,2.508003875567875740e-01,0.000000000000000000e+00,1.110000000000000000e+02
0.000000000000000000e+00,1.000000000000000000e+00,0.000000000000000000e+00,6.200000000000000000e+01,6.179000000000000000e+03,2.686469554901123047e-01,1.924396991729736328e+00,6.581231799834484919e-01,0.000000000000000000e+00,1.110000000000000000e+02
0.000000000000000000e+00,0.000000000000000000e+00,1.000000000000000000e+00,3.900000000000000000e+01,6.218000000000000000e+03,1.599621772766113281e-01,1.769619941711425781e+00,6.278509271581037554e-01,0.000000000000000000e+00,1.110000000000000000e+02
0.000000000000000000e+00,1.000000000000000000e+00,0.000000000000000000e+00,6.300000000000000000e+01,6.281000000000000000e+03,1.763839721679687500e-01,1.541712999343872070e+00,3.864968796517797567e-01,0.000000000000000000e+00,1.110000000000000000e+02
0.000000000000000000e+00,1.000000000000000000e+00,0.000000000000000000e+00,5.600000000000000000e+01,6.337000000000000000e+03,2.074940204620361328e-01,1.537223100662231445e+00,3.404585163158839189e-01,0.000000000000000000e+00,1.110000000000000000e+02
0.000000000000000000e+00,1.000000000000000000e+00,0.000000000000000000e+00,6.000000000000000000e+01,6.397000000000000000e+03,2.201480865478515625e-01,1.814219951629638672e+00,6.044338377458405853e-01,0.000000000000000000e+00,1.110000000000000000e+02
0.000000000000000000e+00,0.000000000000000000e+00,1.000000000000000000e+00,4.500000000000000000e+01,6.442000000000000000e+03,1.675100326538085938e-01,1.854757070541381836e+00,6.924888728564690954e-01,0.000000000000000000e+00,1.110000000000000000e+02
0.000000000000000000e+00,0.000000000000000000e+00,1.000000000000000000e+00,3.800000000000000000e+01,6.480000000000000000e+03,1.936268806457519531e-01,1.884452104568481445e+00,7.102703021137888317e-01,0.000000000000000000e+00,1.110000000000000000e+02
0.000000000000000000e+00,0.000000000000000000e+00,1.000000000000000000e+00,3.700000000000000000e+01,6.517000000000000000e+03,2.042698860168457031e-01,1.526839017868041992e+00,3.375496517428221432e-01,0.000000000000000000e+00,1.110000000000000000e+02
0.000000000000000000e+00,1.000000000000000000e+00,0.000000000000000000e+00,6.300000000000000000e+01,6.580000000000000000e+03,3.210389614105224609e-01,1.784809112548828125e+00,4.722309184001284299e-01,0.000000000000000000e+00,1.110000000000000000e+02
0.000000000000000000e+00,1.000000000000000000e+00,0.000000000000000000e+00,6.300000000000000000e+01,6.643000000000000000e+03,2.778241634368896484e-01,1.623197078704833984e+00,3.622675141496145002e-01,0.000000000000000000e+00,1.110000000000000000e+02
0.000000000000000000e+00,1.000000000000000000e+00,0.000000000000000000e+00,6.200000000000000000e+01,6.705000000000000000e+03,2.531919479370117188e-01,1.717738866806030273e+00,4.798655013020730054e-01,0.000000000000000000e+00,1.110000000000000000e+02
1.000000000000000000e+00,1.000000000000000000e+00,1.000000000000000000e+00,6.100000000000000000e+01,6.766000000000000000e+03,4.616019725799560547e-01,2.063397169113159180e+00,6.098742427880129435e-01,0.000000000000000000e+00,1.110000000000000000e+02
1.000000000000000000e+00,1.000000000000000000e+00,1.000000000000000000e+00,6.000000000000000000e+01,6.826000000000000000e+03,3.059508800506591797e-01,1.624402999877929688e+00,3.346117348496525645e-01,0.000000000000000000e+00,1.110000000000000000e+02
0.000000000000000000e+00,1.000000000000000000e+00,0.000000000000000000e+00,5.900000000000000000e+01,6.885000000000000000e+03,4.397578239440917969e-01,1.685990810394287109e+00,2.540494898378907185e-01,0.000000000000000000e+00,1.110000000000000000e+02
1.000000000000000000e+00,1.000000000000000000e+00,1.000000000000000000e+00,6.300000000000000000e+01,6.948000000000000000e+03,3.165419101715087891e-01,1.682542085647583008e+00,3.698092792055357458e-01,0.000000000000000000e+00,1.110000000000000000e+02
0.000000000000000000e+00,1.000000000000000000e+00,0.000000000000000000e+00,5.500000000000000000e+01,7.003000000000000000e+03,2.561380863189697266e-01,1.542695999145507812e+00,2.959677499617471286e-01,0.000000000000000000e+00,1.110000000000000000e+02
1.000000000000000000e+00,1.000000000000000000e+00,1.000000000000000000e+00,6.300000000000000000e+01,7.066000000000000000e+03,3.008089065551757812e-01,1.801734209060668945e+00,5.141738596774195758e-01,0.000000000000000000e+00,1.110000000000000000e+02
0.000000000000000000e+00,1.000000000000000000e+00,0.000000000000000000e+00,6.100000000000000000e+01,7.127000000000000000e+03,2.278900146484375000e-01,1.860394954681396484e+00,6.577637093188104522e-01,0.000000000000000000e+00,1.110000000000000000e+02
1.000000000000000000e+00,1.000000000000000000e+00,1.000000000000000000e+00,6.000000000000000000e+01,7.187000000000000000e+03,2.533259391784667969e-01,1.834306001663208008e+00,5.921709167310267308e-01,0.000000000000000000e+00,1.110000000000000000e+02
1.000000000000000000e+00,1.000000000000000000e+00,1.000000000000000000e+00,5.300000000000000000e+01,7.240000000000000000e+03,4.131040573120117188e-01,1.736587047576904297e+00,3.290674558062591237e-01,0.000000000000000000e+00,1.110000000000000000e+02
0.000000000000000000e+00,1.000000000000000000e+00,0.000000000000000000e+00,6.300000000000000000e+01,7.303000000000000000e+03,4.067690372467041016e-01,1.665010929107666016e+00,2.775278996870619852e-01,0.000000000000000000e+00,1.110000000000000000e+02
0.000000000000000000e+00,1.000000000000000000e+00,0.000000000000000000e+00,5.600000000000000000e+01,7.359000000000000000e+03,4.721961021423339844e-01,2.070901155471801758e+00,6.147712174293533671e-01,0.000000000000000000e+00,1.110000000000000000e+02
1.000000000000000000e+00,1.000000000000000000e+00,1.000000000000000000e+00,6.200000000000000000e+01,7.421000000000000000e+03,3.745570182800292969e-01,1.891386032104492188e+00,5.396024018994127758e-01,0.000000000000000000e+00,1.110000000000000000e+02
1.000000000000000000e+00,1.000000000000000000e+00,1.000000000000000000e+00,5.600000000000000000e+01,7.477000000000000000e+03,3.656768798828125000e-01,1.911490917205810547e+00,5.511387165396116616e-01,0.000000000000000000e+00,1.110000000000000000e+02
1.000000000000000000e+00,1.000000000000000000e+00,1.000000000000000000e+00,5.700000000000000000e+01,7.534000000000000000e+03,3.211691379547119141e-01,1.723600149154663086e+00,4.082251050080420440e-01,0.000000000000000000e+00,1.110000000000000000e+02
0.000000000000000000e+00,1.000000000000000000e+00,0.000000000000000000e+00,5.500000000000000000e+01,7.589000000000000000e+03,5.724501609802246094e-01,2.079774856567382812e+00,5.212290185090588945e-01,0.000000000000000000e+00,1.110000000000000000e+02
0.000000000000000000e+00,1.000000000000000000e+00,0.000000000000000000e+00,5.400000000000000000e+01,7.643000000000000000e+03,3.602528572082519531e-01,1.740020990371704102e+00,3.781443537841975844e-01,1.000000000000000000e+00,1.120000000000000000e+02
1.000000000000000000e+00,1.000000000000000000e+00,1.000000000000000000e+00,5.900000000000000000e+01,7.702000000000000000e+03,3.828959465026855469e-01,2.041932821273803711e+00,6.697645765796942374e-01,0.000000000000000000e+00,1.120000000000000000e+02
0.000000000000000000e+00,1.000000000000000000e+00,0.000000000000000000e+00,5.400000000000000000e+01,7.756000000000000000e+03,4.110321998596191406e-01,2.035988807678222656e+00,6.225385034445959365e-01,0.000000000000000000e+00,1.120000000000000000e+02
0.000000000000000000e+00,1.000000000000000000e+00,0.000000000000000000e+00,6.100000000000000000e+01,7.817000000000000000e+03,4.237051010131835938e-01,2.122176885604858398e+00,7.113007294839907013e-01,0.000000000000000000e+00,1.120000000000000000e+02
0.000000000000000000e+00,0.000000000000000000e+00,1.000000000000000000e+00,4.400000000000000000e+01,7.861000000000000000e+03,3.551468849182128906e-01,1.925835132598876953e+00,5.873404310536152195e-01,0.000000000000000000e+00,1.120000000000000000e+02
1.000000000000000000e+00,0.000000000000000000e+00,0.000000000000000000e+00,4.000000000000000000e+01,7.901000000000000000e+03,3.239030838012695312e-01,1.576350927352905273e+00,2.640520922959262440e-01,0.000000000000000000e+00,1.120000000000000000e+02
1.000000000000000000e+00,0.000000000000000000e+00,0.000000000000000000e+00,4.100000000000000000e+01,7.942000000000000000e+03,3.572869300842285156e-01,1.981863975524902344e+00,6.455467046570561029e-01,0.000000000000000000e+00,1.120000000000000000e+02
1.000000000000000000e+00,1.000000000000000000e+00,1.000000000000000000e+00,5.700000000000000000e+01,7.999000000000000000e+03,2.333569526672363281e-01,1.574591875076293945e+00,3.538055792901237395e-01,0.000000000000000000e+00,1.120000000000000000e+02
1.000000000000000000e+00,0.000000000000000000e+00,0.000000000000000000e+00,4.400000000000000000e+01,8.043000000000000000e+03,2.717170715332031250e-01,1.948071002960205078e+00,6.848810571921373214e-01,0.000000000000000000e+00,1.120000000000000000e+02
1.000000000000000000e+00,0.000000000000000000e+00,0.000000000000000000e+00,4.800000000000000000e+01,8.091000000000000000e+03,2.177920341491699219e-01,1.730856180191040039e+00,5.159905853526691732e-01,0.000000000000000000e+00,1.120000000000000000e+02
1.000000000000000000e+00,0.000000000000000000e+00,0.000000000000000000e+00,4.000000000000000000e+01,8.131000000000000000e+03,2.315959930419921875e-01,1.662261009216308594e+00,4.283520775778776879e-01,0.000000000000000000e+00,1.120000000000000000e+02
1.000000000000000000e+00,0.000000000000000000e+00,0.000000000000000000e+00,4.200000000000000000e+01,8.173000000000000000e+03,2.215960025787353516e-01,1.828275918960571289e+00,6.231594263614390616e-01,0.000000000000000000e+00,1.120000000000000000e+02
1.000000000000000000e+00,0.000000000000000000e+00,0.000000000000000000e+00,4.300000000000000000e+01,8.216000000000000000e+03,2.062821388244628906e-01,1.514797210693359375e+00,3.216362113865586791e-01,0.000000000000000000e+00,1.120000000000000000e+02
1.000000000000000000e+00,1.000000000000000000e+00,1.000000000000000000e+00,5.600000000000000000e+01,8.272000000000000000e+03,3.516519069671630859e-01,2.053474903106689453e+00,7.080705488335250486e-01,0.000000000000000000e+00,1.120000000000000000e+02
1.000000000000000000e+00,0.000000000000000000e+00,0.000000000000000000e+00,4.100000000000000000e+01,8.313000000000000000e+03,1.887829303741455078e-01,1.733649015426635742e+00,5.585525767370757011e-01,0.000000000000000000e+00,1.120000000000000000e+02
1.000000000000000000e+00,0.000000000000000000e+00,0.000000000000000000e+00,4.500000000000000000e+01,8.358000000000000000e+03,2.014648914337158203e-01,1.685017108917236328e+00,4.937027582505875700e-01,0.000000000000000000e+00,1.120000000000000000e+02
1.000000000000000000e+00,1.000000000000000000e+00,1.000000000000000000e+00,5.600000000000000000e+01,8.414000000000000000e+03,3.462369441986083984e-01,1.923770904541015625e+00,5.840580169008825484e-01,0.000000000000000000e+00,1.120000000000000000e+02
1.000000000000000000e+00,0.000000000000000000e+00,0.000000000000000000e+00,4.200000000000000000e+01,8.456000000000000000e+03,2.599139213562011719e-01,1.544924974441528320e+00,2.793221526232312901e-01,0.000000000000000000e+00,1.120000000000000000e+02
0.000000000000000000e+00,1.000000000000000000e+00,0.000000000000000000e+00,5.500000000000000000e+01,8.511000000000000000e+03,4.566061496734619141e-01,2.165073871612548828e+00,7.273271586294136615e-01,0.000000000000000000e+00,1.120000000000000000e+02
0.000000000000000000e+00,1.000000000000000000e+00,0.000000000000000000e+00,5.500000000000000000e+01,8.566000000000000000e+03,3.421030044555664062e-01,1.573374032974243164e+00,2.512528104951068930e-01,0.000000000000000000e+00,1.120000000000000000e+02
1.000000000000000000e+00,1.000000000000000000e+00,1.000000000000000000e+00,5.700000000000000000e+01,8.623000000000000000e+03,3.987791538238525391e-01,2.030929088592529297e+00,6.317887488403888252e-01,0.000000000000000000e+00,1.120000000000000000e+02
1.000000000000000000e+00,1.000000000000000000e+00,1.000000000000000000e+00,5.500000000000000000e+01,8.678000000000000000e+03,3.211669921875000000e-01,1.826769113540649414e+00,5.253847057266869403e-01,0.000000000000000000e+00,1.120000000000000000e+02
0.000000000000000000e+00,1.000000000000000000e+00,0.000000000000000000e+00,5.600000000000000000e+01,8.734000000000000000e+03,3.279519081115722656e-01,1.814528942108154297e+00,4.899494429138946394e-01,0.000000000000000000e+00,1.120000000000000000e+02
1.000000000000000000e+00,1.000000000000000000e+00,1.000000000000000000e+00,5.600000000000000000e+01,8.790000000000000000e+03,2.733199596405029297e-01,1.668123006820678711e+00,4.081966714397913254e-01,0.000000000000000000e+00,1.120000000000000000e+02
0.000000000000000000e+00,1.000000000000000000e+00,0.000000000000000000e+00,5.300000000000000000e+01,8.843000000000000000e+03,2.087340354919433594e-01,1.921386957168579102e+00,7.293238982141745375e-01,0.000000000000000000e+00,1.120000000000000000e+02
1.000000000000000000e+00,1.000000000000000000e+00,1.000000000000000000e+00,5.400000000000000000e+01,8.897000000000000000e+03,2.530510425567626953e-01,1.835807085037231445e+00,5.986209211556281495e-01,0.000000000000000000e+00,1.120000000000000000e+02
0.000000000000000000e+00,0.000000000000000000e+00,1.000000000000000000e+00,5.000000000000000000e+01,8.947000000000000000e+03,2.481508255004882812e-01,1.902892112731933594e+00,6.514941280602768447e-01,0.000000000000000000e+00,1.120000000000000000e+02
0.000000000000000000e+00,1.000000000000000000e+00,0.000000000000000000e+00,6.200000000000000000e+01,9.009000000000000000e+03,1.942260265350341797e-01,1.521476030349731445e+00,3.399796534878413157e-01,0.000000000000000000e+00,1.120000000000000000e+02
0.000000000000000000e+00,1.000000000000000000e+00,0.000000000000000000e+00,5.000000000000000000e+01,9.059000000000000000e+03,2.627170085906982422e-01,1.771703004837036133e+00,5.115322475972432503e-01,0.000000000000000000e+00,1.120000000000000000e+02
0.000000000000000000e+00,1.000000000000000000e+00,0.000000000000000000e+00,5.300000000000000000e+01,9.112000000000000000e+03,2.030329704284667969e-01,1.896674871444702148e+00,7.080430687048164806e-01,1.000000000000000000e+00,1.110000000000000000e+02
0.000000000000000000e+00,1.000000000000000000e+00,0.000000000000000000e+00,5.300000000000000000e+01,9.165000000000000000e+03,1.331179141998291016e-01,1.434237003326416016e+00,3.093776666865142855e-01,0.000000000000000000e+00,1.110000000000000000e+02
0.000000000000000000e+00,1.000000000000000000e+00,0.000000000000000000e+00,5.400000000000000000e+01,9.219000000000000000e+03,3.337981700897216797e-01,1.738886833190917969e+00,4.148755409542388972e-01,0.000000000000000000e+00,1.110000000000000000e+02
0.000000000000000000e+00,0.000000000000000000e+00,1.000000000000000000e+00,4.400000000000000000e+01,9.263000000000000000e+03,2.075309753417968750e-01,1.590435981750488281e+00,4.053597876074356843e-01,0.000000000000000000e+00,1.110000000000000000e+02
0.000000000000000000e+00,1.000000000000000000e+00,0.000000000000000000e+00,5.400000000000000000e+01,9.317000000000000000e+03,3.295888900756835938e-01,1.623492002487182617e+00,2.956612692302801881e-01,0.000000000000000000e+00,1.110000000000000000e+02
0.000000000000000000e+00,0.000000000000000000e+00,1.000000000000000000e+00,4.400000000000000000e+01,9.361000000000000000e+03,2.859599590301513672e-01,1.734583854675292969e+00,4.634554261172909029e-01,0.000000000000000000e+00,1.110000000000000000e+02
0.000000000000000000e+00,0.000000000000000000e+00,1.000000000000000000e+00,4.900000000000000000e+01,9.410000000000000000e+03,2.006449699401855469e-01,1.830211162567138672e+00,6.434616191146158570e-01,0.000000000000000000e+00,1.110000000000000000e+02
0.000000000000000000e+00,0.000000000000000000e+00,1.000000000000000000e+00,4.600000000000000000e+01,9.456000000000000000e+03,1.564741134643554688e-01,1.722002029418945312e+00,5.822762437980437689e-01,0.000000000000000000e+00,1.110000000000000000e+02
0.000000000000000000e+00,0.000000000000000000e+00,1.000000000000000000e+00,4.800000000000000000e+01,9.504000000000000000e+03,2.011430263519287109e-01,1.533624887466430664e+00,3.328396817693903276e-01,0.000000000000000000e+00,1.110000000000000000e+02
0.000000000000000000e+00,1.000000000000000000e+00,0.000000000000000000e+00,5.000000000000000000e+01,9.554000000000000000e+03,2.298600673675537109e-01,1.903028011322021484e+00,6.688851890278746382e-01,0.000000000000000000e+00,1.110000000000000000e+02
1.000000000000000000e+00,1.000000000000000000e+00,1.000000000000000000e+00,5.300000000000000000e+01,9.607000000000000000e+03,2.509620189666748047e-01,1.623961925506591797e+00,3.765156407849802878e-01,0.000000000000000000e+00,1.110000000000000000e+02
0.000000000000000000e+00,0.000000000000000000e+00,1.000000000000000000e+00,4.900000000000000000e+01,9.656000000000000000e+03,2.713301181793212891e-01,1.566527128219604492e+00,3.098182149320577450e-01,0.000000000000000000e+00,1.110000000000000000e+02
0.000000000000000000e+00,1.000000000000000000e+00,0.000000000000000000e+00,5.500000000000000000e+01,9.711000000000000000e+03,3.516750335693359375e-01,1.653699874877929688e+00,3.135413550635127722e-01,0.000000000000000000e+00,1.110000000000000000e+02
0.000000000000000000e+00,1.000000000000000000e+00,0.000000000000000000e+00,5.500000000000000000e+01,9.766000000000000000e+03,2.237799167633056641e-01,1.563445091247558594e+00,3.603398455619156171e-01,0.000000000000000000e+00,1.110000000000000000e+02
0.000000000000000000e+00,1.000000000000000000e+00,0.000000000000000000e+00,5.100000000000000000e+01,9.817000000000000000e+03,2.091698646545410156e-01,1.728005886077880859e+00,5.381717297300091518e-01,0.000000000000000000e+00,1.110000000000000000e+02
0.000000000000000000e+00,0.000000000000000000e+00,1.000000000000000000e+00,4.500000000000000000e+01,9.862000000000000000e+03,1.938481330871582031e-01,1.432599067687988281e+00,2.544280022814734976e-01,0.000000000000000000e+00,1.110000000000000000e+02
0.000000000000000000e+00,1.000000000000000000e+00,0.000000000000000000e+00,5.600000000000000000e+01,9.918000000000000000e+03,2.486531734466552734e-01,1.529283046722412109e+00,2.837048075074257159e-01,0.000000000000000000e+00,1.110000000000000000e+02
0.000000000000000000e+00,1.000000000000000000e+00,0.000000000000000000e+00,5.500000000000000000e+01,9.973000000000000000e+03,3.141970634460449219e-01,1.850605964660644531e+00,5.341178234378403111e-01,0.000000000000000000e+00,1.110000000000000000e+02
0.000000000000000000e+00,0.000000000000000000e+00,1.000000000000000000e+00,4.800000000000000000e+01,1.002100000000000000e+04,1.974270343780517578e-01,1.705487012863159180e+00,5.062962055362836278e-01,0.000000000000000000e+00,1.110000000000000000e+02
1.000000000000000000e+00,0.000000000000000000e+00,0.000000000000000000e+00,4.800000000000000000e+01,1.006900000000000000e+04,2.385039329528808594e-01,1.690813064575195312e+00,4.638417063459769341e-01,0.000000000000000000e+00,1.110000000000000000e+02
0.000000000000000000e+00,0.000000000000000000e+00,1.000000000000000000e+00,4.900000000000000000e+01,1.011800000000000000e+04,2.810971736907958984e-01,1.974457025527954102e+00,7.047002169748460831e-01,0.000000000000000000e+00,1.110000000000000000e+02
0.000000000000000000e+00,0.000000000000000000e+00,1.000000000000000000e+00,4.700000000000000000e+01,1.016500000000000000e+04,1.709129810333251953e-01,1.491564035415649414e+00,3.300750720127924587e-01,0.000000000000000000e+00,1.110000000000000000e+02
0.000000000000000000e+00,1.000000000000000000e+00,0.000000000000000000e+00,5.300000000000000000e+01,1.021800000000000000e+04,4.036488533020019531e-01,1.965495109558105469e+00,5.786749786571609988e-01,0.000000000000000000e+00,1.110000000000000000e+02
0.000000000000000000e+00,0.000000000000000000e+00,1.000000000000000000e+00,4.900000000000000000e+01,1.026700000000000000e+04,2.711369991302490234e-01,1.698745965957641602e+00,4.442531909334199169e-01,0.000000000000000000e+00,1.110000000000000000e+02
1.000000000000000000e+00,0.000000000000000000e+00,0.000000000000000000e+00,4.400000000000000000e+01,1.031100000000000000e+04,2.771470546722412109e-01,1.900665998458862305e+00,6.447166477969366039e-01,0.000000000000000000e+00,1.110000000000000000e+02
1.000000000000000000e+00,0.000000000000000000e+00,0.000000000000000000e+00,4.900000000000000000e+01,1.036000000000000000e+04,3.341619968414306641e-01,1.956512928009033203e+00,6.346424803440497975e-01,0.000000000000000000e+00,1.110000000000000000e+02
0.000000000000000000e+00,0.000000000000000000e+00,1.000000000000000000e+00,4.400000000000000000e+01,1.040400000000000000e+04,1.895489692687988281e-01,1.917666912078857422e+00,7.355562155089452325e-01,0.000000000000000000e+00,1.110000000000000000e+02
1.000000000000000000e+00,0.000000000000000000e+00,0.000000000000000000e+00,4.500000000000000000e+01,1.044900000000000000e+04,1.709699630737304688e-01,1.433387994766235352e+00,2.694663174468411859e-01,0.000000000000000000e+00,1.110000000000000000e+02
1.000000000000000000e+00,0.000000000000000000e+00,0.000000000000000000e+00,4.900000000000000000e+01,1.049800000000000000e+04,3.677039146423339844e-01,1.789645195007324219e+00,4.256638443568576680e-01,1.000000000000000000e+00,1.120000000000000000e+02
0.000000000000000000e+00,0.000000000000000000e+00,1.000000000000000000e+00,4.500000000000000000e+01,1.054300000000000000e+04,2.103798389434814453e-01,1.729629993438720703e+00,5.385309235367490288e-01,0.000000000000000000e+00,1.120000000000000000e+02
1.000000000000000000e+00,0.000000000000000000e+00,0.000000000000000000e+00,3.500000000000000000e+01,1.057800000000000000e+04,2.151510715484619141e-01,1.681444883346557617e+00,4.700762381302723836e-01,0.000000000000000000e+00,1.120000000000000000e+02
0.000000000000000000e+00,0.000000000000000000e+00,1.000000000000000000e+00,4.200000000000000000e+01,1.062000000000000000e+04,1.759901046752929688e-01,1.693693161010742188e+00,5.137768881505142549e-01,0.000000000000000000e+00,1.120000000000000000e+02
1.000000000000000000e+00,0.000000000000000000e+00,0.000000000000000000e+00,4.200000000000000000e+01,1.066200000000000000e+04,2.297310829162597656e-01,1.561941862106323242e+00,3.423334532070325675e-01,0.000000000000000000e+00,1.120000000000000000e+02
0.000000000000000000e+00,1.000000000000000000e+00,0.000000000000000000e+00,6.100000000000000000e+01,1.072300000000000000e+04,2.520451545715332031e-01,1.879232168197631836e+00,6.382392049607088502e-01,0.000000000000000000e+00,1.120000000000000000e+02
1.000000000000000000e+00,0.000000000000000000e+00,0.000000000000000000e+00,4.300000000000000000e+01,1.076600000000000000e+04,2.257161140441894531e-01,1.594080924987792969e+00,3.825942621612994365e-01,0.000000000000000000e+00,1.120000000000000000e+02
0.000000000000000000e+00,1.000000000000000000e+00,0.000000000000000000e+00,5.200000000000000000e+01,1.081800000000000000e+04,1.668610572814941406e-01,1.649775981903076172e+00,4.823195595692255089e-01,0.000000000000000000e+00,1.120000000000000000e+02
0.000000000000000000e+00,1.000000000000000000e+00,0.000000000000000000e+00,5.200000000000000000e+01,1.087000000000000000e+04,2.078559398651123047e-01,1.524804830551147461e+00,3.239588670118059843e-01,0.000000000000000000e+00,1.120000000000000000e+02
0.000000000000000000e+00,0.000000000000000000e+00,1.000000000000000000e+00,4.100000000000000000e+01,1.091100000000000000e+04,4.222249984741210938e-01,2.036699056625366211e+00,6.270327250316901635e-01,0.000000000000000000e+00,1.120000000000000000e+02
0.000000000000000000e+00,0.000000000000000000e+00,1.000000000000000000e+00,3.800000000000000000e+01,1.094900000000000000e+04,3.040730953216552734e-01,1.969658136367797852e+00,6.800084765947984611e-01,0.000000000000000000e+00,1.120000000000000000e+02
0.000000000000000000e+00,0.000000000000000000e+00,1.000000000000000000e+00,4.300000000000000000e+01,1.099200000000000000e+04,2.783639430999755859e-01,1.734958887100219727e+00,4.652431734698649901e-01,0.000000000000000000e+00,1.120000000000000000e+02
0.000000000000000000e+00,0.000000000000000000e+00,1.000000000000000000e+00,0.000000000000000000e+00,1.099200000000000000e+04,8.049011230468750000e-03,5.464421987533569336e+00,3.465703781950713047e-01,-2.000000000000000000e+00,1.120000000000000000e+02
0.000000000000000000e+00,0.000000000000000000e+00,1.000000000000000000e+00,4.300000000000000000e+01,1.103500000000000000e+04,2.896521091461181641e-01,1.797816038131713867e+00,5.275373005054961872e-01,0.000000000000000000e+00,1.120000000000000000e+02
0.000000000000000000e+00,0.000000000000000000e+00,1.000000000000000000e+00,4.000000000000000000e+01,1.107500000000000000e+04,2.317080497741699219e-01,1.513705015182495117e+00,2.915408337368009528e-01,0.000000000000000000e+00,1.120000000000000000e+02
1.000000000000000000e+00,1.000000000000000000e+00,1.000000000000000000e+00,5.100000000000000000e+01,1.112600000000000000e+04,4.441530704498291016e-01,1.929494857788085938e+00,5.041663332946133558e-01,0.000000000000000000e+00,1.120000000000000000e+02
0.000000000000000000e+00,1.000000000000000000e+00,0.000000000000000000e+00,5.100000000000000000e+01,1.117700000000000000e+04,1.709251403808593750e-01,1.545142173767089844e+00,3.827971918859342515e-01,0.000000000000000000e+00,1.120000000000000000e+02
0.000000000000000000e+00,1.000000000000000000e+00,0.000000000000000000e+00,5.600000000000000000e+01,1.123300000000000000e+04,2.308700084686279297e-01,1.652980089187622070e+00,4.191017490333303619e-01,0.000000000000000000e+00,1.120000000000000000e+02
0.000000000000000000e+00,1.000000000000000000e+00,0.000000000000000000e+00,6.100000000000000000e+01,1.129400000000000000e+04,2.379240989685058594e-01,1.510424852371215820e+00,2.797218338076251087e-01,0.000000000000000000e+00,1.120000000000000000e+02
0.000000000000000000e+00,0.000000000000000000e+00,1.000000000000000000e+00,5.000000000000000000e+01,1.134400000000000000e+04,1.210420131683349609e-01,1.686619043350219727e+00,5.827333405485496387e-01,0.000000000000000000e+00,1.120000000000000000e+02
0.000000000000000000e+00,0.000000000000000000e+00,1.000000000000000000e+00,3.900000000000000000e+01,1.138300000000000000e+04,2.070710659027099609e-01,1.659396171569824219e+00,4.589430204655512990e-01,0.000000000000000000e+00,1.120000000000000000e+02
0.000000000000000000e+00,0.000000000000000000e+00,1.000000000000000000e+00,4.100000000000000000e+01,1.142400000000000000e+04,2.590870857238769531e-01,1.632780075073242188e+00,3.918171056813773423e-01,0.000000000000000000e+00,1.120000000000000000e+02
1.000000000000000000e+00,0.000000000000000000e+00,0.000000000000000000e+00,4.600000000000000000e+01,1.147000000000000000e+04,2.567861080169677734e-01,1.880934953689575195e+00,6.391967774689260029e-01,0.000000000000000000e+00,1.120000000000000000e+02
1.000000000000000000e+00,1.000000000000000000e+00,1.000000000000000000e+00,5.600000000000000000e+01,1.152600000000000000e+04,2.305040359497070312e-01,1.517633914947509766e+00,2.905518192493146135e-01,0.000000000000000000e+00,1.120000000000000000e+02
1.000000000000000000e+00,1.000000000000000000e+00,1.000000000000000000e+00,5.700000000000000000e+01,1.158300000000000000e+04,2.639060020446777344e-01,1.541782140731811523e+00,2.823990924072276032e-01,0.000000000000000000e+00,1.120000000000000000e+02
1.000000000000000000e+00,0.000000000000000000e+00,0.000000000000000000e+00,4.400000000000000000e+01,1.162700000000000000e+04,2.860481739044189453e-01,1.703323125839233398e+00,4.189258576593104522e-01,0.000000000000000000e+00,1.120000000000000000e+02
1.000000000000000000e+00,0.000000000000000000e+00,0.000000000000000000e+00,4.800000000000000000e+01,1.167500000000000000e+04,2.270359992980957031e-01,1.898250818252563477e+00,6.503284618963299790e-01,0.000000000000000000e+00,1.120000000000000000e+02
1.000000000000000000e+00,0.000000000000000000e+00,0.000000000000000000e+00,4.700000000000000000e+01,1.172200000000000000e+04,2.150709629058837891e-01,1.494729042053222656e+00,2.787986387805846955e-01,0.000000000000000000e+00,1.120000000000000000e+02
1.000000000000000000e+00,1.000000000000000000e+00,1.000000000000000000e+00,5.500000000000000000e+01,1.177700000000000000e+04,2.148199081420898438e-01,1.804037094116210938e+00,5.991741002960536688e-01,0.000000000000000000e+00,1.120000000000000000e+02
1.000000000000000000e+00,1.000000000000000000e+00,1.000000000000000000e+00,5.600000000000000000e+01,1.183300000000000000e+04,2.192108631134033203e-01,1.535892009735107422e+00,3.187373987619810944e-01,0.000000000000000000e+00,1.120000000000000000e+02
1.000000000000000000e+00,0.000000000000000000e+00,0.000000000000000000e+00,4.300000000000000000e+01,1.187600000000000000e+04,2.129328250885009766e-01,1.640289068222045898e+00,4.255927952719523177e-01,0.000000000000000000e+00,1.120000000000000000e+02
1.000000000000000000e+00,1.000000000000000000e+00,1.000000000000000000e+00,6.100000000000000000e+01,1.193700000000000000e+04,1.677439212799072266e-01,1.723824024200439453e+00,5.659846226380043088e-01,0.000000000000000000e+00,1.120000000000000000e+02
1.000000000000000000e+00,1.000000000000000000e+00,1.000000000000000000e+00,6.000000000000000000e+01,1.199700000000000000e+04,1.903178691864013672e-01,1.451052904129028320e+00,2.674018826783541303e-01,0.000000000000000000e+00,1.120000000000000000e+02
0.000000000000000000e+00,1.000000000000000000e+00,0.000000000000000000e+00,5.400000000000000000e+01,1.205100000000000000e+04,3.094899654388427734e-01,1.996657848358154297e+00,6.969580624853578543e-01,0.000000000000000000e+00,1.120000000000000000e+02
0.000000000000000000e+00,1.000000000000000000e+00,0.000000000000000000e+00,5.500000000000000000e+01,1.210600000000000000e+04,2.031331062316894531e-01,1.919238090515136719e+00,7.328323714892599483e-01,0.000000000000000000e+00,1.120000000000000000e+02
0.000000000000000000e+00,1.000000000000000000e+00,0.000000000000000000e+00,6.000000000000000000e+01,1.216600000000000000e+04,3.789310455322265625e-01,1.700536966323852539e+00,3.171766356810029053e-01,0.000000000000000000e+00,1.120000000000000000e+02
0.000000000000000000e+00,1.000000000000000000e+00,0.000000000000000000e+00,5.600000000000000000e+01,1.222200000000000000e+04,3.279490470886230469e-01,1.783141136169433594e+00,4.502852931927965319e-01,0.000000000000000000e+00,1.120000000000000000e+02
0.000000000000000000e+00,1.000000000000000000e+00,0.000000000000000000e+00,6.100000000000000000e+01,1.228300000000000000e+04,2.886619567871093750e-01,1.736913919448852539e+00,4.538574693905971236e-01,0.000000000000000000e+00,1.120000000000000000e+02
0.000000000000000000e+00,1.000000000000000000e+00,0.000000000000000000e+00,5.100000000000000000e+01,1.233400000000000000e+04,2.044198513031005859e-01,1.761897087097167969e+00,5.657004478700949912e-01,0.000000000000000000e+00,1.120000000000000000e+02
0.000000000000000000e+00,1.000000000000000000e+00,0.000000000000000000e+00,5.200000000000000000e+01,1.238600000000000000e+04,2.748520374298095703e-01,1.653518915176391602e+00,3.860811927338940741e-01,0.000000000000000000e+00,1.120000000000000000e+02
1.000000000000000000e+00,1.000000000000000000e+00,1.000000000000000000e+00,6.000000000000000000e+01,1.244600000000000000e+04,3.269181251525878906e-01,1.923736095428466797e+00,5.929629870195665120e-01,0.000000000000000000e+00,1.120000000000000000e+02
1.000000000000000000e+00,1.000000000000000000e+00,1.000000000000000000e+00,5.400000000000000000e+01,1.250000000000000000e+04,3.082718849182128906e-01,1.968914031982421875e+00,6.785254598152257177e-01,0.000000000000000000e+00,1.120000000000000000e+02
0.000000000000000000e+00,1.000000000000000000e+00,0.000000000000000000e+00,5.900000000000000000e+01,1.255900000000000000e+04,3.127009868621826172e-01,1.785308837890625000e+00,4.806923248418365491e-01,0.000000000000000000e+00,1.120000000000000000e+02
0.000000000000000000e+00,1.000000000000000000e+00,0.000000000000000000e+00,5.700000000000000000e+01,1.261600000000000000e+04,4.493801593780517578e-01,1.944742918014526367e+00,5.087500173850965091e-01,0.000000000000000000e+00,1.120000000000000000e+02
1.000000000000000000e+00,1.000000000000000000e+00,1.000000000000000000e+00,5.600000000000000000e+01,1.267200000000000000e+04,3.994519710540771484e-01,2.050487995147705078e+00,6.591642773849365478e-01,0.000000000000000000e+00,1.120000000000000000e+02
0.000000000000000000e+00,0.000000000000000000e+00,1.000000000000000000e+00,4.300000000000000000e+01,1.271500000000000000e+04,2.605609893798828125e-01,1.756208181381225586e+00,5.153661493139964911e-01,1.000000000000000000e+00,1.110000000000000000e+02
0.000000000000000000e+00,0.000000000000000000e+00,1.000000000000000000e+00,4.600000000000000000e+01,1.276100000000000000e+04,3.619561195373535156e-01,1.639011859893798828e+00,2.714809200640815878e-01,0.000000000000000000e+00,1.110000000000000000e+02
1.000000000000000000e+00,0.000000000000000000e+00,0.000000000000000000e+00,4.000000000000000000e+01,1.280100000000000000e+04,3.647139072418212891e-01,1.974056005477905273e+00,6.118997998798164639e-01,0.000000000000000000e+00,1.110000000000000000e+02
0.000000000000000000e+00,0.000000000000000000e+00,1.000000000000000000e+00,4.500000000000000000e+01,1.284600000000000000e+04,2.581188678741455078e-01,1.794011831283569336e+00,5.559887188008533210e-01,0.000000000000000000e+00,1.110000000000000000e+02
0.000000000000000000e+00,0.000000000000000000e+00,1.000000000000000000e+00,4.500000000000000000e+01,1.289100000000000000e+04,3.210837841033935547e-01,1.596261978149414062e+00,2.859270624873777589e-01,0.000000000000000000e+00,1.110000000000000000e+02
0.000000000000000000e+00,1.000000000000000000e+00,0.000000000000000000e+00,5.200000000000000000e+01,1.294300000000000000e+04,3.682441711425781250e-01,1.753031969070434570e+00,3.888665636478825238e-01,0.000000000000000000e+00,1.110000000000000000e+02
0.000000000000000000e+00,1.000000000000000000e+00,0.000000000000000000e+00,5.700000000000000000e+01,1.300000000000000000e+04,2.573699951171875000e-01,1.950098991394042969e+00,7.053581397032289146e-01,0.000000000000000000e+00,1.110000000000000000e+02
0.000000000000000000e+00,1.000000000000000000e+00,0.000000000000000000e+00,5.700000000000000000e+01,1.305700000000000000e+04,2.483267784118652344e-01,1.933953046798706055e+00,6.893702356535307274e-01,0.000000000000000000e+00,1.110000000000000000e+02
0.000000000000000000e+00,0.000000000000000000e+00,1.000000000000000000e+00,3.700000000000000000e+01,1.309400000000000000e+04,2.970330715179443359e-01,1.730165004730224609e+00,4.364649387476446929e-01,0.000000000000000000e+00,1.110000000000000000e+02
0.000000000000000000e+00,0.000000000000000000e+00,1.000000000000000000e+00,3.800000000000000000e+01,1.313200000000000000e+04,2.277140617370605469e-01,1.613738059997558594e+00,4.002594107951382152e-01,0.000000000000000000e+00,1.110000000000000000e+02
0.000000000000000000e+00,1.000000000000000000e+00,0.000000000000000000e+00,6.200000000000000000e+01,1.319400000000000000e+04,2.372009754180908203e-01,1.857692003250122070e+00,6.247396699783739349e-01,0.000000000000000000e+00,1.110000000000000000e+02
0.000000000000000000e+00,1.000000000000000000e+00,0.000000000000000000e+00,6.100000000000000000e+01,1.325500000000000000e+04,3.301990032196044922e-01,1.597566127777099609e+00,2.724257790406848789e-01,0.000000000000000000e+00,1.110000000000000000e+02
0.000000000000000000e+00,1.000000000000000000e+00,0.000000000000000000e+00,5.200000000000000000e+01,1.330700000000000000e+04,3.642110824584960938e-01,2.029921054840087891e+00,6.686470162833646480e-01,0.000000000000000000e+00,1.110000000000000000e+02
0.000000000000000000e+00,1.000000000000000000e+00,0.000000000000000000e+00,5.700000000000000000e+01,1.336400000000000000e+04,3.380279541015625000e-01,2.043039083480834961e+00,7.116896530426386480e-01,0.000000000000000000e+00,1.110000000000000000e+02
1.000000000000000000e+00,1.000000000000000000e+00,1.000000000000000000e+00,6.300000000000000000e+01,1.342700000000000000e+04,4.257428646087646484e-01,2.012389898300170898e+00,6.075435419922230462e-01,0.000000000000000000e+00,1.110000000000000000e+02
0.000000000000000000e+00,1.000000000000000000e+00,0.000000000000000000e+00,5.600000000000000000e+01,1.348300000000000000e+04,4.472348690032958984e-01,2.076601982116699219e+00,6.341513079624939708e-01,0.000000000000000000e+00,1.110000000000000000e+02
1.000000000000000000e+00,1.000000000000000000e+00,1.000000000000000000e+00,6.000000000000000000e+01,1.354300000000000000e+04,3.768711090087890625e-01,1.944533824920654297e+00,5.787725729160100308e-01,0.000000000000000000e+00,1.110000000000000000e+02
0.000000000000000000e+00,0.000000000000000000e+00,1.000000000000000000e+00,3.800000000000000000e+01,1.358100000000000000e+04,3.665640354156494141e-01,2.082940816879272461e+00,7.283115914209343789e-01,0.000000000000000000e+00,1.110000000000000000e+02
0.000000000000000000e+00,1.000000000000000000e+00,0.000000000000000000e+00,5.900000000000000000e+01,1.364000000000000000e+04,4.054591655731201172e-01,2.062496185302734375e+00,6.742303779137930331e-01,0.000000000000000000e+00,1.110000000000000000e+02
1.000000000000000000e+00,0.000000000000000000e+00,0.000000000000000000e+00,5.000000000000000000e+01,1.369000000000000000e+04,3.337838649749755859e-01,1.821464061737060547e+00,4.958790550811790765e-01,0.000000000000000000e+00,1.110000000000000000e+02
1.000000000000000000e+00,1.000000000000000000e+00,1.000000000000000000e+00,5.600000000000000000e+01,1.374600000000000000e+04,5.611209869384765625e-01,1.943544864654541016e+00,4.062267695040565063e-01,0.000000000000000000e+00,1.110000000000000000e+02
0.000000000000000000e+00,0.000000000000000000e+00,1.000000000000000000e+00,4.200000000000000000e+01,1.378800000000000000e+04,3.952579498291015625e-01,1.728058099746704102e+00,3.343722862354894243e-01,0.000000000000000000e+00,1.110000000000000000e+02
1.000000000000000000e+00,0.000000000000000000e+00,0.000000000000000000e+00,4.200000000000000000e+01,1.383000000000000000e+04,3.029341697692871094e-01,1.821421146392822266e+00,5.223018906346457157e-01,0.000000000000000000e+00,1.110000000000000000e+02
1.000000000000000000e+00,0.000000000000000000e+00,0.000000000000000000e+00,4.400000000000000000e+01,1.387400000000000000e+04,3.164498805999755859e-01,1.689666032791137695e+00,3.788231823289014977e-01,0.000000000000000000e+00,1.110000000000000000e+02
1.000000000000000000e+00,1.000000000000000000e+00,1.000000000000000000e+00,6.100000000000000000e+01,1.393500000000000000e+04,4.231088161468505859e-01,1.943437099456787109e+00,5.387881937639398267e-01,1.000000000000000000e+00,1.120000000000000000e+02
0.000000000000000000e+00,1.000000000000000000e+00,0.000000000000000000e+00,6.200000000000000000e+01,1.399700000000000000e+04,3.331789970397949219e-01,1.736265897750854492e+00,4.085673364619218928e-01,0.000000000000000000e+00,1.120000000000000000e+02
0.000000000000000000e+00,1.000000000000000000e+00,0.000000000000000000e+00,5.000000000000000000e+01,1.404700000000000000e+04,3.678960800170898438e-01,1.777629137039184570e+00,4.195510583322762388e-01,0.000000000000000000e+00,1.120000000000000000e+02
1.000000000000000000e+00,0.000000000000000000e+00,0.000000000000000000e+00,4.200000000000000000e+01,1.408900000000000000e+04,2.276039123535156250e-01,1.802897930145263672e+00,5.889854670774508083e-01,0.000000000000000000e+00,1.120000000000000000e+02
0.000000000000000000e+00,0.000000000000000000e+00,1.000000000000000000e+00,3.800000000000000000e+01,1.412700000000000000e+04,2.596738338470458984e-01,1.903720140457153320e+00,6.593294866634575868e-01,0.000000000000000000e+00,1.120000000000000000e+02
1.000000000000000000e+00,1.000000000000000000e+00,1.000000000000000000e+00,5.300000000000000000e+01,1.418000000000000000e+04,2.167170047760009766e-01,1.578691959381103516e+00,3.716853595647305331e-01,0.000000000000000000e+00,1.120000000000000000e+02
1.000000000000000000e+00,1.000000000000000000e+00,1.000000000000000000e+00,5.300000000000000000e+01,1.423300000000000000e+04,4.144468307495117188e-01,1.914171934127807617e+00,5.023854186437772817e-01,0.000000000000000000e+00,1.120000000000000000e+02
0.000000000000000000e+00,0.000000000000000000e+00,1.000000000000000000e+00,3.700000000000000000e+01,1.427000000000000000e+04,2.058589458465576172e-01,1.837316989898681641e+00,6.396323301286700458e-01,0.000000000000000000e+00,1.120000000000000000e+02
0.000000000000000000e+00,0.000000000000000000e+00,1.000000000000000000e+00,4.200000000000000000e+01,1.431200000000000000e+04,2.355859279632568359e-01,1.723708868026733398e+00,4.968563103460863495e-01,0.000000000000000000e+00,1.120000000000000000e+02
0.000000000000000000e+00,1.000000000000000000e+00,0.000000000000000000e+00,6.200000000000000000e+01,1.437400000000000000e+04,3.279609680175781250e-01,1.786237001419067383e+00,4.664815991714125198e-01,0.000000000000000000e+00,1.120000000000000000e+02
0.000000000000000000e+00,0.000000000000000000e+00,1.000000000000000000e+00,3.900000000000000000e+01,1.441300000000000000e+04,2.681388854980468750e-01,1.597127199172973633e+00,3.304489629924341476e-01,0.000000000000000000e+00,1.120000000000000000e+02
0.000000000000000000e+00,1.000000000000000000e+00,0.000000000000000000e+00,5.900000000000000000e+01,1.447200000000000000e+04,3.757131099700927734e-01,1.687232017517089844e+00,3.344109894299628349e-01,0.000000000000000000e+00,1.120000000000000000e+02
0.000000000000000000e+00,0.000000000000000000e+00,1.000000000000000000e+00,4.200000000000000000e+01,1.451400000000000000e+04,2.318060398101806641e-01,1.580373048782348633e+00,3.480986896596575120e-01,0.000000000000000000e+00,1.120000000000000000e+02
0.000000000000000000e+00,0.000000000000000000e+00,1.000000000000000000e+00,4.700000000000000000e+01,1.456100000000000000e+04,2.082011699676513672e-01,1.812329053878784180e+00,6.268133306109909819e-01,0.000000000000000000e+00,1.120000000000000000e+02
0.000000000000000000e+00,0.000000000000000000e+00,1.000000000000000000e+00,3.900000000000000000e+01,1.460000000000000000e+04,2.436089515686035156e-01,1.790926933288574219e+00,5.678789871275594647e-01,0.000000000000000000e+00,1.120000000000000000e+02
0.000000000000000000e+00,1.000000000000000000e+00,0.000000000000000000e+00,5.600000000000000000e+01,1.465600000000000000e+04,4.606709480285644531e-01,2.095160961151123047e+00,6.463032165548046049e-01,0.000000000000000000e+00,1.120000000000000000e+02
0.000000000000000000e+00,1.000000000000000000e+00,0.000000000000000000e+00,5.700000000000000000e+01,1.471300000000000000e+04,3.464899063110351562e-01,1.749402999877929688e+00,4.126456778045832774e-01,0.000000000000000000e+00,1.120000000000000000e+02
0.000000000000000000e+00,1.000000000000000000e+00,0.000000000000000000e+00,5.900000000000000000e+01,1.477200000000000000e+04,3.534791469573974609e-01,1.706348180770874023e+00,3.690906272018515399e-01,0.000000000000000000e+00,1.120000000000000000e+02
1.000000000000000000e+00,1.000000000000000000e+00,1.000000000000000000e+00,6.000000000000000000e+01,1.483200000000000000e+04,3.458979129791259766e-01,2.084158897399902344e+00,7.362058346124518149e-01,0.000000000000000000e+00,1.120000000000000000e+02
1.000000000000000000e+00,1.000000000000000000e+00,1.000000000000000000e+00,5.100000000000000000e+01,1.488300000000000000e+04,3.258259296417236328e-01,1.957723855972290039e+00,6.440675100906603223e-01,0.000000000000000000e+00,1.120000000000000000e+02
0.000000000000000000e+00,1.000000000000000000e+00,0.000000000000000000e+00,5.100000000000000000e+01,1.493400000000000000e+04,4.016959667205810547e-01,1.689027070999145508e+00,3.001788253950015140e-01,0.000000000000000000e+00,1.120000000000000000e+02
0.000000000000000000e+00,0.000000000000000000e+00,1.000000000000000000e+00,4.700000000000000000e+01,1.498100000000000000e+04,3.927109241485595703e-01,2.057392120361328125e+00,6.738834005681983985e-01,1.000000000000000000e+00,1.110000000000000000e+02
0.000000000000000000e+00,0.000000000000000000e+00,1.000000000000000000e+00,4.700000000000000000e+01,1.502800000000000000e+04,2.898349761962890625e-01,1.747222900390625000e+00,4.713346197570522644e-01,0.000000000000000000e+00,1.110000000000000000e+02
0.000000000000000000e+00,0.000000000000000000e+00,1.000000000000000000e+00,3.800000000000000000e+01,1.506600000000000000e+04,2.639129161834716797e-01,1.958169937133789062e+00,6.959859570879243229e-01,0.000000000000000000e+00,1.110000000000000000e+02
1.000000000000000000e+00,0.000000000000000000e+00,0.000000000000000000e+00,4.600000000000000000e+01,1.511200000000000000e+04,3.339738845825195312e-01,1.864575147628784180e+00,5.440980083276218959e-01,0.000000000000000000e+00,1.110000000000000000e+02
1.000000000000000000e+00,0.000000000000000000e+00,0.000000000000000000e+00,4.400000000000000000e+01,1.515600000000000000e+04,3.533749580383300781e-01,1.809969902038574219e+00,4.708463032435955542e-01,0.000000000000000000e+00,1.110000000000000000e+02
1.000000000000000000e+00,0.000000000000000000e+00,0.000000000000000000e+00,4.300000000000000000e+01,1.519900000000000000e+04,3.237011432647705078e-01,1.831751108169555664e+00,5.191723691454783740e-01,0.000000000000000000e+00,1.110000000000000000e+02
1.000000000000000000e+00,0.000000000000000000e+00,0.000000000000000000e+00,4.500000000000000000e+01,1.524400000000000000e+04,7.021958827972412109e-01,2.024913072586059570e+00,3.277051301444752762e-01,0.000000000000000000e+00,1.110000000000000000e+02
1.000000000000000000e+00,0.000000000000000000e+00,0.000000000000000000e+00,4.500000000000000000e+01,1.528900000000000000e+04,3.768360614776611328e-01,1.797406911849975586e+00,4.417214123433029771e-01,0.000000000000000000e+00,1.110000000000000000e+02
1.000000000000000000e+00,1.000000000000000000e+00,1.000000000000000000e+00,6.000000000000000000e+01,1.534900000000000000e+04,3.489108085632324219e-01,1.902508974075317383e+00,5.607966603603560252e-01,0.000000000000000000e+00,1.110000000000000000e+02
1.000000000000000000e+00,1.000000000000000000e+00,1.000000000000000000e+00,5.400000000000000000e+01,1.540300000000000000e+04,3.440251350402832031e-01,1.672384023666381836e+00,3.500807376023549744e-01,0.000000000000000000e+00,1.110000000000000000e+02
0.000000000000000000e+00,1.000000000000000000e+00,0.000000000000000000e+00,5.600000000000000000e+01,1.545900000000000000e+04,4.207038879394531250e-01,1.795493125915527344e+00,3.789253367621829294e-01,0.000000000000000000e+00,1.110000000000000000e+02
0.000000000000000000e+00,0.000000000000000000e+00,1.000000000000000000e+00,4.100000000000000000e+01,1.550000000000000000e+04,3.214769363403320312e-01,1.831257820129394531e+00,5.269576108031659434e-01,0.000000000000000000e+00,1.110000000000000000e+02
1.000000000000000000e+00,1.000000000000000000e+00,1.000000000000000000e+00,5.700000000000000000e+01,1.555700000000000000e+04,2.391059398651123047e-01,1.678426980972290039e+00,4.552707154466870132e-01,0.000000000000000000e+00,1.110000000000000000e+02
1.000000000000000000e+00,1.000000000000000000e+00,1.000000000000000000e+00,5.600000000000000000e+01,1.561300000000000000e+04,4.109039306640625000e-01,1.939082860946655273e+00,5.278530231840334874e-01,0.000000000000000000e+00,1.110000000000000000e+02
1.000000000000000000e+00,1.000000000000000000e+00,1.000000000000000000e+00,5.600000000000000000e+01,1.566900000000000000e+04,2.956521511077880859e-01,1.735333919525146484e+00,4.464290228646221048e-01,0.000000000000000000e+00,1.110000000000000000e+02
1.000000000000000000e+00,0.000000000000000000e+00,0.000000000000000000e+00,4.900000000000000000e+01,1.571800000000000000e+04,3.033568859100341797e-01,1.915842056274414062e+00,6.287926388082124562e-01,0.000000000000000000e+00,1.110000000000000000e+02
0.000000000000000000e+00,0.000000000000000000e+00,1.000000000000000000e+00,4.000000000000000000e+01,1.575800000000000000e+04,3.057320117950439453e-01,2.007349014282226562e+00,7.194310676259729753e-01,0.000000000000000000e+00,1.110000000000000000e+02
1.000000000000000000e+00,0.000000000000000000e+00,0.000000000000000000e+00,4.800000000000000000e+01,1.580600000000000000e+04,2.692320346832275391e-01,1.992908954620361328e+00,7.290352026140602959e-01,0.000000000000000000e+00,1.110000000000000000e+02
1.000000000000000000e+00,0.000000000000000000e+00,0.000000000000000000e+00,4.500000000000000000e+01,1.585100000000000000e+04,3.238968849182128906e-01,1.716064214706420898e+00,4.121172554055814174e-01,0.000000000000000000e+00,1.110000000000000000e+02
1.000000000000000000e+00,0.000000000000000000e+00,0.000000000000000000e+00,4.700000000000000000e+01,1.589800000000000000e+04,4.493579864501953125e-01,1.993773937225341797e+00,5.558035025809978658e-01,0.000000000000000000e+00,1.110000000000000000e+02
1.000000000000000000e+00,0.000000000000000000e+00,0.000000000000000000e+00,0.000000000000000000e+00,1.589800000000000000e+04,1.212154150009155273e+00,2.901842117309570312e+00,6.742477175051200255e-01,-1.000000000000000000e+00,1.110000000000000000e+02
1.000000000000000000e+00,0.000000000000000000e+00,0.000000000000000000e+00,4.300000000000000000e+01,1.594100000000000000e+04,2.165570259094238281e-01,1.516419887542724609e+00,3.077336974619968579e-01,0.000000000000000000e+00,1.110000000000000000e+02
1.000000000000000000e+00,0.000000000000000000e+00,0.000000000000000000e+00,4.100000000000000000e+01,1.598200000000000000e+04,3.009340763092041016e-01,1.654935121536254883e+00,3.627537225779607355e-01,0.000000000000000000e+00,1.110000000000000000e+02
0.000000000000000000e+00,1.000000000000000000e+00,0.000000000000000000e+00,5.700000000000000000e+01,1.603900000000000000e+04,2.219099998474121094e-01,1.906654119491577148e+00,7.022641950672209310e-01,0.000000000000000000e+00,1.110000000000000000e+02
0.000000000000000000e+00,1.000000000000000000e+00,0.000000000000000000e+00,5.400000000000000000e+01,1.609300000000000000e+04,2.804009914398193359e-01,1.662606954574584961e+00,3.819155601019437740e-01,0.000000000000000000e+00,1.110000000000000000e+02
1.000000000000000000e+00,1.000000000000000000e+00,1.000000000000000000e+00,5.300000000000000000e+01,1.614600000000000000e+04,3.573789596557617188e-01,1.841348886489868164e+00,5.064932649461273417e-01,0.000000000000000000e+00,1.110000000000000000e+02
0.000000000000000000e+00,1.000000000000000000e+00,0.000000000000000000e+00,5.600000000000000000e+01,1.620200000000000000e+04,2.914340496063232422e-01,1.597603082656860352e+00,3.209958544043893247e-01,0.000000000000000000e+00,1.110000000000000000e+02
0.000000000000000000e+00,1.000000000000000000e+00,0.000000000000000000e+00,5.200000000000000000e+01,1.625400000000000000e+04,3.505520820617675781e-01,2.022464036941528320e+00,6.764442802316295023e-01,0.000000000000000000e+00,1.110000000000000000e+02
1.000000000000000000e+00,1.000000000000000000e+00,1.000000000000000000e+00,5.700000000000000000e+01,1.631100000000000000e+04,3.369698524475097656e-01,1.908473014831542969e+00,5.850845619354860805e-01,0.000000000000000000e+00,1.110000000000000000e+02
0.000000000000000000e+00,0.000000000000000000e+00,1.000000000000000000e+00,4.300000000000000000e+01,1.635400000000000000e+04,2.442119121551513672e-01,1.836791992187500000e+00,6.052114621639116399e-01,0.000000000000000000e+00,1.110000000000000000e+02
1.000000000000000000e+00,1.000000000000000000e+00,1.000000000000000000e+00,6.000000000000000000e+01,1.641400000000000000e+04,2.180440425872802734e-01,1.677275896072387695e+00,4.659913670578443856e-01,0.000000000000000000e+00,1.110000000000000000e+02
0.000000000000000000e+00,0.000000000000000000e+00,1.000000000000000000e+00,4.400000000000000000e+01,1.645800000000000000e+04,2.387599945068359375e-01,1.863591194152832031e+00,6.294266417521913182e-01,0.000000000000000000e+00,1.110000000000000000e+02
1.000000000000000000e+00,1.000000000000000000e+00,1.000000000000000000e+00,5.600000000000000000e+01,1.651400000000000000e+04,1.888098716735839844e-01,1.806819915771484375e+00,6.362971348192197896e-01,0.000000000000000000e+00,1.110000000000000000e+02
0.000000000000000000e+00,1.000000000000000000e+00,0.000000000000000000e+00,5.900000000000000000e+01,1.657300000000000000e+04,2.212460041046142578e-01,1.638080120086669922e+00,4.246270139383147013e-01,0.000000000000000000e+00,1.110000000000000000e+02
1.000000000000000000e+00,1.000000000000000000e+00,1.000000000000000000e+00,6.000000000000000000e+01,1.663300000000000000e+04,2.919180393218994141e-01,1.830305099487304688e+00,5.547985793110071784e-01,1.000000000000000000e+00,1.120000000000000000e+02
0.000000000000000000e+00,1.000000000000000000e+00,0.000000000000000000e+00,6.300000000000000000e+01,1.669600000000000000e+04,2.991490364074707031e-01,1.827111005783081055e+00,5.319942123676655310e-01,0.000000000000000000e+00,1.120000000000000000e+02
0.000000000000000000e+00,1.000000000000000000e+00,0.000000000000000000e+00,5.700000000000000000e+01,1.675300000000000000e+04,3.044450283050537109e-01,1.819171905517578125e+00,5.178853113845329759e-01,0.000000000000000000e+00,1.120000000000000000e+02
0.000000000000000000e+00,1.000000000000000000e+00,0.000000000000000000e+00,5.900000000000000000e+01,1.681200000000000000e+04,3.088049888610839844e-01,1.713881015777587891e+00,4.152519746062624528e-01,0.000000000000000000e+00,1.120000000000000000e+02
0.000000000000000000e+00,1.000000000000000000e+00,0.000000000000000000e+00,6.300000000000000000e+01,1.687500000000000000e+04,2.549421787261962891e-01,1.959728002548217773e+00,7.246568149070919951e-01,0.000000000000000000e+00,1.120000000000000000e+02
1.000000000000000000e+00,1.000000000000000000e+00,1.000000000000000000e+00,6.100000000000000000e+01,1.693600000000000000e+04,3.422880172729492188e-01,1.576153039932250977e+00,2.513498260346730406e-01,0.000000000000000000e+00,1.120000000000000000e+02
1.000000000000000000e+00,1.000000000000000000e+00,1.000000000000000000e+00,5.500000000000000000e+01,1.699100000000000000e+04,3.240439891815185547e-01,1.926107168197631836e+00,6.104454222518853612e-01,0.000000000000000000e+00,1.120000000000000000e+02
1.000000000000000000e+00,1.000000000000000000e+00,1.000000000000000000e+00,0.000000000000000000e+00,1.699100000000000000e+04,1.163098812103271484e+00,2.717809915542602539e+00,5.450942011134227716e-01,-1.000000000000000000e+00,1.120000000000000000e+02
1.000000000000000000e+00,1.000000000000000000e+00,1.000000000000000000e+00,5.600000000000000000e+01,1.704700000000000000e+04,2.747619152069091797e-01,1.772891044616699219e+00,5.180039083019738477e-01,0.000000000000000000e+00,1.120000000000000000e+02
1.000000000000000000e+00,1.000000000000000000e+00,1.000000000000000000e+00,5.300000000000000000e+01,1.710000000000000000e+04,2.885661125183105469e-01,1.587587118148803711e+00,3.058260476784104287e-01,0.000000000000000000e+00,1.120000000000000000e+02
0.000000000000000000e+00,1.000000000000000000e+00,0.000000000000000000e+00,6.600000000000000000e+01,1.716600000000000000e+04,4.382848739624023438e-01,1.860808849334716797e+00,4.332271511803955644e-01,0.000000000000000000e+00,1.120000000000000000e+02
1.000000000000000000e+00,1.000000000000000000e+00,1.000000000000000000e+00,6.400000000000000000e+01,1.723000000000000000e+04,2.616710662841796875e-01,1.637868165969848633e+00,3.711774084917580097e-01,0.000000000000000000e+00,1.120000000000000000e+02
0.000000000000000000e+00,0.000000000000000000e+00,1.000000000000000000e+00,4.200000000000000000e+01,1.727200000000000000e+04,3.704080581665039062e-01,1.823842048645019531e+00,4.616329766012700619e-01,0.000000000000000000e+00,1.120000000000000000e+02
1.000000000000000000e+00,0.000000000000000000e+00,0.000000000000000000e+00,4.000000000000000000e+01,1.731200000000000000e+04,2.498688697814941406e-01,1.794421911239624023e+00,5.559629387295023095e-01,0.000000000000000000e+00,1.120000000000000000e+02
0.000000000000000000e+00,1.000000000000000000e+00,0.000000000000000000e+00,6.000000000000000000e+01,1.737200000000000000e+04,2.977859973907470703e-01,1.781743049621582031e+00,4.878215060484852872e-01,0.000000000000000000e+00,1.120000000000000000e+02
1.000000000000000000e+00,0.000000000000000000e+00,0.000000000000000000e+00,3.700000000000000000e+01,1.740900000000000000e+04,2.476959228515625000e-01,1.703660964965820312e+00,4.582446393740303159e-01,0.000000000000000000e+00,1.120000000000000000e+02
0.000000000000000000e+00,0.000000000000000000e+00,1.000000000000000000e+00,4.000000000000000000e+01,1.744900000000000000e+04,2.846570014953613281e-01,1.613279104232788086e+00,3.383138441152698794e-01,0.000000000000000000e+00,1.120000000000000000e+02
0.000000000000000000e+00,0.000000000000000000e+00,1.000000000000000000e+00,3.700000000000000000e+01,1.748600000000000000e+04,3.039970397949218750e-01,1.688798904418945312e+00,3.937514099633585007e-01,0.000000000000000000e+00,1.120000000000000000e+02
0.000000000000000000e+00,1.000000000000000000e+00,0.000000000000000000e+00,6.200000000000000000e+01,1.754800000000000000e+04,2.777659893035888672e-01,1.930313110351562500e+00,6.738058883797547471e-01,0.000000000000000000e+00,1.120000000000000000e+02
0.000000000000000000e+00,1.000000000000000000e+00,0.000000000000000000e+00,6.300000000000000000e+01,1.761100000000000000e+04,3.515858650207519531e-01,1.634558916091918945e+00,2.921441177042152226e-01,0.000000000000000000e+00,1.120000000000000000e+02
0.000000000000000000e+00,1.000000000000000000e+00,0.000000000000000000e+00,6.200000000000000000e+01,1.767300000000000000e+04,3.941850662231445312e-01,1.964837074279785156e+00,5.900747242202633025e-01,0.000000000000000000e+00,1.120000000000000000e+02
1.000000000000000000e+00,1.000000000000000000e+00,1.000000000000000000e+00,6.100000000000000000e+01,1.773400000000000000e+04,3.046519756317138672e-01,1.852245092391967773e+00,5.590216622044592576e-01,0.000000000000000000e+00,1.120000000000000000e+02
0.000000000000000000e+00,1.000000000000000000e+00,0.000000000000000000e+00,6.000000000000000000e+01,1.779400000000000000e+04,2.496900558471679688e-01,1.931401968002319336e+00,6.903469797044559098e-01,0.000000000000000000e+00,1.120000000000000000e+02
1.000000000000000000e+00,1.000000000000000000e+00,1.000000000000000000e+00,6.000000000000000000e+01,1.785400000000000000e+04,3.844289779663085938e-01,1.862087011337280273e+00,4.859994418653282300e-01,0.000000000000000000e+00,1.120000000000000000e+02
0.000000000000000000e+00,1.000000000000000000e+00,0.000000000000000000e+00,6.300000000000000000e+01,1.791700000000000000e+04,3.539009094238281250e-01,1.700531005859375000e+00,3.533493741290648638e-01,0.000000000000000000e+00,1.120000000000000000e+02
1.000000000000000000e+00,1.000000000000000000e+00,1.000000000000000000e+00,5.600000000000000000e+01,1.797300000000000000e+04,2.988879680633544922e-01,2.039428949356079102e+00,7.423844595358379816e-01,0.000000000000000000e+00,1.120000000000000000e+02
1.000000000000000000e+00,1.000000000000000000e+00,1.000000000000000000e+00,5.900000000000000000e+01,1.803200000000000000e+04,3.066840171813964844e-01,1.769772052764892578e+00,4.791512479993556006e-01,0.000000000000000000e+00,1.120000000000000000e+02
0.000000000000000000e+00,1.000000000000000000e+00,0.000000000000000000e+00,5.900000000000000000e+01,1.809100000000000000e+04,4.159989356994628906e-01,1.856152057647705078e+00,4.520455393093126273e-01,0.000000000000000000e+00,1.120000000000000000e+02
1.000000000000000000e+00,0.000000000000000000e+00,0.000000000000000000e+00,4.400000000000000000e+01,1.813500000000000000e+04,2.594320774078369141e-01,1.892024040222167969e+00,6.439214402388018232e-01,0.000000000000000000e+00,1.120000000000000000e+02
0.000000000000000000e+00,0.000000000000000000e+00,1.000000000000000000e+00,4.200000000000000000e+01,1.817700000000000000e+04,4.000737667083740234e-01,2.097308874130249023e+00,7.078532314695042960e-01,0.000000000000000000e+00,1.120000000000000000e+02
1.000000000000000000e+00,1.000000000000000000e+00,1.000000000000000000e+00,6.400000000000000000e+01,1.824100000000000000e+04,3.032407760620117188e-01,1.985353946685791016e+00,6.932597078269149282e-01,0.000000000000000000e+00,1.120000000000000000e+02
1.000000000000000000e+00,1.000000000000000000e+00,1.000000000000000000e+00,6.200000000000000000e+01,1.830300000000000000e+04,2.949931621551513672e-01,1.864599943161010742e+00,5.746835485542372002e-01,0.000000000000000000e+00,1.120000000000000000e+02
1.000000000000000000e+00,1.000000000000000000e+00,1.000000000000000000e+00,5.400000000000000000e+01,1.835700000000000000e+04,2.943379878997802734e-01,1.899286985397338867e+00,6.073449181835752775e-01,0.000000000000000000e+00,1.120000000000000000e+02
1.000000000000000000e+00,1.000000000000000000e+00,1.000000000000000000e+00,6.400000000000000000e+01,1.842100000000000000e+04,3.044600486755371094e-01,1.879362106323242188e+00,5.867555875622272321e-01,0.000000000000000000e+00,1.120000000000000000e+02
0.000000000000000000e+00,1.000000000000000000e+00,0.000000000000000000e+00,6.100000000000000000e+01,1.848200000000000000e+04,3.351888656616210938e-01,1.813276052474975586e+00,4.834696901335851504e-01,0.000000000000000000e+00,1.120000000000000000e+02
1.000000000000000000e+00,0.000000000000000000e+00,0.000000000000000000e+00,4.500000000000000000e+01,1.852700000000000000e+04,2.915709018707275391e-01,1.867336034774780273e+00,5.840598816076734145e-01,1.000000000000000000e+00,1.110000000000000000e+02
1.000000000000000000e+00,1.000000000000000000e+00,1.000000000000000000e+00,5.600000000000000000e+01,1.858300000000000000e+04,3.259329795837402344e-01,1.924808979034423828e+00,6.088992014844883949e-01,0.000000000000000000e+00,1.110000000000000000e+02
1.000000000000000000e+00,1.000000000000000000e+00,1.000000000000000000e+00,5.700000000000000000e+01,1.864000000000000000e+04,3.173711299896240234e-01,1.693751096725463867e+00,3.862831796150715258e-01,0.000000000000000000e+00,1.110000000000000000e+02
1.000000000000000000e+00,1.000000000000000000e+00,1.000000000000000000e+00,5.300000000000000000e+01,1.869300000000000000e+04,3.074300289154052734e-01,2.023284912109375000e+00,7.259211712040479769e-01,0.000000000000000000e+00,1.110000000000000000e+02
1.000000000000000000e+00,1.000000000000000000e+00,1.000000000000000000e+00,5.500000000000000000e+01,1.874800000000000000e+04,2.718541622161865234e-01,1.941035985946655273e+00,6.836920739039490380e-01,0.000000000000000000e+00,1.110000000000000000e+02
0.000000000000000000e+00,1.000000000000000000e+00,0.000000000000000000e+00,5.600000000000000000e+01,1.880400000000000000e+04,3.949849605560302734e-01,2.106945037841796875e+00,7.073221210954898641e-01,0.000000000000000000e+00,1.110000000000000000e+02
1.000000000000000000e+00,1.000000000000000000e+00,1.000000000000000000e+00,5.600000000000000000e+01,1.886000000000000000e+04,2.369871139526367188e-01,1.950207948684692383e+00,7.242262070725088430e-01,0.000000000000000000e+00,1.110000000000000000e+02
1.000000000000000000e+00,1.000000000000000000e+00,1.000000000000000000e+00,6.000000000000000000e+01,1.892000000000000000e+04,3.530919551849365234e-01,1.635587930679321289e+00,2.936276256779907223e-01,0.000000000000000000e+00,1.110000000000000000e+02
0.000000000000000000e+00,1.000000000000000000e+00,0.000000000000000000e+00,5.500000000000000000e+01,1.897500000000000000e+04,5.127990245819091797e-01,2.230336189270019531e+00,7.235573902681216030e-01,0.000000000000000000e+00,1.110000000000000000e+02
1.000000000000000000e+00,1.000000000000000000e+00,1.000000000000000000e+00,6.100000000000000000e+01,1.903600000000000000e+04,2.935249805450439453e-01,1.610744953155517578e+00,3.347257017184881445e-01,0.000000000000000000e+00,1.110000000000000000e+02
1.000000000000000000e+00,1.000000000000000000e+00,1.000000000000000000e+00,6.100000000000000000e+01,1.909700000000000000e+04,3.919231891632080078e-01,2.115808963775634766e+00,7.334966930237734051e-01,0.000000000000000000e+00,1.110000000000000000e+02
1.000000000000000000e+00,1.000000000000000000e+00,1.000000000000000000e+00,5.400000000000000000e+01,1.915100000000000000e+04,5.084009170532226562e-01,1.951552152633666992e+00,4.519932167176955451e-01,0.000000000000000000e+00,1.110000000000000000e+02
1.000000000000000000e+00,1.000000000000000000e+00,1.000000000000000000e+00,5.600000000000000000e+01,1.920700000000000000e+04,3.533990383148193359e-01,1.628371000289916992e+00,2.806087666898264832e-01,0.000000000000000000e+00,1.110000000000000000e+02
0.000000000000000000e+00,1.000000000000000000e+00,0.000000000000000000e+00,6.200000000000000000e+01,1.926900000000000000e+04,4.638199806213378906e-01,1.907286882400512695e+00,4.544299627137020625e-01,0.000000000000000000e+00,1.110000000000000000e+02
1.000000000000000000e+00,0.000000000000000000e+00,0.000000000000000000e+00,4.200000000000000000e+01,1.931100000000000000e+04,3.422019481658935547e-01,1.697149038314819336e+00,3.683627033041058096e-01,0.000000000000000000e+00,1.110000000000000000e+02
1.000000000000000000e+00,0.000000000000000000e+00,0.000000000000000000e+00,4.100000000000000000e+01,1.935200000000000000e+04,2.702589035034179688e-01,1.723709106445312500e+00,4.586573915312984751e-01,0.000000000000000000e+00,1.110000000000000000e+02
1.000000000000000000e+00,0.000000000000000000e+00,0.000000000000000000e+00,4.000000000000000000e+01,1.939200000000000000e+04,2.836799621582031250e-01,1.813991069793701172e+00,5.392588950392702696e-01,0.000000000000000000e+00,1.110000000000000000e+02
1.000000000000000000e+00,0.000000000000000000e+00,0.000000000000000000e+00,4.600000000000000000e+01,1.943800000000000000e+04,2.450618743896484375e-01,1.923975944519042969e+00,6.798139131271712099e-01,0.000000000000000000e+00,1.110000000000000000e+02
0.000000000000000000e+00,1.000000000000000000e+00,0.000000000000000000e+00,5.900000000000000000e+01,1.949700000000000000e+04,2.955029010772705078e-01,1.803683042526245117e+00,5.170101473196462294e-01,0.000000000000000000e+00,1.110000000000000000e+02
0.000000000000000000e+00,1.000000000000000000e+00,0.000000000000000000e+00,5.900000000000000000e+01,1.955600000000000000e+04,3.378331661224365234e-01,1.958729982376098633e+00,6.256816262053206401e-01,0.000000000000000000e+00,1.110000000000000000e+02
0.000000000000000000e+00,1.000000000000000000e+00,0.000000000000000000e+00,6.000000000000000000e+01,1.961600000000000000e+04,3.509070873260498047e-01,2.040325164794921875e+00,6.992882415242420713e-01,0.000000000000000000e+00,1.110000000000000000e+02
0.000000000000000000e+00,1.000000000000000000e+00,0.000000000000000000e+00,5.700000000000000000e+01,1.967300000000000000e+04,4.719820022583007812e-01,2.193269014358520508e+00,7.258741802882330285e-01,0.000000000000000000e+00,1.110000000000000000e+02
0.000000000000000000e+00,1.000000000000000000e+00,0.000000000000000000e+00,6.700000000000000000e+01,1.974000000000000000e+04,2.827188968658447266e-01,1.670081853866577148e+00,3.963101609207351217e-01,0.000000000000000000e+00,1.110000000000000000e+02
1.000000000000000000e+00,1.000000000000000000e+00,1.000000000000000000e+00,6.000000000000000000e+01,1.980000000000000000e+04,3.291649818420410156e-01,1.775616168975830078e+00,4.552698952148520606e-01,0.000000000000000000e+00,1.110000000000000000e+02
1.000000000000000000e+00,0.000000000000000000e+00,0.000000000000000000e+00,4.900000000000000000e+01,1.984900000000000000e+04,3.857631683349609375e-01,2.009351015090942383e+00,6.310776361927927791e-01,1.000000000000000000e+00,1.120000000000000000e+02
0.000000000000000000e+00,0.000000000000000000e+00,1.000000000000000000e+00,4.700000000000000000e+01,1.989600000000000000e+04,3.268580436706542969e-01,1.977906942367553711e+00,6.756546337261137847e-01,0.000000000000000000e+00,1.120000000000000000e+02
1.000000000000000000e+00,0.000000000000000000e+00,0.000000000000000000e+00,4.800000000000000000e+01,1.994400000000000000e+04,2.506060600280761719e-01,1.520364999771118164e+00,2.798341194061585435e-01,0.000000000000000000e+00,1.120000000000000000e+02
0.000000000000000000e+00,0.000000000000000000e+00,1.000000000000000000e+00,4.900000000000000000e+01,1.999300000000000000e+04,5.001320838928222656e-01,2.022453069686889648e+00,5.353584250608323103e-01,0.000000000000000000e+00,1.120000000000000000e+02
1.000000000000000000e+00,0.000000000000000000e+00,0.000000000000000000e+00,4.700000000000000000e+01,2.004000000000000000e+04,2.807819843292236328e-01,1.862778902053833008e+00,5.814598894925218087e-01,0.000000000000000000e+00,1.120000000000000000e+02
0.000000000000000000e+00,0.000000000000000000e+00,1.000000000000000000e+00,4.800000000000000000e+01,2.008800000000000000e+04,2.477769851684570312e-01,1.886989116668701172e+00,6.517554840408199546e-01,0.000000000000000000e+00,1.120000000000000000e+02
0.000000000000000000e+00,0.000000000000000000e+00,1.000000000000000000e+00,4.300000000000000000e+01,2.013100000000000000e+04,3.708670139312744141e-01,1.758986949920654297e+00,3.943923882359325894e-01,0.000000000000000000e+00,1.120000000000000000e+02
1.000000000000000000e+00,0.000000000000000000e+00,0.000000000000000000e+00,4.800000000000000000e+01,2.017900000000000000e+04,3.359501361846923828e-01,1.808727979660034180e+00,4.863657591611424968e-01,0.000000000000000000e+00,1.120000000000000000e+02
0.000000000000000000e+00,0.000000000000000000e+00,1.000000000000000000e+00,4.900000000000000000e+01,2.022800000000000000e+04,3.513250350952148438e-01,1.611438989639282227e+00,2.647481720848113285e-01,0.000000000000000000e+00,1.120000000000000000e+02
