choice, accuracy, solution,  reward, cumulative_reward, rt,  total_trial_time, iti, cp_with_slow_fast, obs_cp_with_slow_fast, high_val_cue
1.000000000000000000e+00,1.000000000000000000e+00,1.000000000000000000e+00,1.000000000000000000e+00,6.000000000000000000e+02,4.669420719146728516e-01,1.921756029129028320e+00,4.567051040801813899e-01,0.000000000000000000e+00,0.000000000000000000e+00,1.120000000000000000e+02
0.000000000000000000e+00,1.000000000000000000e+00,0.000000000000000000e+00,1.000000000000000000e+00,6.000000000000000000e+02,3.014540672302246094e-01,2.010035991668701172e+00,7.164221471769616212e-01,0.000000000000000000e+00,0.000000000000000000e+00,1.120000000000000000e+02
1.000000000000000000e+00,1.000000000000000000e+00,1.000000000000000000e+00,2.000000000000000000e+00,6.010000000000000000e+02,1.928198337554931641e-01,1.447039127349853516e+00,2.639419901686418934e-01,0.000000000000000000e+00,1.000000000000000000e+00,1.110000000000000000e+02
1.000000000000000000e+00,0.000000000000000000e+00,0.000000000000000000e+00,0.000000000000000000e+00,6.000000000000000000e+02,5.944750308990478516e-01,2.014534950256347656e+00,4.282756523863645581e-01,0.000000000000000000e+00,1.000000000000000000e+00,1.120000000000000000e+02
0.000000000000000000e+00,0.000000000000000000e+00,1.000000000000000000e+00,0.000000000000000000e+00,5.990000000000000000e+02,3.228690624237060547e-01,1.829777002334594727e+00,5.242994389684026979e-01,0.000000000000000000e+00,1.000000000000000000e+00,1.110000000000000000e+02
1.000000000000000000e+00,0.000000000000000000e+00,0.000000000000000000e+00,0.000000000000000000e+00,5.980000000000000000e+02,5.937459468841552734e-01,2.235696792602539062e+00,6.602215093369425691e-01,0.000000000000000000e+00,1.000000000000000000e+00,1.120000000000000000e+02
0.000000000000000000e+00,1.000000000000000000e+00,0.000000000000000000e+00,1.000000000000000000e+00,5.980000000000000000e+02,3.194420337677001953e-01,1.616500139236450195e+00,3.104929931962431278e-01,0.000000000000000000e+00,0.000000000000000000e+00,1.120000000000000000e+02
1.000000000000000000e+00,0.000000000000000000e+00,0.000000000000000000e+00,0.000000000000000000e+00,5.970000000000000000e+02,2.948379516601562500e-01,1.853317975997924805e+00,5.635606740982668228e-01,0.000000000000000000e+00,1.000000000000000000e+00,1.110000000000000000e+02
0.000000000000000000e+00,1.000000000000000000e+00,0.000000000000000000e+00,3.000000000000000000e+00,5.990000000000000000e+02,2.999031543731689453e-01,1.576843023300170898e+00,2.906992346383673875e-01,0.000000000000000000e+00,1.000000000000000000e+00,1.120000000000000000e+02
1.000000000000000000e+00,0.000000000000000000e+00,0.000000000000000000e+00,0.000000000000000000e+00,5.980000000000000000e+02,2.846519947052001953e-01,1.769781112670898438e+00,4.936248086628787779e-01,0.000000000000000000e+00,1.000000000000000000e+00,1.110000000000000000e+02
1.000000000000000000e+00,1.000000000000000000e+00,1.000000000000000000e+00,2.000000000000000000e+00,5.990000000000000000e+02,3.039910793304443359e-01,1.549704074859619141e+00,2.602734757630423834e-01,0.000000000000000000e+00,1.000000000000000000e+00,1.120000000000000000e+02
0.000000000000000000e+00,1.000000000000000000e+00,0.000000000000000000e+00,4.000000000000000000e+00,6.020000000000000000e+02,2.871060371398925781e-01,1.838304042816162109e+00,5.649575809932541048e-01,0.000000000000000000e+00,0.000000000000000000e+00,1.120000000000000000e+02
0.000000000000000000e+00,0.000000000000000000e+00,1.000000000000000000e+00,0.000000000000000000e+00,6.010000000000000000e+02,2.908380031585693359e-01,1.572039842605590820e+00,3.039398242683221674e-01,0.000000000000000000e+00,1.000000000000000000e+00,1.110000000000000000e+02
1.000000000000000000e+00,1.000000000000000000e+00,1.000000000000000000e+00,2.000000000000000000e+00,6.020000000000000000e+02,2.374989986419677734e-01,1.872648000717163086e+00,6.428955675596523811e-01,0.000000000000000000e+00,1.000000000000000000e+00,1.120000000000000000e+02
0.000000000000000000e+00,1.000000000000000000e+00,0.000000000000000000e+00,2.000000000000000000e+00,6.030000000000000000e+02,2.428750991821289062e-01,1.617197990417480469e+00,3.937267753447299956e-01,0.000000000000000000e+00,0.000000000000000000e+00,1.120000000000000000e+02
1.000000000000000000e+00,1.000000000000000000e+00,1.000000000000000000e+00,1.000000000000000000e+00,6.030000000000000000e+02,2.592110633850097656e-01,1.633029937744140625e+00,3.934325603078870914e-01,0.000000000000000000e+00,0.000000000000000000e+00,1.120000000000000000e+02
1.000000000000000000e+00,1.000000000000000000e+00,1.000000000000000000e+00,4.000000000000000000e+00,6.060000000000000000e+02,3.420188426971435547e-01,2.068904161453247070e+00,7.453087983066839506e-01,0.000000000000000000e+00,0.000000000000000000e+00,1.120000000000000000e+02
0.000000000000000000e+00,0.000000000000000000e+00,1.000000000000000000e+00,0.000000000000000000e+00,6.050000000000000000e+02,2.044370174407958984e-01,1.716409921646118164e+00,5.286474786930651648e-01,0.000000000000000000e+00,1.000000000000000000e+00,1.110000000000000000e+02
1.000000000000000000e+00,1.000000000000000000e+00,1.000000000000000000e+00,3.000000000000000000e+00,6.070000000000000000e+02,2.608120441436767578e-01,1.973613977432250977e+00,7.354269879883451599e-01,0.000000000000000000e+00,1.000000000000000000e+00,1.120000000000000000e+02
1.000000000000000000e+00,0.000000000000000000e+00,0.000000000000000000e+00,0.000000000000000000e+00,6.060000000000000000e+02,2.624771595001220703e-01,1.557407855987548828e+00,2.932821491893310428e-01,0.000000000000000000e+00,1.000000000000000000e+00,1.110000000000000000e+02
1.000000000000000000e+00,1.000000000000000000e+00,1.000000000000000000e+00,2.000000000000000000e+00,6.070000000000000000e+02,3.175821304321289062e-01,1.841417074203491211e+00,5.344923526003526604e-01,0.000000000000000000e+00,1.000000000000000000e+00,1.120000000000000000e+02
1.000000000000000000e+00,0.000000000000000000e+00,0.000000000000000000e+00,0.000000000000000000e+00,6.060000000000000000e+02,2.946891784667968750e-01,1.631897926330566406e+00,3.499070215483176538e-01,0.000000000000000000e+00,1.000000000000000000e+00,1.110000000000000000e+02
1.000000000000000000e+00,1.000000000000000000e+00,1.000000000000000000e+00,3.000000000000000000e+00,6.080000000000000000e+02,2.944228649139404297e-01,1.759809017181396484e+00,4.596432705612704672e-01,0.000000000000000000e+00,1.000000000000000000e+00,1.120000000000000000e+02
0.000000000000000000e+00,0.000000000000000000e+00,1.000000000000000000e+00,0.000000000000000000e+00,6.070000000000000000e+02,2.454199790954589844e-01,1.628865957260131836e+00,3.886136923975364588e-01,1.000000000000000000e+00,1.000000000000000000e+00,1.110000000000000000e+02
1.000000000000000000e+00,1.000000000000000000e+00,1.000000000000000000e+00,1.000000000000000000e+00,6.070000000000000000e+02,2.771580219268798828e-01,1.910271883010864258e+00,6.486094009351819345e-01,0.000000000000000000e+00,1.000000000000000000e+00,1.120000000000000000e+02
1.000000000000000000e+00,0.000000000000000000e+00,0.000000000000000000e+00,0.000000000000000000e+00,6.060000000000000000e+02,2.835729122161865234e-01,1.557384014129638672e+00,2.731085551176231641e-01,0.000000000000000000e+00,1.000000000000000000e+00,1.110000000000000000e+02
0.000000000000000000e+00,0.000000000000000000e+00,1.000000000000000000e+00,0.000000000000000000e+00,6.050000000000000000e+02,2.876310348510742188e-01,1.850909948348999023e+00,5.737390542404626759e-01,0.000000000000000000e+00,1.000000000000000000e+00,1.120000000000000000e+02
0.000000000000000000e+00,0.000000000000000000e+00,1.000000000000000000e+00,0.000000000000000000e+00,6.040000000000000000e+02,3.276638984680175781e-01,1.586133956909179688e+00,2.768324827064795324e-01,0.000000000000000000e+00,1.000000000000000000e+00,1.110000000000000000e+02
1.000000000000000000e+00,1.000000000000000000e+00,1.000000000000000000e+00,3.000000000000000000e+00,6.060000000000000000e+02,3.043859004974365234e-01,1.918186187744140625e+00,6.279940040088942688e-01,0.000000000000000000e+00,0.000000000000000000e+00,1.110000000000000000e+02
1.000000000000000000e+00,0.000000000000000000e+00,0.000000000000000000e+00,0.000000000000000000e+00,6.050000000000000000e+02,2.837522029876708984e-01,1.537093877792358398e+00,2.655525516055209923e-01,0.000000000000000000e+00,1.000000000000000000e+00,1.120000000000000000e+02
0.000000000000000000e+00,1.000000000000000000e+00,0.000000000000000000e+00,3.000000000000000000e+00,6.070000000000000000e+02,4.884910583496093750e-01,1.966104030609130859e+00,4.980748949230859313e-01,0.000000000000000000e+00,1.000000000000000000e+00,1.110000000000000000e+02
1.000000000000000000e+00,0.000000000000000000e+00,0.000000000000000000e+00,0.000000000000000000e+00,6.060000000000000000e+02,1.970498561859130859e-01,1.879029035568237305e+00,6.936647728031877236e-01,0.000000000000000000e+00,1.000000000000000000e+00,1.120000000000000000e+02
0.000000000000000000e+00,1.000000000000000000e+00,0.000000000000000000e+00,4.000000000000000000e+00,6.090000000000000000e+02,5.136661529541015625e-01,1.819065093994140625e+00,3.130866359609187355e-01,0.000000000000000000e+00,1.000000000000000000e+00,1.110000000000000000e+02
0.000000000000000000e+00,1.000000000000000000e+00,0.000000000000000000e+00,1.000000000000000000e+00,6.090000000000000000e+02,3.739659786224365234e-01,1.906332969665527344e+00,5.524862234487015744e-01,0.000000000000000000e+00,0.000000000000000000e+00,1.110000000000000000e+02
1.000000000000000000e+00,0.000000000000000000e+00,0.000000000000000000e+00,0.000000000000000000e+00,6.080000000000000000e+02,3.323249816894531250e-01,1.819766998291015625e+00,4.890033086832168419e-01,0.000000000000000000e+00,0.000000000000000000e+00,1.110000000000000000e+02
1.000000000000000000e+00,0.000000000000000000e+00,0.000000000000000000e+00,0.000000000000000000e+00,6.070000000000000000e+02,2.828829288482666016e-01,1.640774011611938477e+00,3.633035370904638128e-01,0.000000000000000000e+00,1.000000000000000000e+00,1.120000000000000000e+02
0.000000000000000000e+00,1.000000000000000000e+00,0.000000000000000000e+00,2.000000000000000000e+00,6.080000000000000000e+02,5.704689025878906250e-01,2.225720167160034180e+00,6.720940315700891787e-01,1.000000000000000000e+00,1.000000000000000000e+00,1.110000000000000000e+02
1.000000000000000000e+00,0.000000000000000000e+00,0.000000000000000000e+00,0.000000000000000000e+00,6.070000000000000000e+02,2.033758163452148438e-01,1.581986904144287109e+00,3.877191717762507595e-01,0.000000000000000000e+00,1.000000000000000000e+00,1.120000000000000000e+02
1.000000000000000000e+00,1.000000000000000000e+00,1.000000000000000000e+00,2.000000000000000000e+00,6.080000000000000000e+02,3.110527992248535156e-01,1.947381019592285156e+00,6.515224339304864776e-01,0.000000000000000000e+00,1.000000000000000000e+00,1.110000000000000000e+02
0.000000000000000000e+00,0.000000000000000000e+00,1.000000000000000000e+00,0.000000000000000000e+00,6.070000000000000000e+02,2.391140460968017578e-01,1.541960000991821289e+00,3.105092316564277422e-01,0.000000000000000000e+00,1.000000000000000000e+00,1.120000000000000000e+02
0.000000000000000000e+00,0.000000000000000000e+00,1.000000000000000000e+00,0.000000000000000000e+00,6.060000000000000000e+02,2.918531894683837891e-01,1.703802108764648438e+00,4.308670509016633288e-01,0.000000000000000000e+00,0.000000000000000000e+00,1.120000000000000000e+02
0.000000000000000000e+00,0.000000000000000000e+00,1.000000000000000000e+00,0.000000000000000000e+00,6.050000000000000000e+02,4.148769378662109375e-01,1.670608997344970703e+00,2.683499165728853719e-01,0.000000000000000000e+00,0.000000000000000000e+00,1.120000000000000000e+02
0.000000000000000000e+00,1.000000000000000000e+00,0.000000000000000000e+00,3.000000000000000000e+00,6.070000000000000000e+02,3.565821647644042969e-01,1.812844991683959961e+00,4.643410143970976844e-01,0.000000000000000000e+00,0.000000000000000000e+00,1.120000000000000000e+02
1.000000000000000000e+00,1.000000000000000000e+00,1.000000000000000000e+00,2.000000000000000000e+00,6.080000000000000000e+02,2.676432132720947266e-01,1.656779050827026367e+00,4.045534665594768264e-01,0.000000000000000000e+00,0.000000000000000000e+00,1.120000000000000000e+02
1.000000000000000000e+00,0.000000000000000000e+00,0.000000000000000000e+00,0.000000000000000000e+00,6.070000000000000000e+02,3.090050220489501953e-01,1.935729980468750000e+00,6.400286046685494945e-01,0.000000000000000000e+00,1.000000000000000000e+00,1.110000000000000000e+02
1.000000000000000000e+00,0.000000000000000000e+00,0.000000000000000000e+00,0.000000000000000000e+00,6.060000000000000000e+02,3.338179588317871094e-01,2.023981094360351562e+00,6.973586591441938154e-01,0.000000000000000000e+00,0.000000000000000000e+00,1.110000000000000000e+02
0.000000000000000000e+00,1.000000000000000000e+00,0.000000000000000000e+00,2.000000000000000000e+00,6.070000000000000000e+02,2.702040672302246094e-01,1.504197835922241211e+00,2.520073948916818907e-01,0.000000000000000000e+00,0.000000000000000000e+00,1.110000000000000000e+02
0.000000000000000000e+00,0.000000000000000000e+00,1.000000000000000000e+00,0.000000000000000000e+00,6.060000000000000000e+02,2.776250839233398438e-01,1.567605972290039062e+00,3.029219658629367373e-01,0.000000000000000000e+00,1.000000000000000000e+00,1.120000000000000000e+02
1.000000000000000000e+00,0.000000000000000000e+00,0.000000000000000000e+00,0.000000000000000000e+00,6.050000000000000000e+02,2.560410499572753906e-01,1.880297899246215820e+00,6.328694329536970198e-01,0.000000000000000000e+00,0.000000000000000000e+00,1.120000000000000000e+02
0.000000000000000000e+00,1.000000000000000000e+00,0.000000000000000000e+00,3.000000000000000000e+00,6.070000000000000000e+02,2.748138904571533203e-01,1.675099134445190430e+00,4.082199611218105262e-01,0.000000000000000000e+00,0.000000000000000000e+00,1.120000000000000000e+02
0.000000000000000000e+00,1.000000000000000000e+00,0.000000000000000000e+00,2.000000000000000000e+00,6.080000000000000000e+02,3.419520854949951172e-01,1.593068838119506836e+00,2.681191943056716043e-01,0.000000000000000000e+00,0.000000000000000000e+00,1.120000000000000000e+02
1.000000000000000000e+00,1.000000000000000000e+00,1.000000000000000000e+00,1.000000000000000000e+00,6.080000000000000000e+02,2.770121097564697266e-01,1.743853807449340820e+00,4.784521736772627265e-01,0.000000000000000000e+00,0.000000000000000000e+00,1.120000000000000000e+02
0.000000000000000000e+00,1.000000000000000000e+00,0.000000000000000000e+00,2.000000000000000000e+00,6.090000000000000000e+02,2.388691902160644531e-01,1.959185838699340820e+00,7.374171388753890666e-01,0.000000000000000000e+00,0.000000000000000000e+00,1.120000000000000000e+02
0.000000000000000000e+00,1.000000000000000000e+00,0.000000000000000000e+00,4.000000000000000000e+00,6.120000000000000000e+02,2.421920299530029297e-01,1.537142038345336914e+00,3.083301159362989985e-01,0.000000000000000000e+00,0.000000000000000000e+00,1.120000000000000000e+02
1.000000000000000000e+00,0.000000000000000000e+00,0.000000000000000000e+00,0.000000000000000000e+00,6.110000000000000000e+02,3.239421844482421875e-01,1.589550018310546875e+00,2.812668065935226558e-01,0.000000000000000000e+00,1.000000000000000000e+00,1.110000000000000000e+02
0.000000000000000000e+00,0.000000000000000000e+00,1.000000000000000000e+00,0.000000000000000000e+00,6.100000000000000000e+02,2.696328163146972656e-01,1.535402059555053711e+00,2.833435797735453510e-01,1.000000000000000000e+00,0.000000000000000000e+00,1.110000000000000000e+02
1.000000000000000000e+00,0.000000000000000000e+00,0.000000000000000000e+00,0.000000000000000000e+00,6.090000000000000000e+02,2.276959419250488281e-01,1.944128990173339844e+00,7.270737932522790548e-01,0.000000000000000000e+00,0.000000000000000000e+00,1.110000000000000000e+02
1.000000000000000000e+00,0.000000000000000000e+00,0.000000000000000000e+00,0.000000000000000000e+00,6.080000000000000000e+02,2.764689922332763672e-01,1.925665140151977539e+00,6.694272365933831015e-01,0.000000000000000000e+00,0.000000000000000000e+00,1.110000000000000000e+02
0.000000000000000000e+00,1.000000000000000000e+00,0.000000000000000000e+00,3.000000000000000000e+00,6.100000000000000000e+02,2.892799377441406250e-01,1.645545959472656250e+00,3.653665106576712285e-01,0.000000000000000000e+00,0.000000000000000000e+00,1.110000000000000000e+02
1.000000000000000000e+00,0.000000000000000000e+00,0.000000000000000000e+00,0.000000000000000000e+00,6.090000000000000000e+02,2.408978939056396484e-01,1.904055118560791016e+00,6.857719810236765356e-01,0.000000000000000000e+00,1.000000000000000000e+00,1.120000000000000000e+02
0.000000000000000000e+00,0.000000000000000000e+00,1.000000000000000000e+00,0.000000000000000000e+00,6.080000000000000000e+02,1.902999877929687500e-01,1.638232946395874023e+00,4.575910505356456381e-01,0.000000000000000000e+00,1.000000000000000000e+00,1.110000000000000000e+02
0.000000000000000000e+00,1.000000000000000000e+00,0.000000000000000000e+00,4.000000000000000000e+00,6.110000000000000000e+02,3.130249977111816406e-01,1.624114990234375000e+00,3.152123468646003124e-01,0.000000000000000000e+00,0.000000000000000000e+00,1.110000000000000000e+02
0.000000000000000000e+00,1.000000000000000000e+00,0.000000000000000000e+00,2.000000000000000000e+00,6.120000000000000000e+02,2.844440937042236328e-01,1.700626850128173828e+00,4.323975240358715055e-01,0.000000000000000000e+00,0.000000000000000000e+00,1.110000000000000000e+02
0.000000000000000000e+00,1.000000000000000000e+00,0.000000000000000000e+00,3.000000000000000000e+00,6.140000000000000000e+02,2.778210639953613281e-01,1.909124135971069336e+00,6.413179278024105923e-01,0.000000000000000000e+00,0.000000000000000000e+00,1.110000000000000000e+02
1.000000000000000000e+00,1.000000000000000000e+00,1.000000000000000000e+00,2.000000000000000000e+00,6.150000000000000000e+02,3.298611640930175781e-01,1.843461990356445312e+00,5.182993711142808158e-01,0.000000000000000000e+00,0.000000000000000000e+00,1.110000000000000000e+02
1.000000000000000000e+00,1.000000000000000000e+00,1.000000000000000000e+00,4.000000000000000000e+00,6.180000000000000000e+02,2.889149188995361328e-01,1.608367919921875000e+00,3.268726640814439977e-01,0.000000000000000000e+00,0.000000000000000000e+00,1.110000000000000000e+02
0.000000000000000000e+00,0.000000000000000000e+00,1.000000000000000000e+00,0.000000000000000000e+00,6.170000000000000000e+02,2.600159645080566406e-01,1.932497024536132812e+00,6.925370700823514358e-01,0.000000000000000000e+00,1.000000000000000000e+00,1.120000000000000000e+02
0.000000000000000000e+00,0.000000000000000000e+00,1.000000000000000000e+00,0.000000000000000000e+00,6.160000000000000000e+02,2.917537689208984375e-01,1.666656017303466797e+00,3.926946391320082497e-01,0.000000000000000000e+00,0.000000000000000000e+00,1.120000000000000000e+02
0.000000000000000000e+00,1.000000000000000000e+00,0.000000000000000000e+00,3.000000000000000000e+00,6.180000000000000000e+02,3.191211223602294922e-01,1.628042936325073242e+00,3.208346468547320640e-01,0.000000000000000000e+00,1.000000000000000000e+00,1.110000000000000000e+02
1.000000000000000000e+00,1.000000000000000000e+00,1.000000000000000000e+00,4.000000000000000000e+00,6.210000000000000000e+02,2.708420753479003906e-01,1.905049085617065430e+00,6.422093774027006763e-01,0.000000000000000000e+00,0.000000000000000000e+00,1.110000000000000000e+02
1.000000000000000000e+00,0.000000000000000000e+00,0.000000000000000000e+00,0.000000000000000000e+00,6.200000000000000000e+02,3.439311981201171875e-01,1.786160945892333984e+00,4.452791023245626922e-01,0.000000000000000000e+00,1.000000000000000000e+00,1.120000000000000000e+02
0.000000000000000000e+00,1.000000000000000000e+00,0.000000000000000000e+00,3.000000000000000000e+00,6.220000000000000000e+02,3.066680431365966797e-01,1.726896047592163086e+00,4.388519108127244550e-01,0.000000000000000000e+00,1.000000000000000000e+00,1.110000000000000000e+02
1.000000000000000000e+00,1.000000000000000000e+00,1.000000000000000000e+00,1.000000000000000000e+00,6.220000000000000000e+02,3.133509159088134766e-01,1.622177124023437500e+00,3.112093477844524170e-01,0.000000000000000000e+00,0.000000000000000000e+00,1.110000000000000000e+02
1.000000000000000000e+00,1.000000000000000000e+00,1.000000000000000000e+00,1.000000000000000000e+00,6.220000000000000000e+02,3.337719440460205078e-01,1.659739971160888672e+00,3.376508718745244164e-01,0.000000000000000000e+00,0.000000000000000000e+00,1.110000000000000000e+02
1.000000000000000000e+00,1.000000000000000000e+00,1.000000000000000000e+00,2.000000000000000000e+00,6.230000000000000000e+02,3.081820011138916016e-01,1.726718902587890625e+00,4.309508877921928716e-01,1.000000000000000000e+00,0.000000000000000000e+00,1.110000000000000000e+02
1.000000000000000000e+00,0.000000000000000000e+00,0.000000000000000000e+00,0.000000000000000000e+00,6.220000000000000000e+02,3.185470104217529297e-01,1.735163927078247070e+00,4.327561015017979407e-01,0.000000000000000000e+00,1.000000000000000000e+00,1.120000000000000000e+02
0.000000000000000000e+00,0.000000000000000000e+00,1.000000000000000000e+00,0.000000000000000000e+00,6.210000000000000000e+02,3.656251430511474609e-01,1.806138038635253906e+00,4.389159959194516292e-01,0.000000000000000000e+00,0.000000000000000000e+00,1.120000000000000000e+02
1.000000000000000000e+00,0.000000000000000000e+00,0.000000000000000000e+00,0.000000000000000000e+00,6.200000000000000000e+02,3.156778812408447266e-01,1.603519916534423828e+00,2.926338260233101729e-01,0.000000000000000000e+00,0.000000000000000000e+00,1.120000000000000000e+02
1.000000000000000000e+00,1.000000000000000000e+00,1.000000000000000000e+00,4.000000000000000000e+00,6.230000000000000000e+02,2.837579250335693359e-01,1.726621150970458984e+00,4.524511374284654330e-01,0.000000000000000000e+00,0.000000000000000000e+00,1.120000000000000000e+02
0.000000000000000000e+00,1.000000000000000000e+00,0.000000000000000000e+00,2.000000000000000000e+00,6.240000000000000000e+02,2.654440402984619141e-01,1.862323999404907227e+00,5.979720695498957905e-01,0.000000000000000000e+00,0.000000000000000000e+00,1.120000000000000000e+02
0.000000000000000000e+00,0.000000000000000000e+00,1.000000000000000000e+00,0.000000000000000000e+00,6.230000000000000000e+02,2.945451736450195312e-01,1.939277887344360352e+00,6.538843858908631734e-01,0.000000000000000000e+00,1.000000000000000000e+00,1.110000000000000000e+02
0.000000000000000000e+00,0.000000000000000000e+00,1.000000000000000000e+00,0.000000000000000000e+00,6.220000000000000000e+02,2.615909576416015625e-01,1.771081209182739258e+00,5.084539401494496680e-01,0.000000000000000000e+00,0.000000000000000000e+00,1.110000000000000000e+02
1.000000000000000000e+00,0.000000000000000000e+00,0.000000000000000000e+00,0.000000000000000000e+00,6.210000000000000000e+02,2.338759899139404297e-01,1.827797889709472656e+00,6.028322698631922716e-01,0.000000000000000000e+00,0.000000000000000000e+00,1.110000000000000000e+02
1.000000000000000000e+00,0.000000000000000000e+00,0.000000000000000000e+00,0.000000000000000000e+00,6.200000000000000000e+02,2.906770706176757812e-01,1.713742017745971680e+00,4.334663384457785873e-01,0.000000000000000000e+00,1.000000000000000000e+00,1.120000000000000000e+02
1.000000000000000000e+00,1.000000000000000000e+00,1.000000000000000000e+00,1.000000000000000000e+00,6.200000000000000000e+02,2.742140293121337891e-01,1.983870029449462891e+00,7.171147106683526395e-01,0.000000000000000000e+00,0.000000000000000000e+00,1.120000000000000000e+02
1.000000000000000000e+00,1.000000000000000000e+00,1.000000000000000000e+00,2.000000000000000000e+00,6.210000000000000000e+02,2.668259143829345703e-01,1.893139123916625977e+00,6.270103413656866742e-01,0.000000000000000000e+00,0.000000000000000000e+00,1.120000000000000000e+02
0.000000000000000000e+00,0.000000000000000000e+00,1.000000000000000000e+00,0.000000000000000000e+00,6.200000000000000000e+02,3.205609321594238281e-01,1.918405055999755859e+00,6.121543129732798239e-01,0.000000000000000000e+00,1.000000000000000000e+00,1.110000000000000000e+02
1.000000000000000000e+00,1.000000000000000000e+00,1.000000000000000000e+00,4.000000000000000000e+00,6.230000000000000000e+02,2.799990177154541016e-01,1.585014104843139648e+00,3.141465104924738849e-01,0.000000000000000000e+00,1.000000000000000000e+00,1.120000000000000000e+02
1.000000000000000000e+00,1.000000000000000000e+00,1.000000000000000000e+00,2.000000000000000000e+00,6.240000000000000000e+02,2.787351608276367188e-01,1.793310880661010742e+00,5.239383696108144139e-01,0.000000000000000000e+00,0.000000000000000000e+00,1.120000000000000000e+02
1.000000000000000000e+00,1.000000000000000000e+00,1.000000000000000000e+00,3.000000000000000000e+00,6.260000000000000000e+02,2.597801685333251953e-01,1.929006099700927734e+00,6.861088590933577258e-01,0.000000000000000000e+00,0.000000000000000000e+00,1.120000000000000000e+02
1.000000000000000000e+00,1.000000000000000000e+00,1.000000000000000000e+00,5.000000000000000000e+00,6.300000000000000000e+02,2.924449443817138672e-01,1.723049879074096680e+00,4.427994842873828607e-01,0.000000000000000000e+00,0.000000000000000000e+00,1.120000000000000000e+02
1.000000000000000000e+00,1.000000000000000000e+00,1.000000000000000000e+00,2.000000000000000000e+00,6.310000000000000000e+02,2.939209938049316406e-01,1.986898899078369141e+00,7.127816264481539044e-01,1.000000000000000000e+00,0.000000000000000000e+00,1.120000000000000000e+02
1.000000000000000000e+00,0.000000000000000000e+00,0.000000000000000000e+00,0.000000000000000000e+00,6.300000000000000000e+02,2.886650562286376953e-01,1.707057952880859375e+00,4.368176389048861186e-01,0.000000000000000000e+00,1.000000000000000000e+00,1.110000000000000000e+02
1.000000000000000000e+00,1.000000000000000000e+00,1.000000000000000000e+00,4.000000000000000000e+00,6.330000000000000000e+02,2.870390415191650391e-01,1.942690849304199219e+00,6.626438090115757129e-01,0.000000000000000000e+00,0.000000000000000000e+00,1.110000000000000000e+02
0.000000000000000000e+00,1.000000000000000000e+00,0.000000000000000000e+00,2.000000000000000000e+00,6.340000000000000000e+02,4.407691955566406250e-01,2.024322986602783203e+00,6.036860625367331812e-01,0.000000000000000000e+00,0.000000000000000000e+00,1.110000000000000000e+02
1.000000000000000000e+00,1.000000000000000000e+00,1.000000000000000000e+00,4.000000000000000000e+00,6.370000000000000000e+02,2.724928855895996094e-01,1.776451826095581055e+00,5.136030522599506210e-01,0.000000000000000000e+00,0.000000000000000000e+00,1.110000000000000000e+02
0.000000000000000000e+00,1.000000000000000000e+00,0.000000000000000000e+00,3.000000000000000000e+00,6.390000000000000000e+02,3.119711875915527344e-01,1.593511104583740234e+00,2.907192334527778366e-01,0.000000000000000000e+00,0.000000000000000000e+00,1.110000000000000000e+02
1.000000000000000000e+00,0.000000000000000000e+00,0.000000000000000000e+00,0.000000000000000000e+00,6.380000000000000000e+02,2.639958858489990234e-01,1.651870965957641602e+00,3.925051907703359655e-01,0.000000000000000000e+00,1.000000000000000000e+00,1.120000000000000000e+02
0.000000000000000000e+00,1.000000000000000000e+00,0.000000000000000000e+00,2.000000000000000000e+00,6.390000000000000000e+02,3.129868507385253906e-01,1.950143814086914062e+00,6.424599481232902143e-01,0.000000000000000000e+00,1.000000000000000000e+00,1.110000000000000000e+02
0.000000000000000000e+00,1.000000000000000000e+00,0.000000000000000000e+00,3.000000000000000000e+00,6.410000000000000000e+02,2.650609016418457031e-01,1.956840991973876953e+00,6.992545687616016359e-01,0.000000000000000000e+00,0.000000000000000000e+00,1.110000000000000000e+02
0.000000000000000000e+00,0.000000000000000000e+00,1.000000000000000000e+00,0.000000000000000000e+00,6.400000000000000000e+02,2.935009002685546875e-01,1.570957899093627930e+00,2.873244201433150513e-01,0.000000000000000000e+00,1.000000000000000000e+00,1.120000000000000000e+02
0.000000000000000000e+00,1.000000000000000000e+00,0.000000000000000000e+00,4.000000000000000000e+00,6.430000000000000000e+02,3.438599109649658203e-01,2.018193006515502930e+00,6.884922615242567989e-01,0.000000000000000000e+00,1.000000000000000000e+00,1.110000000000000000e+02
0.000000000000000000e+00,1.000000000000000000e+00,0.000000000000000000e+00,1.000000000000000000e+00,6.430000000000000000e+02,2.982730865478515625e-01,1.760637998580932617e+00,4.660522958501225332e-01,0.000000000000000000e+00,0.000000000000000000e+00,1.110000000000000000e+02
1.000000000000000000e+00,1.000000000000000000e+00,1.000000000000000000e+00,0.000000000000000000e+00,6.420000000000000000e+02,3.346638679504394531e-01,1.967464923858642578e+00,6.333761503454911068e-01,0.000000000000000000e+00,0.000000000000000000e+00,1.110000000000000000e+02
0.000000000000000000e+00,0.000000000000000000e+00,1.000000000000000000e+00,0.000000000000000000e+00,6.410000000000000000e+02,2.941031455993652344e-01,1.794040918350219727e+00,5.109138546148875859e-01,0.000000000000000000e+00,1.000000000000000000e+00,1.120000000000000000e+02
1.000000000000000000e+00,1.000000000000000000e+00,1.000000000000000000e+00,2.000000000000000000e+00,6.420000000000000000e+02,3.167979717254638672e-01,1.846751928329467773e+00,5.409672670866417787e-01,0.000000000000000000e+00,1.000000000000000000e+00,1.110000000000000000e+02
0.000000000000000000e+00,1.000000000000000000e+00,0.000000000000000000e+00,2.000000000000000000e+00,6.430000000000000000e+02,3.558969497680664062e-01,1.851861000061035156e+00,5.095649949556528835e-01,0.000000000000000000e+00,0.000000000000000000e+00,1.110000000000000000e+02
0.000000000000000000e+00,1.000000000000000000e+00,0.000000000000000000e+00,3.000000000000000000e+00,6.450000000000000000e+02,3.209550380706787109e-01,1.814738035202026367e+00,5.076823705230247841e-01,0.000000000000000000e+00,0.000000000000000000e+00,1.110000000000000000e+02
1.000000000000000000e+00,0.000000000000000000e+00,0.000000000000000000e+00,0.000000000000000000e+00,6.440000000000000000e+02,3.533711433410644531e-01,2.061794996261596680e+00,7.192861375613557318e-01,1.000000000000000000e+00,1.000000000000000000e+00,1.120000000000000000e+02
0.000000000000000000e+00,0.000000000000000000e+00,1.000000000000000000e+00,0.000000000000000000e+00,6.430000000000000000e+02,2.607698440551757812e-01,1.664613008499145508e+00,4.175606786853999219e-01,0.000000000000000000e+00,0.000000000000000000e+00,1.120000000000000000e+02
0.000000000000000000e+00,0.000000000000000000e+00,1.000000000000000000e+00,0.000000000000000000e+00,6.420000000000000000e+02,8.542089462280273438e-01,2.444315910339355469e+00,5.950455535302630050e-01,0.000000000000000000e+00,1.000000000000000000e+00,1.110000000000000000e+02
1.000000000000000000e+00,0.000000000000000000e+00,0.000000000000000000e+00,0.000000000000000000e+00,6.410000000000000000e+02,3.369278907775878906e-01,1.838427066802978516e+00,5.169283385762020178e-01,0.000000000000000000e+00,1.000000000000000000e+00,1.120000000000000000e+02
1.000000000000000000e+00,1.000000000000000000e+00,1.000000000000000000e+00,3.000000000000000000e+00,6.430000000000000000e+02,3.339529037475585938e-01,1.888992071151733398e+00,5.558992659575001660e-01,0.000000000000000000e+00,0.000000000000000000e+00,1.120000000000000000e+02
1.000000000000000000e+00,0.000000000000000000e+00,0.000000000000000000e+00,0.000000000000000000e+00,6.420000000000000000e+02,2.885940074920654297e-01,1.634160995483398438e+00,3.569557924146306016e-01,0.000000000000000000e+00,1.000000000000000000e+00,1.110000000000000000e+02
0.000000000000000000e+00,1.000000000000000000e+00,0.000000000000000000e+00,1.000000000000000000e+00,6.420000000000000000e+02,3.172898292541503906e-01,1.765994787216186523e+00,4.561999807454810152e-01,0.000000000000000000e+00,1.000000000000000000e+00,1.120000000000000000e+02
1.000000000000000000e+00,1.000000000000000000e+00,1.000000000000000000e+00,2.000000000000000000e+00,6.430000000000000000e+02,2.497651576995849609e-01,1.847513198852539062e+00,6.035419970541586743e-01,0.000000000000000000e+00,0.000000000000000000e+00,1.120000000000000000e+02
0.000000000000000000e+00,0.000000000000000000e+00,1.000000000000000000e+00,0.000000000000000000e+00,6.420000000000000000e+02,2.688541412353515625e-01,1.946551799774169922e+00,6.834281361908278729e-01,0.000000000000000000e+00,1.000000000000000000e+00,1.110000000000000000e+02
0.000000000000000000e+00,1.000000000000000000e+00,0.000000000000000000e+00,4.000000000000000000e+00,6.450000000000000000e+02,2.638671398162841797e-01,1.790084123611450195e+00,5.236993546386088383e-01,0.000000000000000000e+00,1.000000000000000000e+00,1.120000000000000000e+02
0.000000000000000000e+00,1.000000000000000000e+00,0.000000000000000000e+00,2.000000000000000000e+00,6.460000000000000000e+02,3.466780185699462891e-01,1.941104888916015625e+00,5.980682514029418417e-01,0.000000000000000000e+00,0.000000000000000000e+00,1.120000000000000000e+02
1.000000000000000000e+00,1.000000000000000000e+00,1.000000000000000000e+00,3.000000000000000000e+00,6.480000000000000000e+02,2.644300460815429688e-01,1.575140953063964844e+00,3.235244144103586739e-01,1.000000000000000000e+00,0.000000000000000000e+00,1.120000000000000000e+02
0.000000000000000000e+00,0.000000000000000000e+00,1.000000000000000000e+00,0.000000000000000000e+00,6.470000000000000000e+02,2.610878944396972656e-01,1.925945997238159180e+00,6.491682535105969265e-01,0.000000000000000000e+00,1.000000000000000000e+00,1.110000000000000000e+02
0.000000000000000000e+00,0.000000000000000000e+00,1.000000000000000000e+00,0.000000000000000000e+00,6.460000000000000000e+02,2.688298225402832031e-01,1.675609111785888672e+00,4.083920317125936394e-01,0.000000000000000000e+00,0.000000000000000000e+00,1.110000000000000000e+02
0.000000000000000000e+00,0.000000000000000000e+00,1.000000000000000000e+00,0.000000000000000000e+00,6.450000000000000000e+02,3.162891864776611328e-01,1.942930936813354492e+00,6.344516722839617096e-01,0.000000000000000000e+00,0.000000000000000000e+00,1.110000000000000000e+02
1.000000000000000000e+00,1.000000000000000000e+00,1.000000000000000000e+00,2.000000000000000000e+00,6.460000000000000000e+02,2.772970199584960938e-01,1.797625064849853516e+00,5.321886942016527122e-01,0.000000000000000000e+00,0.000000000000000000e+00,1.110000000000000000e+02
0.000000000000000000e+00,0.000000000000000000e+00,1.000000000000000000e+00,0.000000000000000000e+00,6.450000000000000000e+02,2.583642005920410156e-01,1.980654954910278320e+00,7.293293769558067963e-01,0.000000000000000000e+00,1.000000000000000000e+00,1.120000000000000000e+02
1.000000000000000000e+00,1.000000000000000000e+00,1.000000000000000000e+00,3.000000000000000000e+00,6.470000000000000000e+02,2.877540588378906250e-01,1.741055965423583984e+00,4.706772155871642438e-01,0.000000000000000000e+00,1.000000000000000000e+00,1.110000000000000000e+02
0.000000000000000000e+00,0.000000000000000000e+00,1.000000000000000000e+00,0.000000000000000000e+00,6.460000000000000000e+02,3.008131980895996094e-01,1.797090053558349609e+00,5.010788208804060062e-01,0.000000000000000000e+00,1.000000000000000000e+00,1.120000000000000000e+02
0.000000000000000000e+00,1.000000000000000000e+00,0.000000000000000000e+00,3.000000000000000000e+00,6.480000000000000000e+02,3.218691349029541016e-01,1.664729833602905273e+00,3.493485003769258856e-01,0.000000000000000000e+00,1.000000000000000000e+00,1.110000000000000000e+02
1.000000000000000000e+00,1.000000000000000000e+00,1.000000000000000000e+00,3.000000000000000000e+00,6.500000000000000000e+02,2.933201789855957031e-01,1.860301017761230469e+00,5.760891553198448367e-01,0.000000000000000000e+00,0.000000000000000000e+00,1.110000000000000000e+02
0.000000000000000000e+00,1.000000000000000000e+00,0.000000000000000000e+00,3.000000000000000000e+00,6.520000000000000000e+02,3.053572177886962891e-01,1.990181922912597656e+00,6.995397469231279253e-01,0.000000000000000000e+00,0.000000000000000000e+00,1.110000000000000000e+02
0.000000000000000000e+00,1.000000000000000000e+00,0.000000000000000000e+00,2.000000000000000000e+00,6.530000000000000000e+02,2.914540767669677734e-01,2.005749940872192383e+00,7.219390769820414056e-01,0.000000000000000000e+00,0.000000000000000000e+00,1.110000000000000000e+02
1.000000000000000000e+00,1.000000000000000000e+00,1.000000000000000000e+00,2.000000000000000000e+00,6.540000000000000000e+02,2.644660472869873047e-01,1.874323129653930664e+00,6.131159192093377230e-01,0.000000000000000000e+00,0.000000000000000000e+00,1.110000000000000000e+02
0.000000000000000000e+00,1.000000000000000000e+00,0.000000000000000000e+00,1.000000000000000000e+00,6.540000000000000000e+02,2.448351383209228516e-01,1.894540071487426758e+00,6.742897362442559217e-01,0.000000000000000000e+00,0.000000000000000000e+00,1.110000000000000000e+02
1.000000000000000000e+00,0.000000000000000000e+00,0.000000000000000000e+00,0.000000000000000000e+00,6.530000000000000000e+02,2.349379062652587891e-01,1.697489023208618164e+00,4.719797612631329020e-01,0.000000000000000000e+00,1.000000000000000000e+00,1.120000000000000000e+02
1.000000000000000000e+00,0.000000000000000000e+00,0.000000000000000000e+00,0.000000000000000000e+00,6.520000000000000000e+02,3.729140758514404297e-01,1.629351854324340820e+00,2.682564481970321491e-01,0.000000000000000000e+00,0.000000000000000000e+00,1.120000000000000000e+02
1.000000000000000000e+00,1.000000000000000000e+00,1.000000000000000000e+00,4.000000000000000000e+00,6.550000000000000000e+02,5.147471427917480469e-01,1.831270933151245117e+00,3.161921057783145250e-01,0.000000000000000000e+00,0.000000000000000000e+00,1.120000000000000000e+02
0.000000000000000000e+00,0.000000000000000000e+00,1.000000000000000000e+00,0.000000000000000000e+00,6.540000000000000000e+02,2.784979343414306641e-01,1.836194992065429688e+00,5.521226976574798995e-01,0.000000000000000000e+00,1.000000000000000000e+00,1.110000000000000000e+02
1.000000000000000000e+00,0.000000000000000000e+00,0.000000000000000000e+00,0.000000000000000000e+00,6.530000000000000000e+02,2.592399120330810547e-01,1.848330974578857422e+00,6.004382064328820379e-01,0.000000000000000000e+00,0.000000000000000000e+00,1.110000000000000000e+02
0.000000000000000000e+00,1.000000000000000000e+00,0.000000000000000000e+00,4.000000000000000000e+00,6.560000000000000000e+02,3.002591133117675781e-01,1.607671976089477539e+00,3.084631429159630511e-01,0.000000000000000000e+00,1.000000000000000000e+00,1.120000000000000000e+02
0.000000000000000000e+00,0.000000000000000000e+00,1.000000000000000000e+00,0.000000000000000000e+00,6.550000000000000000e+02,2.933549880981445312e-01,1.951332092285156250e+00,6.760925435197344679e-01,1.000000000000000000e+00,1.000000000000000000e+00,1.110000000000000000e+02
1.000000000000000000e+00,1.000000000000000000e+00,1.000000000000000000e+00,3.000000000000000000e+00,6.570000000000000000e+02,2.523510456085205078e-01,1.776870012283325195e+00,5.364645840906210328e-01,0.000000000000000000e+00,1.000000000000000000e+00,1.120000000000000000e+02
0.000000000000000000e+00,0.000000000000000000e+00,1.000000000000000000e+00,0.000000000000000000e+00,6.560000000000000000e+02,2.570919990539550781e-01,1.816415071487426758e+00,5.695682245929746257e-01,0.000000000000000000e+00,1.000000000000000000e+00,1.110000000000000000e+02
0.000000000000000000e+00,1.000000000000000000e+00,0.000000000000000000e+00,1.000000000000000000e+00,6.560000000000000000e+02,3.074769973754882812e-01,1.623152017593383789e+00,3.263261083005417063e-01,0.000000000000000000e+00,1.000000000000000000e+00,1.120000000000000000e+02
0.000000000000000000e+00,0.000000000000000000e+00,1.000000000000000000e+00,0.000000000000000000e+00,6.550000000000000000e+02,2.658660411834716797e-01,1.871444940567016602e+00,6.141781340423594360e-01,0.000000000000000000e+00,1.000000000000000000e+00,1.110000000000000000e+02
0.000000000000000000e+00,1.000000000000000000e+00,0.000000000000000000e+00,0.000000000000000000e+00,6.540000000000000000e+02,2.882988452911376953e-01,1.706577777862548828e+00,4.376141959807601789e-01,0.000000000000000000e+00,1.000000000000000000e+00,1.120000000000000000e+02
1.000000000000000000e+00,1.000000000000000000e+00,1.000000000000000000e+00,3.000000000000000000e+00,6.560000000000000000e+02,2.936840057373046875e-01,1.539002895355224609e+00,2.601735136656295189e-01,0.000000000000000000e+00,0.000000000000000000e+00,1.120000000000000000e+02
1.000000000000000000e+00,1.000000000000000000e+00,1.000000000000000000e+00,1.000000000000000000e+00,6.560000000000000000e+02,4.984209537506103516e-01,1.819508075714111328e+00,3.296587771829389557e-01,0.000000000000000000e+00,0.000000000000000000e+00,1.120000000000000000e+02
1.000000000000000000e+00,0.000000000000000000e+00,0.000000000000000000e+00,0.000000000000000000e+00,6.550000000000000000e+02,3.267931938171386719e-01,1.855419158935546875e+00,5.515071780400396806e-01,0.000000000000000000e+00,1.000000000000000000e+00,1.110000000000000000e+02
0.000000000000000000e+00,0.000000000000000000e+00,1.000000000000000000e+00,0.000000000000000000e+00,6.540000000000000000e+02,3.001351356506347656e-01,1.564874887466430664e+00,2.667367023831382911e-01,0.000000000000000000e+00,0.000000000000000000e+00,1.110000000000000000e+02
0.000000000000000000e+00,1.000000000000000000e+00,0.000000000000000000e+00,2.000000000000000000e+00,6.550000000000000000e+02,5.706059932708740234e-01,2.262206077575683594e+00,6.951819569137962507e-01,0.000000000000000000e+00,1.000000000000000000e+00,1.120000000000000000e+02
1.000000000000000000e+00,1.000000000000000000e+00,1.000000000000000000e+00,1.000000000000000000e+00,6.550000000000000000e+02,3.006708621978759766e-01,1.778212070465087891e+00,4.903265655350111940e-01,1.000000000000000000e+00,0.000000000000000000e+00,1.120000000000000000e+02
1.000000000000000000e+00,1.000000000000000000e+00,1.000000000000000000e+00,2.000000000000000000e+00,6.560000000000000000e+02,4.844191074371337891e-01,1.745491981506347656e+00,2.693850228971192418e-01,0.000000000000000000e+00,0.000000000000000000e+00,1.120000000000000000e+02
1.000000000000000000e+00,0.000000000000000000e+00,0.000000000000000000e+00,0.000000000000000000e+00,6.550000000000000000e+02,3.104820251464843750e-01,2.024087905883789062e+00,7.263596694341778459e-01,0.000000000000000000e+00,1.000000000000000000e+00,1.110000000000000000e+02
1.000000000000000000e+00,0.000000000000000000e+00,0.000000000000000000e+00,0.000000000000000000e+00,6.540000000000000000e+02,3.278639316558837891e-01,1.665060997009277344e+00,3.585064820196992574e-01,0.000000000000000000e+00,0.000000000000000000e+00,1.110000000000000000e+02
0.000000000000000000e+00,1.000000000000000000e+00,0.000000000000000000e+00,3.000000000000000000e+00,6.560000000000000000e+02,3.013441562652587891e-01,1.998564958572387695e+00,7.067684548309259851e-01,0.000000000000000000e+00,1.000000000000000000e+00,1.120000000000000000e+02
0.000000000000000000e+00,1.000000000000000000e+00,0.000000000000000000e+00,1.000000000000000000e+00,6.560000000000000000e+02,2.882869243621826172e-01,1.627385139465332031e+00,3.511908528401287977e-01,0.000000000000000000e+00,0.000000000000000000e+00,1.120000000000000000e+02
1.000000000000000000e+00,0.000000000000000000e+00,0.000000000000000000e+00,0.000000000000000000e+00,6.550000000000000000e+02,2.680668830871582031e-01,1.592929840087890625e+00,3.275021722188732887e-01,0.000000000000000000e+00,1.000000000000000000e+00,1.110000000000000000e+02
0.000000000000000000e+00,0.000000000000000000e+00,1.000000000000000000e+00,0.000000000000000000e+00,6.540000000000000000e+02,2.697610855102539062e-01,1.807537078857421875e+00,5.515355611961763049e-01,0.000000000000000000e+00,0.000000000000000000e+00,1.110000000000000000e+02
1.000000000000000000e+00,1.000000000000000000e+00,1.000000000000000000e+00,2.000000000000000000e+00,6.550000000000000000e+02,2.841269969940185547e-01,1.599867105484008789e+00,3.183377890712136837e-01,0.000000000000000000e+00,1.000000000000000000e+00,1.120000000000000000e+02
0.000000000000000000e+00,0.000000000000000000e+00,1.000000000000000000e+00,0.000000000000000000e+00,6.540000000000000000e+02,4.692099094390869141e-01,2.037061929702758789e+00,5.718237585055871985e-01,0.000000000000000000e+00,1.000000000000000000e+00,1.110000000000000000e+02
0.000000000000000000e+00,1.000000000000000000e+00,0.000000000000000000e+00,5.000000000000000000e+00,6.580000000000000000e+02,3.609931468963623047e-01,1.900125980377197266e+00,5.553582248429684842e-01,0.000000000000000000e+00,1.000000000000000000e+00,1.120000000000000000e+02
1.000000000000000000e+00,1.000000000000000000e+00,1.000000000000000000e+00,2.000000000000000000e+00,6.590000000000000000e+02,2.770719528198242188e-01,1.643411159515380859e+00,3.656434553374021124e-01,1.000000000000000000e+00,0.000000000000000000e+00,1.120000000000000000e+02
0.000000000000000000e+00,1.000000000000000000e+00,0.000000000000000000e+00,3.000000000000000000e+00,6.610000000000000000e+02,3.340370655059814453e-01,1.835152864456176758e+00,5.006377212851509384e-01,0.000000000000000000e+00,0.000000000000000000e+00,1.120000000000000000e+02
0.000000000000000000e+00,1.000000000000000000e+00,0.000000000000000000e+00,4.000000000000000000e+00,6.640000000000000000e+02,3.107929229736328125e-01,1.603979110717773438e+00,2.882117117390952110e-01,0.000000000000000000e+00,0.000000000000000000e+00,1.120000000000000000e+02
0.000000000000000000e+00,1.000000000000000000e+00,0.000000000000000000e+00,3.000000000000000000e+00,6.660000000000000000e+02,3.756039142608642578e-01,1.816599130630493164e+00,4.546684715411991595e-01,0.000000000000000000e+00,0.000000000000000000e+00,1.120000000000000000e+02
1.000000000000000000e+00,1.000000000000000000e+00,1.000000000000000000e+00,2.000000000000000000e+00,6.670000000000000000e+02,3.512289524078369141e-01,1.609138011932373047e+00,2.640486082209904106e-01,0.000000000000000000e+00,0.000000000000000000e+00,1.120000000000000000e+02
1.000000000000000000e+00,1.000000000000000000e+00,1.000000000000000000e+00,1.000000000000000000e+00,6.670000000000000000e+02,3.335011005401611328e-01,1.767070055007934570e+00,4.475927870011934262e-01,0.000000000000000000e+00,0.000000000000000000e+00,1.120000000000000000e+02
0.000000000000000000e+00,1.000000000000000000e+00,0.000000000000000000e+00,3.000000000000000000e+00,6.690000000000000000e+02,2.666871547698974609e-01,1.751752853393554688e+00,4.993518461503588246e-01,0.000000000000000000e+00,0.000000000000000000e+00,1.120000000000000000e+02
0.000000000000000000e+00,1.000000000000000000e+00,0.000000000000000000e+00,2.000000000000000000e+00,6.700000000000000000e+02,2.911260128021240234e-01,1.738870859146118164e+00,4.549523689405881588e-01,0.000000000000000000e+00,0.000000000000000000e+00,1.120000000000000000e+02
0.000000000000000000e+00,1.000000000000000000e+00,0.000000000000000000e+00,2.000000000000000000e+00,6.710000000000000000e+02,2.978591918945312500e-01,1.576699972152709961e+00,2.818769588466628617e-01,0.000000000000000000e+00,0.000000000000000000e+00,1.120000000000000000e+02
1.000000000000000000e+00,1.000000000000000000e+00,1.000000000000000000e+00,2.000000000000000000e+00,6.720000000000000000e+02,2.743561267852783203e-01,1.941926002502441406e+00,6.900618794568933456e-01,0.000000000000000000e+00,0.000000000000000000e+00,1.120000000000000000e+02
1.000000000000000000e+00,1.000000000000000000e+00,1.000000000000000000e+00,3.000000000000000000e+00,6.740000000000000000e+02,3.442637920379638672e-01,1.616514921188354492e+00,2.903571251035578782e-01,0.000000000000000000e+00,0.000000000000000000e+00,1.120000000000000000e+02
0.000000000000000000e+00,0.000000000000000000e+00,1.000000000000000000e+00,0.000000000000000000e+00,6.730000000000000000e+02,3.206510543823242188e-01,1.730312108993530273e+00,4.205589556621677216e-01,0.000000000000000000e+00,1.000000000000000000e+00,1.110000000000000000e+02
0.000000000000000000e+00,0.000000000000000000e+00,1.000000000000000000e+00,0.000000000000000000e+00,6.720000000000000000e+02,3.273839950561523438e-01,1.967253923416137695e+00,6.542936661169134194e-01,1.000000000000000000e+00,0.000000000000000000e+00,1.110000000000000000e+02
0.000000000000000000e+00,1.000000000000000000e+00,0.000000000000000000e+00,2.000000000000000000e+00,6.730000000000000000e+02,3.448748588562011719e-01,1.939610004425048828e+00,5.939626087674749755e-01,0.000000000000000000e+00,1.000000000000000000e+00,1.120000000000000000e+02
1.000000000000000000e+00,0.000000000000000000e+00,0.000000000000000000e+00,0.000000000000000000e+00,6.720000000000000000e+02,2.895178794860839844e-01,1.680309057235717773e+00,4.078571138077949909e-01,0.000000000000000000e+00,1.000000000000000000e+00,1.110000000000000000e+02
0.000000000000000000e+00,1.000000000000000000e+00,0.000000000000000000e+00,2.000000000000000000e+00,6.730000000000000000e+02,3.102159500122070312e-01,1.950768947601318359e+00,6.584078193642609600e-01,0.000000000000000000e+00,1.000000000000000000e+00,1.120000000000000000e+02
0.000000000000000000e+00,0.000000000000000000e+00,1.000000000000000000e+00,0.000000000000000000e+00,6.720000000000000000e+02,3.013739585876464844e-01,1.656520128250122070e+00,3.652288315162444676e-01,0.000000000000000000e+00,1.000000000000000000e+00,1.110000000000000000e+02
0.000000000000000000e+00,1.000000000000000000e+00,0.000000000000000000e+00,3.000000000000000000e+00,6.740000000000000000e+02,3.703830242156982422e-01,1.701793909072875977e+00,3.504136511394373987e-01,0.000000000000000000e+00,0.000000000000000000e+00,1.110000000000000000e+02
1.000000000000000000e+00,1.000000000000000000e+00,1.000000000000000000e+00,3.000000000000000000e+00,6.760000000000000000e+02,2.937648296356201172e-01,1.816560983657836914e+00,5.334900116115024460e-01,0.000000000000000000e+00,0.000000000000000000e+00,1.110000000000000000e+02
0.000000000000000000e+00,1.000000000000000000e+00,0.000000000000000000e+00,2.000000000000000000e+00,6.770000000000000000e+02,3.081290721893310547e-01,1.618668794631958008e+00,3.190471044484025631e-01,0.000000000000000000e+00,0.000000000000000000e+00,1.110000000000000000e+02
1.000000000000000000e+00,0.000000000000000000e+00,0.000000000000000000e+00,0.000000000000000000e+00,6.760000000000000000e+02,3.195400238037109375e-01,2.052815198898315430e+00,7.381148007685123247e-01,0.000000000000000000e+00,1.000000000000000000e+00,1.120000000000000000e+02
0.000000000000000000e+00,1.000000000000000000e+00,0.000000000000000000e+00,2.000000000000000000e+00,6.770000000000000000e+02,4.596049785614013672e-01,1.848834037780761719e+00,4.039280333693814895e-01,0.000000000000000000e+00,1.000000000000000000e+00,1.110000000000000000e+02
0.000000000000000000e+00,1.000000000000000000e+00,0.000000000000000000e+00,2.000000000000000000e+00,6.780000000000000000e+02,3.596990108489990234e-01,1.604290962219238281e+00,2.585119283698388282e-01,0.000000000000000000e+00,0.000000000000000000e+00,1.110000000000000000e+02
0.000000000000000000e+00,1.000000000000000000e+00,0.000000000000000000e+00,1.000000000000000000e+00,6.780000000000000000e+02,4.847249984741210938e-01,2.215226888656616211e+00,7.399611045375725782e-01,0.000000000000000000e+00,0.000000000000000000e+00,1.110000000000000000e+02
1.000000000000000000e+00,1.000000000000000000e+00,1.000000000000000000e+00,4.000000000000000000e+00,6.810000000000000000e+02,2.751269340515136719e-01,1.891795158386230469e+00,6.318600290363687311e-01,0.000000000000000000e+00,0.000000000000000000e+00,1.110000000000000000e+02
1.000000000000000000e+00,1.000000000000000000e+00,1.000000000000000000e+00,2.000000000000000000e+00,6.820000000000000000e+02,3.721940517425537109e-01,2.093824863433837891e+00,7.259750671690514690e-01,0.000000000000000000e+00,0.000000000000000000e+00,1.110000000000000000e+02
0.000000000000000000e+00,1.000000000000000000e+00,0.000000000000000000e+00,3.000000000000000000e+00,6.840000000000000000e+02,2.500951290130615234e-01,1.985049009323120117e+00,7.440440875323472980e-01,0.000000000000000000e+00,0.000000000000000000e+00,1.110000000000000000e+02
0.000000000000000000e+00,0.000000000000000000e+00,1.000000000000000000e+00,0.000000000000000000e+00,6.830000000000000000e+02,3.017070293426513672e-01,1.544131994247436523e+00,2.553695579765163370e-01,0.000000000000000000e+00,1.000000000000000000e+00,1.120000000000000000e+02
0.000000000000000000e+00,1.000000000000000000e+00,0.000000000000000000e+00,2.000000000000000000e+00,6.840000000000000000e+02,2.968130111694335938e-01,1.871819019317626953e+00,5.768498578472792682e-01,0.000000000000000000e+00,1.000000000000000000e+00,1.110000000000000000e+02
1.000000000000000000e+00,0.000000000000000000e+00,0.000000000000000000e+00,0.000000000000000000e+00,6.830000000000000000e+02,2.901618480682373047e-01,1.627523899078369141e+00,3.546739067372431387e-01,1.000000000000000000e+00,1.000000000000000000e+00,1.120000000000000000e+02
1.000000000000000000e+00,0.000000000000000000e+00,0.000000000000000000e+00,0.000000000000000000e+00,6.820000000000000000e+02,3.298389911651611328e-01,2.076496124267578125e+00,7.474305770985971709e-01,0.000000000000000000e+00,0.000000000000000000e+00,1.120000000000000000e+02
1.000000000000000000e+00,1.000000000000000000e+00,1.000000000000000000e+00,1.000000000000000000e+00,6.820000000000000000e+02,3.522040843963623047e-01,1.976420879364013672e+00,6.406735100043141617e-01,0.000000000000000000e+00,0.000000000000000000e+00,1.120000000000000000e+02
1.000000000000000000e+00,0.000000000000000000e+00,0.000000000000000000e+00,0.000000000000000000e+00,6.810000000000000000e+02,3.160178661346435547e-01,1.975835084915161133e+00,6.664984821695023598e-01,0.000000000000000000e+00,1.000000000000000000e+00,1.110000000000000000e+02
0.000000000000000000e+00,1.000000000000000000e+00,0.000000000000000000e+00,3.000000000000000000e+00,6.830000000000000000e+02,5.297060012817382812e-01,1.850189924240112305e+00,3.171275662855368438e-01,0.000000000000000000e+00,1.000000000000000000e+00,1.120000000000000000e+02
1.000000000000000000e+00,1.000000000000000000e+00,1.000000000000000000e+00,1.000000000000000000e+00,6.830000000000000000e+02,4.568450450897216797e-01,1.704709053039550781e+00,2.552583770601192237e-01,0.000000000000000000e+00,0.000000000000000000e+00,1.120000000000000000e+02
1.000000000000000000e+00,1.000000000000000000e+00,1.000000000000000000e+00,4.000000000000000000e+00,6.860000000000000000e+02,2.928340435028076172e-01,1.846898078918457031e+00,5.685140516233643249e-01,0.000000000000000000e+00,0.000000000000000000e+00,1.120000000000000000e+02
0.000000000000000000e+00,1.000000000000000000e+00,0.000000000000000000e+00,2.000000000000000000e+00,6.870000000000000000e+02,3.099861145019531250e-01,1.964166879653930664e+00,6.659908780579272269e-01,0.000000000000000000e+00,0.000000000000000000e+00,1.120000000000000000e+02
1.000000000000000000e+00,1.000000000000000000e+00,1.000000000000000000e+00,2.000000000000000000e+00,6.880000000000000000e+02,2.813050746917724609e-01,1.676928997039794922e+00,3.932237965245911071e-01,0.000000000000000000e+00,0.000000000000000000e+00,1.120000000000000000e+02
0.000000000000000000e+00,1.000000000000000000e+00,0.000000000000000000e+00,1.000000000000000000e+00,6.880000000000000000e+02,2.559871673583984375e-01,1.690218925476074219e+00,4.500318757799285918e-01,0.000000000000000000e+00,0.000000000000000000e+00,1.120000000000000000e+02
1.000000000000000000e+00,1.000000000000000000e+00,1.000000000000000000e+00,4.000000000000000000e+00,6.910000000000000000e+02,2.808399200439453125e-01,1.845667123794555664e+00,5.623070589387182405e-01,0.000000000000000000e+00,0.000000000000000000e+00,1.120000000000000000e+02
1.000000000000000000e+00,1.000000000000000000e+00,1.000000000000000000e+00,2.000000000000000000e+00,6.920000000000000000e+02,2.984931468963623047e-01,1.819649934768676758e+00,5.320103521058132667e-01,1.000000000000000000e+00,0.000000000000000000e+00,1.120000000000000000e+02
1.000000000000000000e+00,0.000000000000000000e+00,0.000000000000000000e+00,0.000000000000000000e+00,6.910000000000000000e+02,2.893249988555908203e-01,1.994197130203247070e+00,7.093977988475054230e-01,0.000000000000000000e+00,1.000000000000000000e+00,1.110000000000000000e+02
1.000000000000000000e+00,0.000000000000000000e+00,0.000000000000000000e+00,0.000000000000000000e+00,6.900000000000000000e+02,2.679820060729980469e-01,1.706533908843994141e+00,4.495673353507868564e-01,0.000000000000000000e+00,0.000000000000000000e+00,1.110000000000000000e+02
1.000000000000000000e+00,0.000000000000000000e+00,0.000000000000000000e+00,0.000000000000000000e+00,6.890000000000000000e+02,3.704600334167480469e-01,2.030650138854980469e+00,6.633186187215969198e-01,0.000000000000000000e+00,0.000000000000000000e+00,1.110000000000000000e+02
0.000000000000000000e+00,1.000000000000000000e+00,0.000000000000000000e+00,2.000000000000000000e+00,6.900000000000000000e+02,3.007309436798095703e-01,1.911911964416503906e+00,6.253690794377879669e-01,0.000000000000000000e+00,0.000000000000000000e+00,1.110000000000000000e+02
0.000000000000000000e+00,1.000000000000000000e+00,0.000000000000000000e+00,3.000000000000000000e+00,6.920000000000000000e+02,3.021550178527832031e-01,1.842154026031494141e+00,5.509641556496844839e-01,0.000000000000000000e+00,0.000000000000000000e+00,1.110000000000000000e+02
1.000000000000000000e+00,1.000000000000000000e+00,1.000000000000000000e+00,3.000000000000000000e+00,6.940000000000000000e+02,2.772099971771240234e-01,1.824102163314819336e+00,5.584289055588569362e-01,0.000000000000000000e+00,0.000000000000000000e+00,1.110000000000000000e+02
0.000000000000000000e+00,1.000000000000000000e+00,0.000000000000000000e+00,3.000000000000000000e+00,6.960000000000000000e+02,2.715969085693359375e-01,1.568346977233886719e+00,3.103502968021014108e-01,0.000000000000000000e+00,0.000000000000000000e+00,1.110000000000000000e+02
0.000000000000000000e+00,1.000000000000000000e+00,0.000000000000000000e+00,3.000000000000000000e+00,6.980000000000000000e+02,2.760059833526611328e-01,1.507405996322631836e+00,2.512057218054490337e-01,0.000000000000000000e+00,0.000000000000000000e+00,1.110000000000000000e+02
0.000000000000000000e+00,0.000000000000000000e+00,1.000000000000000000e+00,0.000000000000000000e+00,6.970000000000000000e+02,2.783749103546142578e-01,1.662690877914428711e+00,3.804661018351456758e-01,0.000000000000000000e+00,1.000000000000000000e+00,1.120000000000000000e+02
0.000000000000000000e+00,1.000000000000000000e+00,0.000000000000000000e+00,4.000000000000000000e+00,7.000000000000000000e+02,3.434450626373291016e-01,1.879120826721191406e+00,5.594152249206714167e-01,0.000000000000000000e+00,1.000000000000000000e+00,1.110000000000000000e+02
1.000000000000000000e+00,0.000000000000000000e+00,0.000000000000000000e+00,0.000000000000000000e+00,6.990000000000000000e+02,3.452038764953613281e-01,1.640701055526733398e+00,3.004168278835668837e-01,1.000000000000000000e+00,1.000000000000000000e+00,1.120000000000000000e+02
1.000000000000000000e+00,1.000000000000000000e+00,1.000000000000000000e+00,0.000000000000000000e+00,6.980000000000000000e+02,5.273339748382568359e-01,2.073344945907592773e+00,5.568912044418453666e-01,0.000000000000000000e+00,0.000000000000000000e+00,1.120000000000000000e+02
1.000000000000000000e+00,0.000000000000000000e+00,0.000000000000000000e+00,0.000000000000000000e+00,6.970000000000000000e+02,3.026449680328369141e-01,1.929924964904785156e+00,6.367304155705046931e-01,0.000000000000000000e+00,0.000000000000000000e+00,1.120000000000000000e+02
1.000000000000000000e+00,1.000000000000000000e+00,1.000000000000000000e+00,3.000000000000000000e+00,6.990000000000000000e+02,4.724299907684326172e-01,1.795481920242309570e+00,3.325797615043595279e-01,0.000000000000000000e+00,0.000000000000000000e+00,1.120000000000000000e+02
0.000000000000000000e+00,1.000000000000000000e+00,0.000000000000000000e+00,2.000000000000000000e+00,7.000000000000000000e+02,2.794351577758789062e-01,1.689373970031738281e+00,4.052198579108667875e-01,0.000000000000000000e+00,0.000000000000000000e+00,1.120000000000000000e+02
0.000000000000000000e+00,0.000000000000000000e+00,1.000000000000000000e+00,0.000000000000000000e+00,6.990000000000000000e+02,3.472390174865722656e-01,1.915034055709838867e+00,5.701634050532898845e-01,0.000000000000000000e+00,1.000000000000000000e+00,1.110000000000000000e+02
1.000000000000000000e+00,1.000000000000000000e+00,1.000000000000000000e+00,3.000000000000000000e+00,7.010000000000000000e+02,2.525298595428466797e-01,1.783201932907104492e+00,5.367390537419076679e-01,0.000000000000000000e+00,1.000000000000000000e+00,1.120000000000000000e+02
1.000000000000000000e+00,0.000000000000000000e+00,0.000000000000000000e+00,0.000000000000000000e+00,7.000000000000000000e+02,2.953491210937500000e-01,1.916941165924072266e+00,6.203084743396338752e-01,0.000000000000000000e+00,1.000000000000000000e+00,1.110000000000000000e+02
0.000000000000000000e+00,0.000000000000000000e+00,1.000000000000000000e+00,0.000000000000000000e+00,6.990000000000000000e+02,2.787430286407470703e-01,1.601131916046142578e+00,3.217523783451164965e-01,0.000000000000000000e+00,0.000000000000000000e+00,1.110000000000000000e+02
1.000000000000000000e+00,1.000000000000000000e+00,1.000000000000000000e+00,4.000000000000000000e+00,7.020000000000000000e+02,3.107140064239501953e-01,1.764034986495971680e+00,4.690365980471459806e-01,0.000000000000000000e+00,1.000000000000000000e+00,1.120000000000000000e+02
1.000000000000000000e+00,1.000000000000000000e+00,1.000000000000000000e+00,3.000000000000000000e+00,7.040000000000000000e+02,3.331770896911621094e-01,1.767719030380249023e+00,4.367706931926157443e-01,0.000000000000000000e+00,0.000000000000000000e+00,1.120000000000000000e+02
0.000000000000000000e+00,1.000000000000000000e+00,0.000000000000000000e+00,2.000000000000000000e+00,7.050000000000000000e+02,2.385489940643310547e-01,1.813910961151123047e+00,5.839144098486765966e-01,0.000000000000000000e+00,0.000000000000000000e+00,1.120000000000000000e+02
0.000000000000000000e+00,1.000000000000000000e+00,0.000000000000000000e+00,1.000000000000000000e+00,7.050000000000000000e+02,3.459439277648925781e-01,2.049731016159057617e+00,7.002026938278869128e-01,0.000000000000000000e+00,0.000000000000000000e+00,1.120000000000000000e+02
0.000000000000000000e+00,1.000000000000000000e+00,0.000000000000000000e+00,2.000000000000000000e+00,7.060000000000000000e+02,3.020150661468505859e-01,1.797040939331054688e+00,4.974992197568734453e-01,1.000000000000000000e+00,0.000000000000000000e+00,1.120000000000000000e+02
0.000000000000000000e+00,0.000000000000000000e+00,1.000000000000000000e+00,0.000000000000000000e+00,7.050000000000000000e+02,2.997210025787353516e-01,1.710163116455078125e+00,4.244419261069453109e-01,0.000000000000000000e+00,1.000000000000000000e+00,1.110000000000000000e+02
0.000000000000000000e+00,0.000000000000000000e+00,1.000000000000000000e+00,0.000000000000000000e+00,7.040000000000000000e+02,3.621289730072021484e-01,1.759104013442993164e+00,4.169113818367085056e-01,0.000000000000000000e+00,0.000000000000000000e+00,1.110000000000000000e+02
0.000000000000000000e+00,0.000000000000000000e+00,1.000000000000000000e+00,0.000000000000000000e+00,7.030000000000000000e+02,3.434960842132568359e-01,1.917656898498535156e+00,5.844246126250209894e-01,0.000000000000000000e+00,0.000000000000000000e+00,1.110000000000000000e+02
0.000000000000000000e+00,1.000000000000000000e+00,0.000000000000000000e+00,3.000000000000000000e+00,7.050000000000000000e+02,4.519109725952148438e-01,2.015640974044799805e+00,5.668400668806679032e-01,0.000000000000000000e+00,0.000000000000000000e+00,1.110000000000000000e+02
0.000000000000000000e+00,0.000000000000000000e+00,1.000000000000000000e+00,0.000000000000000000e+00,7.040000000000000000e+02,2.922971248626708984e-01,1.930905103683471680e+00,6.476710968614345365e-01,0.000000000000000000e+00,1.000000000000000000e+00,1.120000000000000000e+02
0.000000000000000000e+00,0.000000000000000000e+00,1.000000000000000000e+00,0.000000000000000000e+00,7.030000000000000000e+02,2.616999149322509766e-01,1.692595005035400391e+00,4.571324657317222262e-01,0.000000000000000000e+00,0.000000000000000000e+00,1.120000000000000000e+02
0.000000000000000000e+00,0.000000000000000000e+00,1.000000000000000000e+00,0.000000000000000000e+00,7.020000000000000000e+02,4.098229408264160156e-01,2.015176057815551758e+00,6.221445260436453406e-01,0.000000000000000000e+00,1.000000000000000000e+00,1.110000000000000000e+02
0.000000000000000000e+00,1.000000000000000000e+00,0.000000000000000000e+00,3.000000000000000000e+00,7.040000000000000000e+02,3.161249160766601562e-01,2.042511940002441406e+00,7.312912577363819278e-01,0.000000000000000000e+00,0.000000000000000000e+00,1.110000000000000000e+02
1.000000000000000000e+00,0.000000000000000000e+00,0.000000000000000000e+00,0.000000000000000000e+00,7.030000000000000000e+02,3.108530044555664062e-01,1.701107025146484375e+00,4.161075799153807764e-01,0.000000000000000000e+00,1.000000000000000000e+00,1.120000000000000000e+02
0.000000000000000000e+00,1.000000000000000000e+00,0.000000000000000000e+00,2.000000000000000000e+00,7.040000000000000000e+02,4.163498878479003906e-01,1.675868988037109375e+00,2.588311053724909883e-01,0.000000000000000000e+00,1.000000000000000000e+00,1.110000000000000000e+02
1.000000000000000000e+00,0.000000000000000000e+00,0.000000000000000000e+00,0.000000000000000000e+00,7.030000000000000000e+02,2.987220287322998047e-01,2.031373023986816406e+00,7.397735559251735760e-01,0.000000000000000000e+00,1.000000000000000000e+00,1.120000000000000000e+02
1.000000000000000000e+00,1.000000000000000000e+00,1.000000000000000000e+00,2.000000000000000000e+00,7.040000000000000000e+02,3.214809894561767578e-01,1.903630018234252930e+00,5.935765776642965008e-01,0.000000000000000000e+00,1.000000000000000000e+00,1.110000000000000000e+02
1.000000000000000000e+00,0.000000000000000000e+00,0.000000000000000000e+00,0.000000000000000000e+00,7.030000000000000000e+02,3.124561309814453125e-01,1.585063934326171875e+00,2.789888338413648028e-01,0.000000000000000000e+00,1.000000000000000000e+00,1.120000000000000000e+02
0.000000000000000000e+00,0.000000000000000000e+00,1.000000000000000000e+00,0.000000000000000000e+00,7.020000000000000000e+02,3.412659168243408203e-01,2.035390853881835938e+00,7.139792158675062339e-01,1.000000000000000000e+00,0.000000000000000000e+00,1.120000000000000000e+02
0.000000000000000000e+00,0.000000000000000000e+00,1.000000000000000000e+00,0.000000000000000000e+00,7.010000000000000000e+02,3.309831619262695312e-01,1.571564197540283203e+00,2.527120606711277251e-01,0.000000000000000000e+00,0.000000000000000000e+00,1.120000000000000000e+02
0.000000000000000000e+00,1.000000000000000000e+00,0.000000000000000000e+00,2.000000000000000000e+00,7.020000000000000000e+02,3.656661510467529297e-01,1.915542840957641602e+00,5.513138308833335222e-01,0.000000000000000000e+00,0.000000000000000000e+00,1.120000000000000000e+02
1.000000000000000000e+00,1.000000000000000000e+00,1.000000000000000000e+00,2.000000000000000000e+00,7.030000000000000000e+02,2.880811691284179688e-01,1.901564121246337891e+00,6.194576827949087594e-01,0.000000000000000000e+00,0.000000000000000000e+00,1.120000000000000000e+02
1.000000000000000000e+00,0.000000000000000000e+00,0.000000000000000000e+00,0.000000000000000000e+00,7.020000000000000000e+02,2.802560329437255859e-01,1.644011974334716797e+00,3.638022746443092537e-01,0.000000000000000000e+00,1.000000000000000000e+00,1.110000000000000000e+02
1.000000000000000000e+00,1.000000000000000000e+00,1.000000000000000000e+00,3.000000000000000000e+00,7.040000000000000000e+02,2.748479843139648438e-01,1.582664966583251953e+00,3.298644147331126208e-01,0.000000000000000000e+00,1.000000000000000000e+00,1.120000000000000000e+02
0.000000000000000000e+00,0.000000000000000000e+00,1.000000000000000000e+00,0.000000000000000000e+00,7.030000000000000000e+02,2.776370048522949219e-01,1.596175193786621094e+00,3.427241385387383987e-01,0.000000000000000000e+00,1.000000000000000000e+00,1.110000000000000000e+02
0.000000000000000000e+00,1.000000000000000000e+00,0.000000000000000000e+00,3.000000000000000000e+00,7.050000000000000000e+02,2.735760211944580078e-01,1.570559978485107422e+00,3.133607519794295304e-01,0.000000000000000000e+00,1.000000000000000000e+00,1.120000000000000000e+02
1.000000000000000000e+00,0.000000000000000000e+00,0.000000000000000000e+00,0.000000000000000000e+00,7.040000000000000000e+02,2.580490112304687500e-01,1.774950027465820312e+00,5.381036558638689904e-01,0.000000000000000000e+00,1.000000000000000000e+00,1.110000000000000000e+02
0.000000000000000000e+00,1.000000000000000000e+00,0.000000000000000000e+00,4.000000000000000000e+00,7.070000000000000000e+02,2.407560348510742188e-01,1.829772949218750000e+00,6.011903825905255960e-01,0.000000000000000000e+00,1.000000000000000000e+00,1.120000000000000000e+02
1.000000000000000000e+00,1.000000000000000000e+00,1.000000000000000000e+00,4.000000000000000000e+00,7.100000000000000000e+02,2.176320552825927734e-01,1.901118040084838867e+00,6.856183207336803420e-01,0.000000000000000000e+00,0.000000000000000000e+00,1.120000000000000000e+02
0.000000000000000000e+00,1.000000000000000000e+00,0.000000000000000000e+00,1.000000000000000000e+00,7.100000000000000000e+02,2.525899410247802734e-01,1.589349031448364258e+00,3.419730343196231703e-01,0.000000000000000000e+00,0.000000000000000000e+00,1.120000000000000000e+02
0.000000000000000000e+00,1.000000000000000000e+00,0.000000000000000000e+00,1.000000000000000000e+00,7.100000000000000000e+02,3.543500900268554688e-01,1.951617956161499023e+00,6.100102938739810909e-01,0.000000000000000000e+00,0.000000000000000000e+00,1.120000000000000000e+02
1.000000000000000000e+00,1.000000000000000000e+00,1.000000000000000000e+00,4.000000000000000000e+00,7.130000000000000000e+02,2.393398284912109375e-01,1.520524024963378906e+00,2.975655075122634607e-01,0.000000000000000000e+00,0.000000000000000000e+00,1.120000000000000000e+02
0.000000000000000000e+00,1.000000000000000000e+00,0.000000000000000000e+00,3.000000000000000000e+00,7.150000000000000000e+02,2.308540344238281250e-01,1.574404954910278320e+00,3.552921881103455748e-01,0.000000000000000000e+00,0.000000000000000000e+00,1.120000000000000000e+02
0.000000000000000000e+00,1.000000000000000000e+00,0.000000000000000000e+00,3.000000000000000000e+00,7.170000000000000000e+02,3.335530757904052734e-01,1.721829175949096680e+00,3.937878086749082573e-01,0.000000000000000000e+00,0.000000000000000000e+00,1.120000000000000000e+02
1.000000000000000000e+00,1.000000000000000000e+00,1.000000000000000000e+00,2.000000000000000000e+00,7.180000000000000000e+02,2.938809394836425781e-01,1.742954015731811523e+00,4.700276749620007077e-01,0.000000000000000000e+00,0.000000000000000000e+00,1.120000000000000000e+02
0.000000000000000000e+00,0.000000000000000000e+00,1.000000000000000000e+00,0.000000000000000000e+00,7.170000000000000000e+02,2.029390335083007812e-01,1.935617923736572266e+00,7.386613688387241305e-01,1.000000000000000000e+00,1.000000000000000000e+00,1.110000000000000000e+02
1.000000000000000000e+00,1.000000000000000000e+00,1.000000000000000000e+00,3.000000000000000000e+00,7.190000000000000000e+02,2.727460861206054688e-01,2.005931138992309570e+00,7.446515873911858652e-01,0.000000000000000000e+00,1.000000000000000000e+00,1.120000000000000000e+02
1.000000000000000000e+00,1.000000000000000000e+00,1.000000000000000000e+00,4.000000000000000000e+00,7.220000000000000000e+02,2.998821735382080078e-01,1.959933042526245117e+00,6.713729547895740390e-01,0.000000000000000000e+00,0.000000000000000000e+00,1.120000000000000000e+02
1.000000000000000000e+00,0.000000000000000000e+00,0.000000000000000000e+00,0.000000000000000000e+00,7.210000000000000000e+02,2.332160472869873047e-01,1.529617071151733398e+00,3.014173949381115380e-01,0.000000000000000000e+00,1.000000000000000000e+00,1.110000000000000000e+02
0.000000000000000000e+00,1.000000000000000000e+00,0.000000000000000000e+00,5.000000000000000000e+00,7.250000000000000000e+02,2.809600830078125000e-01,1.768450975418090820e+00,4.863689301162119616e-01,0.000000000000000000e+00,1.000000000000000000e+00,1.120000000000000000e+02
0.000000000000000000e+00,1.000000000000000000e+00,0.000000000000000000e+00,2.000000000000000000e+00,7.260000000000000000e+02,2.962689399719238281e-01,1.622804164886474609e+00,3.260585683428510739e-01,0.000000000000000000e+00,0.000000000000000000e+00,1.120000000000000000e+02
1.000000000000000000e+00,0.000000000000000000e+00,0.000000000000000000e+00,0.000000000000000000e+00,7.250000000000000000e+02,2.477450370788574219e-01,1.752830028533935547e+00,5.120385902024489067e-01,0.000000000000000000e+00,1.000000000000000000e+00,1.110000000000000000e+02
1.000000000000000000e+00,0.000000000000000000e+00,0.000000000000000000e+00,0.000000000000000000e+00,7.240000000000000000e+02,2.697279453277587891e-01,1.900392055511474609e+00,6.457004334081795083e-01,0.000000000000000000e+00,0.000000000000000000e+00,1.110000000000000000e+02
1.000000000000000000e+00,1.000000000000000000e+00,1.000000000000000000e+00,3.000000000000000000e+00,7.260000000000000000e+02,3.228359222412109375e-01,1.809962987899780273e+00,5.058046127726232299e-01,0.000000000000000000e+00,1.000000000000000000e+00,1.120000000000000000e+02
0.000000000000000000e+00,0.000000000000000000e+00,1.000000000000000000e+00,0.000000000000000000e+00,7.250000000000000000e+02,2.491581439971923828e-01,1.566336870193481445e+00,3.223783472190814292e-01,0.000000000000000000e+00,1.000000000000000000e+00,1.110000000000000000e+02
0.000000000000000000e+00,0.000000000000000000e+00,1.000000000000000000e+00,0.000000000000000000e+00,7.240000000000000000e+02,2.514801025390625000e-01,1.986149072647094727e+00,7.414497210132502403e-01,0.000000000000000000e+00,0.000000000000000000e+00,1.110000000000000000e+02
0.000000000000000000e+00,0.000000000000000000e+00,1.000000000000000000e+00,0.000000000000000000e+00,7.230000000000000000e+02,2.644011974334716797e-01,1.775382041931152344e+00,5.170884537274675896e-01,0.000000000000000000e+00,0.000000000000000000e+00,1.110000000000000000e+02
1.000000000000000000e+00,1.000000000000000000e+00,1.000000000000000000e+00,2.000000000000000000e+00,7.240000000000000000e+02,3.320589065551757812e-01,1.941710948944091797e+00,6.087792414817220221e-01,0.000000000000000000e+00,0.000000000000000000e+00,1.110000000000000000e+02
1.000000000000000000e+00,1.000000000000000000e+00,1.000000000000000000e+00,2.000000000000000000e+00,7.250000000000000000e+02,2.797958850860595703e-01,1.717086076736450195e+00,4.427177877137784545e-01,0.000000000000000000e+00,0.000000000000000000e+00,1.110000000000000000e+02
1.000000000000000000e+00,1.000000000000000000e+00,1.000000000000000000e+00,2.000000000000000000e+00,7.260000000000000000e+02,3.101990222930908203e-01,1.824374914169311523e+00,5.336631251450181246e-01,0.000000000000000000e+00,0.000000000000000000e+00,1.110000000000000000e+02
0.000000000000000000e+00,1.000000000000000000e+00,0.000000000000000000e+00,2.000000000000000000e+00,7.270000000000000000e+02,2.870910167694091797e-01,1.712446212768554688e+00,4.296228664789472629e-01,0.000000000000000000e+00,0.000000000000000000e+00,1.110000000000000000e+02
0.000000000000000000e+00,1.000000000000000000e+00,0.000000000000000000e+00,2.000000000000000000e+00,7.280000000000000000e+02,2.709670066833496094e-01,1.757755041122436523e+00,5.039663123239577214e-01,0.000000000000000000e+00,0.000000000000000000e+00,1.110000000000000000e+02
0.000000000000000000e+00,1.000000000000000000e+00,0.000000000000000000e+00,4.000000000000000000e+00,7.310000000000000000e+02,2.583861351013183594e-01,1.728143930435180664e+00,4.821628849488576729e-01,0.000000000000000000e+00,0.000000000000000000e+00,1.110000000000000000e+02
1.000000000000000000e+00,0.000000000000000000e+00,0.000000000000000000e+00,0.000000000000000000e+00,7.300000000000000000e+02,3.231048583984375000e-01,1.971058130264282227e+00,6.530851970808576601e-01,1.000000000000000000e+00,1.000000000000000000e+00,1.120000000000000000e+02
1.000000000000000000e+00,0.000000000000000000e+00,0.000000000000000000e+00,0.000000000000000000e+00,7.290000000000000000e+02,2.775099277496337891e-01,1.876812934875488281e+00,6.133452080419757868e-01,0.000000000000000000e+00,0.000000000000000000e+00,1.120000000000000000e+02
1.000000000000000000e+00,0.000000000000000000e+00,0.000000000000000000e+00,0.000000000000000000e+00,7.280000000000000000e+02,3.008890151977539062e-01,2.023102998733520508e+00,7.363595120435711960e-01,0.000000000000000000e+00,0.000000000000000000e+00,1.120000000000000000e+02
1.000000000000000000e+00,1.000000000000000000e+00,1.000000000000000000e+00,3.000000000000000000e+00,7.300000000000000000e+02,2.916760444641113281e-01,1.823285102844238281e+00,5.432199778548010283e-01,0.000000000000000000e+00,0.000000000000000000e+00,1.120000000000000000e+02
1.000000000000000000e+00,1.000000000000000000e+00,1.000000000000000000e+00,2.000000000000000000e+00,7.310000000000000000e+02,4.380960464477539062e-01,1.698831081390380859e+00,2.756743333957145659e-01,0.000000000000000000e+00,0.000000000000000000e+00,1.120000000000000000e+02
1.000000000000000000e+00,1.000000000000000000e+00,1.000000000000000000e+00,3.000000000000000000e+00,7.330000000000000000e+02,3.122439384460449219e-01,1.972714900970458984e+00,6.646891541309767337e-01,0.000000000000000000e+00,0.000000000000000000e+00,1.120000000000000000e+02
0.000000000000000000e+00,1.000000000000000000e+00,0.000000000000000000e+00,3.000000000000000000e+00,7.350000000000000000e+02,2.805321216583251953e-01,1.724579095840454102e+00,4.562036588242808222e-01,0.000000000000000000e+00,0.000000000000000000e+00,1.120000000000000000e+02
0.000000000000000000e+00,1.000000000000000000e+00,0.000000000000000000e+00,3.000000000000000000e+00,7.370000000000000000e+02,2.892220020294189453e-01,1.785215854644775391e+00,5.080520711804665801e-01,0.000000000000000000e+00,0.000000000000000000e+00,1.120000000000000000e+02
1.000000000000000000e+00,0.000000000000000000e+00,0.000000000000000000e+00,0.000000000000000000e+00,7.360000000000000000e+02,2.209639549255371094e-01,1.799106121063232422e+00,5.903983732582861466e-01,0.000000000000000000e+00,1.000000000000000000e+00,1.110000000000000000e+02
1.000000000000000000e+00,0.000000000000000000e+00,0.000000000000000000e+00,0.000000000000000000e+00,7.350000000000000000e+02,2.739989757537841797e-01,2.001043081283569336e+00,7.413364336311325520e-01,0.000000000000000000e+00,0.000000000000000000e+00,1.110000000000000000e+02
1.000000000000000000e+00,1.000000000000000000e+00,1.000000000000000000e+00,1.000000000000000000e+00,7.350000000000000000e+02,3.230650424957275391e-01,1.898477077484130859e+00,5.899883069101896638e-01,0.000000000000000000e+00,0.000000000000000000e+00,1.110000000000000000e+02
1.000000000000000000e+00,0.000000000000000000e+00,0.000000000000000000e+00,0.000000000000000000e+00,7.340000000000000000e+02,2.920300960540771484e-01,1.707297086715698242e+00,4.308618611484152372e-01,0.000000000000000000e+00,1.000000000000000000e+00,1.120000000000000000e+02
1.000000000000000000e+00,1.000000000000000000e+00,1.000000000000000000e+00,2.000000000000000000e+00,7.350000000000000000e+02,2.881078720092773438e-01,1.975157976150512695e+00,7.057509142201408014e-01,0.000000000000000000e+00,1.000000000000000000e+00,1.110000000000000000e+02
1.000000000000000000e+00,0.000000000000000000e+00,0.000000000000000000e+00,0.000000000000000000e+00,7.340000000000000000e+02,2.728979587554931641e-01,1.915124893188476562e+00,6.542963480850134683e-01,0.000000000000000000e+00,1.000000000000000000e+00,1.120000000000000000e+02
1.000000000000000000e+00,1.000000000000000000e+00,1.000000000000000000e+00,3.000000000000000000e+00,7.360000000000000000e+02,2.372970581054687500e-01,1.892010211944580078e+00,6.629806781733513787e-01,1.000000000000000000e+00,1.000000000000000000e+00,1.110000000000000000e+02
1.000000000000000000e+00,1.000000000000000000e+00,1.000000000000000000e+00,1.000000000000000000e+00,7.360000000000000000e+02,2.789568901062011719e-01,1.555886983871459961e+00,2.859784532419376579e-01,0.000000000000000000e+00,0.000000000000000000e+00,1.110000000000000000e+02
0.000000000000000000e+00,1.000000000000000000e+00,0.000000000000000000e+00,2.000000000000000000e+00,7.370000000000000000e+02,2.693910598754882812e-01,1.998675107955932617e+00,7.342108016921855551e-01,0.000000000000000000e+00,0.000000000000000000e+00,1.110000000000000000e+02
0.000000000000000000e+00,1.000000000000000000e+00,0.000000000000000000e+00,3.000000000000000000e+00,7.390000000000000000e+02,2.804820537567138672e-01,1.811250925064086914e+00,5.290533902757277307e-01,0.000000000000000000e+00,0.000000000000000000e+00,1.110000000000000000e+02
0.000000000000000000e+00,1.000000000000000000e+00,0.000000000000000000e+00,3.000000000000000000e+00,7.410000000000000000e+02,2.625389099121093750e-01,1.922654151916503906e+00,6.682796306193135027e-01,0.000000000000000000e+00,0.000000000000000000e+00,1.110000000000000000e+02
0.000000000000000000e+00,1.000000000000000000e+00,0.000000000000000000e+00,3.000000000000000000e+00,7.430000000000000000e+02,3.012819290161132812e-01,1.892718076705932617e+00,5.944424739931362112e-01,0.000000000000000000e+00,0.000000000000000000e+00,1.110000000000000000e+02
1.000000000000000000e+00,1.000000000000000000e+00,1.000000000000000000e+00,2.000000000000000000e+00,7.440000000000000000e+02,2.390220165252685547e-01,1.952090978622436523e+00,7.297754079389082715e-01,0.000000000000000000e+00,0.000000000000000000e+00,1.110000000000000000e+02
0.000000000000000000e+00,1.000000000000000000e+00,0.000000000000000000e+00,3.000000000000000000e+00,7.460000000000000000e+02,2.701640129089355469e-01,1.719420909881591797e+00,4.662034099251538555e-01,0.000000000000000000e+00,0.000000000000000000e+00,1.110000000000000000e+02
0.000000000000000000e+00,1.000000000000000000e+00,0.000000000000000000e+00,3.000000000000000000e+00,7.480000000000000000e+02,3.028678894042968750e-01,1.886452198028564453e+00,5.858666188688217424e-01,0.000000000000000000e+00,0.000000000000000000e+00,1.110000000000000000e+02
0.000000000000000000e+00,0.000000000000000000e+00,1.000000000000000000e+00,0.000000000000000000e+00,7.470000000000000000e+02,3.125669956207275391e-01,1.908970832824707031e+00,5.949038994318404105e-01,0.000000000000000000e+00,1.000000000000000000e+00,1.120000000000000000e+02
0.000000000000000000e+00,0.000000000000000000e+00,1.000000000000000000e+00,0.000000000000000000e+00,7.460000000000000000e+02,2.886629104614257812e-01,2.015668153762817383e+00,7.437590187250953111e-01,0.000000000000000000e+00,1.000000000000000000e+00,1.110000000000000000e+02
1.000000000000000000e+00,0.000000000000000000e+00,0.000000000000000000e+00,0.000000000000000000e+00,7.450000000000000000e+02,2.970609664916992188e-01,1.873441934585571289e+00,5.840477792233975673e-01,0.000000000000000000e+00,1.000000000000000000e+00,1.120000000000000000e+02
1.000000000000000000e+00,1.000000000000000000e+00,1.000000000000000000e+00,2.000000000000000000e+00,7.460000000000000000e+02,6.146709918975830078e-01,1.846385002136230469e+01,6.814797852085127117e-01,1.000000000000000000e+00,0.000000000000000000e+00,1.120000000000000000e+02
1.000000000000000000e+00,1.000000000000000000e+00,1.000000000000000000e+00,2.000000000000000000e+00,7.470000000000000000e+02,2.944269180297851562e-01,1.943210124969482422e+00,6.747333244784524675e-01,0.000000000000000000e+00,0.000000000000000000e+00,1.120000000000000000e+02
1.000000000000000000e+00,1.000000000000000000e+00,1.000000000000000000e+00,3.000000000000000000e+00,7.490000000000000000e+02,2.655038833618164062e-01,1.611533880233764648e+00,3.533177215230374202e-01,0.000000000000000000e+00,0.000000000000000000e+00,1.120000000000000000e+02
1.000000000000000000e+00,0.000000000000000000e+00,0.000000000000000000e+00,0.000000000000000000e+00,7.480000000000000000e+02,3.019289970397949219e-01,1.827142000198364258e+00,5.303068149904166528e-01,0.000000000000000000e+00,1.000000000000000000e+00,1.110000000000000000e+02
0.000000000000000000e+00,1.000000000000000000e+00,0.000000000000000000e+00,3.000000000000000000e+00,7.500000000000000000e+02,2.993040084838867188e-01,1.807027101516723633e+00,5.207286539280346904e-01,0.000000000000000000e+00,1.000000000000000000e+00,1.120000000000000000e+02
0.000000000000000000e+00,1.000000000000000000e+00,0.000000000000000000e+00,2.000000000000000000e+00,7.510000000000000000e+02,3.007020950317382812e-01,1.898617029190063477e+00,6.025938821251350941e-01,0.000000000000000000e+00,0.000000000000000000e+00,1.120000000000000000e+02
0.000000000000000000e+00,0.000000000000000000e+00,1.000000000000000000e+00,0.000000000000000000e+00,7.500000000000000000e+02,2.897720336914062500e-01,1.947879076004028320e+00,6.671395185512154491e-01,0.000000000000000000e+00,1.000000000000000000e+00,1.110000000000000000e+02
0.000000000000000000e+00,1.000000000000000000e+00,0.000000000000000000e+00,5.000000000000000000e+00,7.540000000000000000e+02,2.918071746826171875e-01,2.027709960937500000e+00,7.447806846245585977e-01,0.000000000000000000e+00,1.000000000000000000e+00,1.120000000000000000e+02
0.000000000000000000e+00,1.000000000000000000e+00,0.000000000000000000e+00,3.000000000000000000e+00,7.560000000000000000e+02,3.182291984558105469e-01,1.998790025711059570e+00,6.937019531750038270e-01,0.000000000000000000e+00,0.000000000000000000e+00,1.120000000000000000e+02
0.000000000000000000e+00,1.000000000000000000e+00,0.000000000000000000e+00,4.000000000000000000e+00,7.590000000000000000e+02,2.653028964996337891e-01,1.765635013580322266e+00,5.095375465288340955e-01,0.000000000000000000e+00,0.000000000000000000e+00,1.120000000000000000e+02
0.000000000000000000e+00,0.000000000000000000e+00,1.000000000000000000e+00,0.000000000000000000e+00,7.580000000000000000e+02,2.896831035614013672e-01,1.659406900405883789e+00,3.858134945783034397e-01,0.000000000000000000e+00,1.000000000000000000e+00,1.110000000000000000e+02
0.000000000000000000e+00,1.000000000000000000e+00,0.000000000000000000e+00,3.000000000000000000e+00,7.600000000000000000e+02,3.070790767669677734e-01,1.735487222671508789e+00,4.378998902817124450e-01,0.000000000000000000e+00,1.000000000000000000e+00,1.120000000000000000e+02
1.000000000000000000e+00,1.000000000000000000e+00,1.000000000000000000e+00,5.000000000000000000e+00,7.640000000000000000e+02,3.198277950286865234e-01,1.921509981155395508e+00,6.093140901302013246e-01,0.000000000000000000e+00,0.000000000000000000e+00,1.120000000000000000e+02
1.000000000000000000e+00,1.000000000000000000e+00,1.000000000000000000e+00,1.000000000000000000e+00,7.640000000000000000e+02,2.932720184326171875e-01,1.987641096115112305e+00,7.135431982407012264e-01,0.000000000000000000e+00,0.000000000000000000e+00,1.120000000000000000e+02
1.000000000000000000e+00,0.000000000000000000e+00,0.000000000000000000e+00,0.000000000000000000e+00,7.630000000000000000e+02,2.979810237884521484e-01,1.789823055267333984e+00,5.036093531893035546e-01,1.000000000000000000e+00,1.000000000000000000e+00,1.110000000000000000e+02
0.000000000000000000e+00,1.000000000000000000e+00,0.000000000000000000e+00,3.000000000000000000e+00,7.650000000000000000e+02,2.870929241180419922e-01,1.535478830337524414e+00,2.560323512493769549e-01,0.000000000000000000e+00,1.000000000000000000e+00,1.120000000000000000e+02
1.000000000000000000e+00,0.000000000000000000e+00,0.000000000000000000e+00,0.000000000000000000e+00,7.640000000000000000e+02,3.147239685058593750e-01,2.056742191314697266e+00,7.456208742527508093e-01,0.000000000000000000e+00,1.000000000000000000e+00,1.110000000000000000e+02
0.000000000000000000e+00,0.000000000000000000e+00,1.000000000000000000e+00,0.000000000000000000e+00,7.630000000000000000e+02,3.027999401092529297e-01,1.914126873016357422e+00,6.265909852248003897e-01,0.000000000000000000e+00,0.000000000000000000e+00,1.110000000000000000e+02
1.000000000000000000e+00,0.000000000000000000e+00,0.000000000000000000e+00,0.000000000000000000e+00,7.620000000000000000e+02,3.531970977783203125e-01,1.852104187011718750e+00,5.121829317051727060e-01,0.000000000000000000e+00,1.000000000000000000e+00,1.120000000000000000e+02
1.000000000000000000e+00,0.000000000000000000e+00,0.000000000000000000e+00,0.000000000000000000e+00,7.610000000000000000e+02,3.793458938598632812e-01,1.759787797927856445e+00,3.888638944468743586e-01,0.000000000000000000e+00,1.000000000000000000e+00,1.110000000000000000e+02
1.000000000000000000e+00,1.000000000000000000e+00,1.000000000000000000e+00,4.000000000000000000e+00,7.640000000000000000e+02,2.977230548858642578e-01,1.570092916488647461e+00,2.757482262967489439e-01,0.000000000000000000e+00,0.000000000000000000e+00,1.110000000000000000e+02
0.000000000000000000e+00,1.000000000000000000e+00,0.000000000000000000e+00,2.000000000000000000e+00,7.650000000000000000e+02,2.530460357666015625e-01,1.544667005538940430e+00,3.037495521724549175e-01,0.000000000000000000e+00,0.000000000000000000e+00,1.110000000000000000e+02
1.000000000000000000e+00,1.000000000000000000e+00,1.000000000000000000e+00,3.000000000000000000e+00,7.670000000000000000e+02,2.651059627532958984e-01,1.856577157974243164e+00,5.933489638453546267e-01,0.000000000000000000e+00,0.000000000000000000e+00,1.110000000000000000e+02
1.000000000000000000e+00,1.000000000000000000e+00,1.000000000000000000e+00,1.000000000000000000e+00,7.670000000000000000e+02,3.101971149444580078e-01,1.943023920059204102e+00,6.530321442024050738e-01,0.000000000000000000e+00,0.000000000000000000e+00,1.110000000000000000e+02
0.000000000000000000e+00,1.000000000000000000e+00,0.000000000000000000e+00,3.000000000000000000e+00,7.690000000000000000e+02,2.481989860534667969e-01,1.506335020065307617e+00,2.598218319787919950e-01,0.000000000000000000e+00,0.000000000000000000e+00,1.110000000000000000e+02
0.000000000000000000e+00,1.000000000000000000e+00,0.000000000000000000e+00,1.000000000000000000e+00,7.690000000000000000e+02,3.162779808044433594e-01,2.042802095413208008e+00,7.354686279051381170e-01,0.000000000000000000e+00,0.000000000000000000e+00,1.110000000000000000e+02
1.000000000000000000e+00,1.000000000000000000e+00,1.000000000000000000e+00,3.000000000000000000e+00,7.710000000000000000e+02,2.713811397552490234e-01,1.625366926193237305e+00,3.612936967565516522e-01,0.000000000000000000e+00,0.000000000000000000e+00,1.110000000000000000e+02
1.000000000000000000e+00,1.000000000000000000e+00,1.000000000000000000e+00,2.000000000000000000e+00,7.720000000000000000e+02,3.197510242462158203e-01,1.659164190292358398e+00,3.538238963342973942e-01,0.000000000000000000e+00,0.000000000000000000e+00,1.110000000000000000e+02
1.000000000000000000e+00,1.000000000000000000e+00,1.000000000000000000e+00,4.000000000000000000e+00,7.750000000000000000e+02,2.761080265045166016e-01,1.644974946975708008e+00,3.821319083094990576e-01,0.000000000000000000e+00,0.000000000000000000e+00,1.110000000000000000e+02
1.000000000000000000e+00,1.000000000000000000e+00,1.000000000000000000e+00,2.000000000000000000e+00,7.760000000000000000e+02,2.922060489654541016e-01,1.608339071273803711e+00,3.238969091469774408e-01,0.000000000000000000e+00,0.000000000000000000e+00,1.110000000000000000e+02
0.000000000000000000e+00,1.000000000000000000e+00,0.000000000000000000e+00,3.000000000000000000e+00,7.780000000000000000e+02,2.602260112762451172e-01,1.853424072265625000e+00,6.103954756723644071e-01,0.000000000000000000e+00,0.000000000000000000e+00,1.110000000000000000e+02
1.000000000000000000e+00,1.000000000000000000e+00,1.000000000000000000e+00,3.000000000000000000e+00,7.800000000000000000e+02,2.462589740753173828e-01,1.624552965164184570e+00,3.851886435216644866e-01,0.000000000000000000e+00,0.000000000000000000e+00,1.110000000000000000e+02
0.000000000000000000e+00,1.000000000000000000e+00,0.000000000000000000e+00,3.000000000000000000e+00,7.820000000000000000e+02,2.581491470336914062e-01,1.656344890594482422e+00,4.079385760050525112e-01,1.000000000000000000e+00,0.000000000000000000e+00,1.110000000000000000e+02
1.000000000000000000e+00,0.000000000000000000e+00,0.000000000000000000e+00,0.000000000000000000e+00,7.810000000000000000e+02,2.471511363983154297e-01,1.681930065155029297e+00,4.401646057393358014e-01,0.000000000000000000e+00,1.000000000000000000e+00,1.120000000000000000e+02
1.000000000000000000e+00,0.000000000000000000e+00,0.000000000000000000e+00,0.000000000000000000e+00,7.800000000000000000e+02,3.328299522399902344e-01,1.765141010284423828e+00,4.386947111205816152e-01,0.000000000000000000e+00,0.000000000000000000e+00,1.120000000000000000e+02
0.000000000000000000e+00,0.000000000000000000e+00,1.000000000000000000e+00,0.000000000000000000e+00,7.790000000000000000e+02,4.231991767883300781e-01,2.060212135314941406e+00,6.487323690971800172e-01,0.000000000000000000e+00,1.000000000000000000e+00,1.110000000000000000e+02
0.000000000000000000e+00,1.000000000000000000e+00,0.000000000000000000e+00,3.000000000000000000e+00,7.810000000000000000e+02,4.886138439178466797e-01,1.801934957504272461e+00,3.176511369910839377e-01,0.000000000000000000e+00,1.000000000000000000e+00,1.120000000000000000e+02
0.000000000000000000e+00,1.000000000000000000e+00,0.000000000000000000e+00,2.000000000000000000e+00,7.820000000000000000e+02,3.176608085632324219e-01,1.742604970932006836e+00,4.268999572910165408e-01,0.000000000000000000e+00,0.000000000000000000e+00,1.120000000000000000e+02
1.000000000000000000e+00,1.000000000000000000e+00,1.000000000000000000e+00,2.000000000000000000e+00,7.830000000000000000e+02,2.835009098052978516e-01,1.771971940994262695e+00,4.988104285646425273e-01,0.000000000000000000e+00,0.000000000000000000e+00,1.120000000000000000e+02
1.000000000000000000e+00,1.000000000000000000e+00,1.000000000000000000e+00,1.000000000000000000e+00,7.830000000000000000e+02,2.571291923522949219e-01,1.833130836486816406e+00,5.819049604410460041e-01,0.000000000000000000e+00,0.000000000000000000e+00,1.120000000000000000e+02
1.000000000000000000e+00,1.000000000000000000e+00,1.000000000000000000e+00,3.000000000000000000e+00,7.850000000000000000e+02,2.741739749908447266e-01,1.584391832351684570e+00,2.999500218114575234e-01,0.000000000000000000e+00,0.000000000000000000e+00,1.120000000000000000e+02
1.000000000000000000e+00,0.000000000000000000e+00,0.000000000000000000e+00,0.000000000000000000e+00,7.840000000000000000e+02,2.845790386199951172e-01,1.817337036132812500e+00,5.337388706860271004e-01,0.000000000000000000e+00,1.000000000000000000e+00,1.110000000000000000e+02
0.000000000000000000e+00,1.000000000000000000e+00,0.000000000000000000e+00,3.000000000000000000e+00,7.860000000000000000e+02,2.589650154113769531e-01,1.966346025466918945e+00,7.165826710455270865e-01,0.000000000000000000e+00,1.000000000000000000e+00,1.120000000000000000e+02
0.000000000000000000e+00,1.000000000000000000e+00,0.000000000000000000e+00,3.000000000000000000e+00,7.880000000000000000e+02,2.783741950988769531e-01,1.955284833908081055e+00,6.719610833469543687e-01,0.000000000000000000e+00,0.000000000000000000e+00,1.120000000000000000e+02
0.000000000000000000e+00,1.000000000000000000e+00,0.000000000000000000e+00,5.000000000000000000e+00,7.920000000000000000e+02,2.684237957000732422e-01,1.691096067428588867e+00,4.300321810706307923e-01,0.000000000000000000e+00,0.000000000000000000e+00,1.120000000000000000e+02
1.000000000000000000e+00,1.000000000000000000e+00,1.000000000000000000e+00,3.000000000000000000e+00,7.940000000000000000e+02,2.671730518341064453e-01,1.575024127960205078e+00,3.218752918754734238e-01,0.000000000000000000e+00,0.000000000000000000e+00,1.120000000000000000e+02
0.000000000000000000e+00,1.000000000000000000e+00,0.000000000000000000e+00,1.000000000000000000e+00,7.940000000000000000e+02,1.918959617614746094e-01,1.515440940856933594e+00,3.373266109607034324e-01,0.000000000000000000e+00,0.000000000000000000e+00,1.120000000000000000e+02
1.000000000000000000e+00,1.000000000000000000e+00,1.000000000000000000e+00,3.000000000000000000e+00,7.960000000000000000e+02,1.872630119323730469e-01,1.617772102355957031e+00,4.383549171533335786e-01,0.000000000000000000e+00,0.000000000000000000e+00,1.120000000000000000e+02
1.000000000000000000e+00,1.000000000000000000e+00,1.000000000000000000e+00,4.000000000000000000e+00,7.990000000000000000e+02,3.446750640869140625e-01,1.587512969970703125e+00,2.594285652125271624e-01,0.000000000000000000e+00,0.000000000000000000e+00,1.120000000000000000e+02
1.000000000000000000e+00,0.000000000000000000e+00,0.000000000000000000e+00,0.000000000000000000e+00,7.980000000000000000e+02,3.033769130706787109e-01,1.854648113250732422e+00,5.637568000641680621e-01,0.000000000000000000e+00,1.000000000000000000e+00,1.110000000000000000e+02
1.000000000000000000e+00,1.000000000000000000e+00,1.000000000000000000e+00,3.000000000000000000e+00,8.000000000000000000e+02,2.694749832153320312e-01,1.538643836975097656e+00,2.861113218499682365e-01,0.000000000000000000e+00,1.000000000000000000e+00,1.120000000000000000e+02
0.000000000000000000e+00,1.000000000000000000e+00,0.000000000000000000e+00,1.000000000000000000e+00,8.000000000000000000e+02,3.455228805541992188e-01,1.844294071197509766e+00,5.134949948825378030e-01,0.000000000000000000e+00,0.000000000000000000e+00,1.120000000000000000e+02
1.000000000000000000e+00,0.000000000000000000e+00,0.000000000000000000e+00,0.000000000000000000e+00,7.990000000000000000e+02,2.862820625305175781e-01,1.950273990631103516e+00,6.803274355150802366e-01,0.000000000000000000e+00,1.000000000000000000e+00,1.110000000000000000e+02
1.000000000000000000e+00,0.000000000000000000e+00,0.000000000000000000e+00,0.000000000000000000e+00,7.980000000000000000e+02,3.163249492645263672e-01,1.832135915756225586e+00,5.292843095498349637e-01,1.000000000000000000e+00,0.000000000000000000e+00,1.110000000000000000e+02
1.000000000000000000e+00,0.000000000000000000e+00,0.000000000000000000e+00,0.000000000000000000e+00,7.970000000000000000e+02,2.879710197448730469e-01,1.754300832748413086e+00,4.836895392579538266e-01,0.000000000000000000e+00,1.000000000000000000e+00,1.120000000000000000e+02
1.000000000000000000e+00,1.000000000000000000e+00,1.000000000000000000e+00,2.000000000000000000e+00,7.980000000000000000e+02,2.653710842132568359e-01,1.581032991409301758e+00,3.149349188486089135e-01,0.000000000000000000e+00,1.000000000000000000e+00,1.110000000000000000e+02
0.000000000000000000e+00,1.000000000000000000e+00,0.000000000000000000e+00,5.000000000000000000e+00,8.020000000000000000e+02,2.937648296356201172e-01,1.798322916030883789e+00,5.297365698424784108e-01,0.000000000000000000e+00,0.000000000000000000e+00,1.110000000000000000e+02
1.000000000000000000e+00,1.000000000000000000e+00,1.000000000000000000e+00,1.000000000000000000e+00,8.020000000000000000e+02,2.088108062744140625e-01,1.757513999938964844e+00,5.705635324459676916e-01,0.000000000000000000e+00,0.000000000000000000e+00,1.110000000000000000e+02
1.000000000000000000e+00,1.000000000000000000e+00,1.000000000000000000e+00,2.000000000000000000e+00,8.030000000000000000e+02,3.242120742797851562e-01,1.976334095001220703e+00,6.635491099963175543e-01,0.000000000000000000e+00,0.000000000000000000e+00,1.110000000000000000e+02
0.000000000000000000e+00,1.000000000000000000e+00,0.000000000000000000e+00,0.000000000000000000e+00,8.020000000000000000e+02,2.846670150756835938e-01,1.545274019241333008e+00,2.759010782925150340e-01,0.000000000000000000e+00,0.000000000000000000e+00,1.110000000000000000e+02
1.000000000000000000e+00,1.000000000000000000e+00,1.000000000000000000e+00,3.000000000000000000e+00,8.040000000000000000e+02,2.466812133789062500e-01,1.962779045104980469e+00,7.215890562566493749e-01,0.000000000000000000e+00,0.000000000000000000e+00,1.110000000000000000e+02
0.000000000000000000e+00,1.000000000000000000e+00,0.000000000000000000e+00,1.000000000000000000e+00,8.040000000000000000e+02,3.031010627746582031e-01,1.757879018783569336e+00,4.631025135327489495e-01,0.000000000000000000e+00,0.000000000000000000e+00,1.110000000000000000e+02
1.000000000000000000e+00,1.000000000000000000e+00,1.000000000000000000e+00,3.000000000000000000e+00,8.060000000000000000e+02,2.412309646606445312e-01,1.747454881668090820e+00,5.271872217662597615e-01,0.000000000000000000e+00,0.000000000000000000e+00,1.110000000000000000e+02
