choice, accuracy, solution,  reward, cumulative_reward, rt,  total_trial_time, iti, cp_with_slow_fast, obs_cp_with_slow_fast, high_val_cue
1.000000000000000000e+00,1.000000000000000000e+00,1.000000000000000000e+00,5.000000000000000000e+00,6.040000000000000000e+02,7.982921600341796875e-01,2.332757949829101562e+00,5.343237122260124927e-01,0.000000000000000000e+00,0.000000000000000000e+00,1.120000000000000000e+02
0.000000000000000000e+00,1.000000000000000000e+00,0.000000000000000000e+00,3.000000000000000000e+00,6.060000000000000000e+02,2.879951000213623047e-01,1.547891139984130859e+00,2.658880064611001681e-01,0.000000000000000000e+00,0.000000000000000000e+00,1.120000000000000000e+02
0.000000000000000000e+00,1.000000000000000000e+00,0.000000000000000000e+00,2.000000000000000000e+00,6.070000000000000000e+02,3.190770149230957031e-01,2.034689903259277344e+00,7.168514788297742912e-01,0.000000000000000000e+00,0.000000000000000000e+00,1.120000000000000000e+02
0.000000000000000000e+00,0.000000000000000000e+00,1.000000000000000000e+00,0.000000000000000000e+00,6.060000000000000000e+02,2.818131446838378906e-01,1.616034984588623047e+00,3.333358100295902293e-01,0.000000000000000000e+00,1.000000000000000000e+00,1.110000000000000000e+02
0.000000000000000000e+00,0.000000000000000000e+00,1.000000000000000000e+00,0.000000000000000000e+00,6.050000000000000000e+02,3.051300048828125000e-01,1.998191833496093750e+00,6.979176336774809419e-01,0.000000000000000000e+00,1.000000000000000000e+00,1.120000000000000000e+02
1.000000000000000000e+00,1.000000000000000000e+00,1.000000000000000000e+00,4.000000000000000000e+00,6.080000000000000000e+02,2.408690452575683594e-01,1.685034990310668945e+00,4.665550900457832162e-01,0.000000000000000000e+00,1.000000000000000000e+00,1.110000000000000000e+02
0.000000000000000000e+00,1.000000000000000000e+00,0.000000000000000000e+00,1.000000000000000000e+00,6.080000000000000000e+02,3.540370464324951172e-01,1.835055828094482422e+00,4.849855776122397599e-01,0.000000000000000000e+00,1.000000000000000000e+00,1.120000000000000000e+02
0.000000000000000000e+00,0.000000000000000000e+00,1.000000000000000000e+00,0.000000000000000000e+00,6.070000000000000000e+02,3.566989898681640625e-01,1.663717985153198242e+00,3.156246152219397416e-01,0.000000000000000000e+00,0.000000000000000000e+00,1.120000000000000000e+02
1.000000000000000000e+00,0.000000000000000000e+00,0.000000000000000000e+00,0.000000000000000000e+00,6.060000000000000000e+02,2.540922164916992188e-01,1.552312850952148438e+00,3.013088657894284483e-01,0.000000000000000000e+00,1.000000000000000000e+00,1.110000000000000000e+02
0.000000000000000000e+00,0.000000000000000000e+00,1.000000000000000000e+00,0.000000000000000000e+00,6.050000000000000000e+02,2.581849098205566406e-01,1.617503166198730469e+00,3.688143635934376663e-01,0.000000000000000000e+00,1.000000000000000000e+00,1.120000000000000000e+02
0.000000000000000000e+00,1.000000000000000000e+00,0.000000000000000000e+00,4.000000000000000000e+00,6.080000000000000000e+02,3.175530433654785156e-01,1.709272861480712891e+00,3.948021577691031569e-01,0.000000000000000000e+00,0.000000000000000000e+00,1.120000000000000000e+02
1.000000000000000000e+00,1.000000000000000000e+00,1.000000000000000000e+00,3.000000000000000000e+00,6.100000000000000000e+02,2.275660037994384766e-01,1.701985120773315430e+00,4.967310457474407026e-01,0.000000000000000000e+00,0.000000000000000000e+00,1.120000000000000000e+02
0.000000000000000000e+00,1.000000000000000000e+00,0.000000000000000000e+00,3.000000000000000000e+00,6.120000000000000000e+02,3.156781196594238281e-01,1.665354967117309570e+00,3.622760854088000193e-01,0.000000000000000000e+00,0.000000000000000000e+00,1.120000000000000000e+02
0.000000000000000000e+00,1.000000000000000000e+00,0.000000000000000000e+00,5.000000000000000000e+00,6.160000000000000000e+02,3.020269870758056641e-01,1.587804079055786133e+00,3.002110142323246023e-01,0.000000000000000000e+00,0.000000000000000000e+00,1.120000000000000000e+02
1.000000000000000000e+00,1.000000000000000000e+00,1.000000000000000000e+00,3.000000000000000000e+00,6.180000000000000000e+02,2.980849742889404297e-01,1.732659101486206055e+00,4.327816942227988295e-01,0.000000000000000000e+00,0.000000000000000000e+00,1.120000000000000000e+02
1.000000000000000000e+00,1.000000000000000000e+00,1.000000000000000000e+00,4.000000000000000000e+00,6.210000000000000000e+02,2.968521118164062500e-01,2.022553920745849609e+00,7.217861687718275521e-01,0.000000000000000000e+00,0.000000000000000000e+00,1.120000000000000000e+02
1.000000000000000000e+00,1.000000000000000000e+00,1.000000000000000000e+00,1.000000000000000000e+00,6.210000000000000000e+02,2.893860340118408203e-01,1.804943084716796875e+00,5.270139913640841112e-01,0.000000000000000000e+00,0.000000000000000000e+00,1.120000000000000000e+02
0.000000000000000000e+00,1.000000000000000000e+00,0.000000000000000000e+00,3.000000000000000000e+00,6.230000000000000000e+02,2.872970104217529297e-01,2.019799947738647461e+00,7.466280700357325051e-01,0.000000000000000000e+00,0.000000000000000000e+00,1.120000000000000000e+02
1.000000000000000000e+00,0.000000000000000000e+00,0.000000000000000000e+00,0.000000000000000000e+00,6.220000000000000000e+02,2.167308330535888672e-01,1.769518136978149414e+00,5.663999705533243612e-01,0.000000000000000000e+00,1.000000000000000000e+00,1.110000000000000000e+02
0.000000000000000000e+00,0.000000000000000000e+00,1.000000000000000000e+00,0.000000000000000000e+00,6.210000000000000000e+02,3.265211582183837891e-01,2.060909986495971680e+00,7.438889894252369572e-01,0.000000000000000000e+00,1.000000000000000000e+00,1.120000000000000000e+02
0.000000000000000000e+00,0.000000000000000000e+00,1.000000000000000000e+00,0.000000000000000000e+00,6.200000000000000000e+02,3.034729957580566406e-01,1.772911071777343750e+00,4.837839828415687049e-01,0.000000000000000000e+00,1.000000000000000000e+00,1.110000000000000000e+02
1.000000000000000000e+00,1.000000000000000000e+00,1.000000000000000000e+00,1.000000000000000000e+00,6.200000000000000000e+02,2.521729469299316406e-01,1.527891874313354492e+00,2.786041030999212853e-01,0.000000000000000000e+00,1.000000000000000000e+00,1.120000000000000000e+02
0.000000000000000000e+00,0.000000000000000000e+00,1.000000000000000000e+00,0.000000000000000000e+00,6.190000000000000000e+02,3.316130638122558594e-01,2.026083946228027344e+00,7.043272201103756291e-01,0.000000000000000000e+00,1.000000000000000000e+00,1.110000000000000000e+02
0.000000000000000000e+00,0.000000000000000000e+00,1.000000000000000000e+00,0.000000000000000000e+00,6.180000000000000000e+02,3.263359069824218750e-01,1.695158958435058594e+00,3.832532184280276755e-01,0.000000000000000000e+00,1.000000000000000000e+00,1.120000000000000000e+02
1.000000000000000000e+00,0.000000000000000000e+00,0.000000000000000000e+00,0.000000000000000000e+00,6.170000000000000000e+02,2.844350337982177734e-01,1.797270059585571289e+00,5.137592058951023777e-01,0.000000000000000000e+00,0.000000000000000000e+00,1.120000000000000000e+02
0.000000000000000000e+00,0.000000000000000000e+00,1.000000000000000000e+00,0.000000000000000000e+00,6.160000000000000000e+02,2.111320495605468750e-01,1.540247917175292969e+00,3.542171295010969612e-01,0.000000000000000000e+00,1.000000000000000000e+00,1.110000000000000000e+02
1.000000000000000000e+00,1.000000000000000000e+00,1.000000000000000000e+00,1.000000000000000000e+00,6.160000000000000000e+02,5.842380523681640625e-01,2.063159942626953125e+00,4.839979866338062764e-01,0.000000000000000000e+00,0.000000000000000000e+00,1.110000000000000000e+02
0.000000000000000000e+00,0.000000000000000000e+00,1.000000000000000000e+00,0.000000000000000000e+00,6.150000000000000000e+02,2.656328678131103516e-01,1.770135879516601562e+00,5.041674114420802155e-01,0.000000000000000000e+00,1.000000000000000000e+00,1.120000000000000000e+02
1.000000000000000000e+00,1.000000000000000000e+00,1.000000000000000000e+00,4.000000000000000000e+00,6.180000000000000000e+02,2.430231571197509766e-01,1.496168851852416992e+00,2.673129104933628652e-01,0.000000000000000000e+00,0.000000000000000000e+00,1.120000000000000000e+02
0.000000000000000000e+00,1.000000000000000000e+00,0.000000000000000000e+00,5.000000000000000000e+00,6.220000000000000000e+02,2.431149482727050781e-01,1.868019104003906250e+00,6.350062106212341906e-01,0.000000000000000000e+00,0.000000000000000000e+00,1.120000000000000000e+02
0.000000000000000000e+00,0.000000000000000000e+00,1.000000000000000000e+00,0.000000000000000000e+00,6.210000000000000000e+02,2.474679946899414062e-01,1.849703073501586914e+00,6.014433103617762288e-01,1.000000000000000000e+00,1.000000000000000000e+00,1.110000000000000000e+02
0.000000000000000000e+00,0.000000000000000000e+00,1.000000000000000000e+00,0.000000000000000000e+00,6.200000000000000000e+02,2.575409412384033203e-01,1.612775087356567383e+00,3.645546376216542983e-01,0.000000000000000000e+00,0.000000000000000000e+00,1.110000000000000000e+02
1.000000000000000000e+00,0.000000000000000000e+00,0.000000000000000000e+00,0.000000000000000000e+00,6.190000000000000000e+02,2.806351184844970703e-01,1.535833835601806641e+00,2.672197048073509662e-01,0.000000000000000000e+00,0.000000000000000000e+00,1.110000000000000000e+02
0.000000000000000000e+00,1.000000000000000000e+00,0.000000000000000000e+00,0.000000000000000000e+00,6.180000000000000000e+02,2.706201076507568359e-01,1.789759874343872070e+00,5.234208668650516261e-01,0.000000000000000000e+00,0.000000000000000000e+00,1.110000000000000000e+02
1.000000000000000000e+00,1.000000000000000000e+00,1.000000000000000000e+00,3.000000000000000000e+00,6.200000000000000000e+02,2.353329658508300781e-01,1.730539083480834961e+00,5.040367395041018828e-01,0.000000000000000000e+00,1.000000000000000000e+00,1.120000000000000000e+02
0.000000000000000000e+00,1.000000000000000000e+00,0.000000000000000000e+00,2.000000000000000000e+00,6.210000000000000000e+02,2.221100330352783203e-01,1.902611970901489258e+00,6.898362813815031025e-01,0.000000000000000000e+00,1.000000000000000000e+00,1.110000000000000000e+02
0.000000000000000000e+00,0.000000000000000000e+00,1.000000000000000000e+00,0.000000000000000000e+00,6.200000000000000000e+02,6.671888828277587891e-01,2.329762935638427734e+00,6.697008401256305810e-01,0.000000000000000000e+00,1.000000000000000000e+00,1.120000000000000000e+02
1.000000000000000000e+00,1.000000000000000000e+00,1.000000000000000000e+00,2.000000000000000000e+00,6.210000000000000000e+02,3.289110660552978516e-01,1.643232107162475586e+00,3.134117952645147365e-01,0.000000000000000000e+00,0.000000000000000000e+00,1.120000000000000000e+02
0.000000000000000000e+00,0.000000000000000000e+00,1.000000000000000000e+00,0.000000000000000000e+00,6.200000000000000000e+02,3.496308326721191406e-01,1.615149021148681641e+00,2.786746799930543417e-01,0.000000000000000000e+00,1.000000000000000000e+00,1.110000000000000000e+02
1.000000000000000000e+00,1.000000000000000000e+00,1.000000000000000000e+00,3.000000000000000000e+00,6.220000000000000000e+02,3.201301097869873047e-01,1.851188182830810547e+00,5.462595859489527417e-01,0.000000000000000000e+00,0.000000000000000000e+00,1.110000000000000000e+02
1.000000000000000000e+00,1.000000000000000000e+00,1.000000000000000000e+00,2.000000000000000000e+00,6.230000000000000000e+02,6.371290683746337891e-01,2.293349027633666992e+00,6.729229178725777416e-01,0.000000000000000000e+00,0.000000000000000000e+00,1.110000000000000000e+02
1.000000000000000000e+00,1.000000000000000000e+00,1.000000000000000000e+00,1.000000000000000000e+00,6.230000000000000000e+02,3.012058734893798828e-01,1.875350952148437500e+00,5.817680406439738050e-01,0.000000000000000000e+00,0.000000000000000000e+00,1.110000000000000000e+02
1.000000000000000000e+00,0.000000000000000000e+00,0.000000000000000000e+00,0.000000000000000000e+00,6.220000000000000000e+02,3.935470581054687500e-01,2.094200134277343750e+00,7.258800025748312068e-01,0.000000000000000000e+00,1.000000000000000000e+00,1.120000000000000000e+02
1.000000000000000000e+00,0.000000000000000000e+00,0.000000000000000000e+00,0.000000000000000000e+00,6.210000000000000000e+02,3.026459217071533203e-01,1.765109062194824219e+00,4.746450023102598559e-01,0.000000000000000000e+00,1.000000000000000000e+00,1.110000000000000000e+02
0.000000000000000000e+00,1.000000000000000000e+00,0.000000000000000000e+00,2.000000000000000000e+00,6.220000000000000000e+02,2.760279178619384766e-01,1.619564056396484375e+00,3.610542550915346593e-01,0.000000000000000000e+00,1.000000000000000000e+00,1.120000000000000000e+02
1.000000000000000000e+00,0.000000000000000000e+00,0.000000000000000000e+00,0.000000000000000000e+00,6.210000000000000000e+02,5.254020690917968750e-01,2.015092849731445312e+00,5.093912755420688665e-01,0.000000000000000000e+00,1.000000000000000000e+00,1.110000000000000000e+02
1.000000000000000000e+00,0.000000000000000000e+00,0.000000000000000000e+00,0.000000000000000000e+00,6.200000000000000000e+02,3.288040161132812500e-01,1.592912197113037109e+00,2.692974210251607992e-01,0.000000000000000000e+00,1.000000000000000000e+00,1.120000000000000000e+02
0.000000000000000000e+00,0.000000000000000000e+00,1.000000000000000000e+00,0.000000000000000000e+00,6.190000000000000000e+02,4.187939167022705078e-01,1.982583045959472656e+00,5.683048051588877048e-01,0.000000000000000000e+00,0.000000000000000000e+00,1.120000000000000000e+02
0.000000000000000000e+00,0.000000000000000000e+00,1.000000000000000000e+00,0.000000000000000000e+00,6.180000000000000000e+02,3.765571117401123047e-01,1.652123928070068359e+00,2.874764537980735168e-01,0.000000000000000000e+00,1.000000000000000000e+00,1.110000000000000000e+02
1.000000000000000000e+00,1.000000000000000000e+00,1.000000000000000000e+00,4.000000000000000000e+00,6.210000000000000000e+02,3.426859378814697266e-01,1.874767065048217773e+00,5.453394595452079052e-01,0.000000000000000000e+00,0.000000000000000000e+00,1.110000000000000000e+02
1.000000000000000000e+00,0.000000000000000000e+00,0.000000000000000000e+00,0.000000000000000000e+00,6.200000000000000000e+02,2.730658054351806641e-01,1.705168008804321289e+00,4.506957274037142192e-01,0.000000000000000000e+00,1.000000000000000000e+00,1.120000000000000000e+02
0.000000000000000000e+00,0.000000000000000000e+00,1.000000000000000000e+00,0.000000000000000000e+00,6.190000000000000000e+02,4.324710369110107422e-01,1.702237129211425781e+00,2.698359396669287591e-01,0.000000000000000000e+00,1.000000000000000000e+00,1.110000000000000000e+02
0.000000000000000000e+00,1.000000000000000000e+00,0.000000000000000000e+00,5.000000000000000000e+00,6.230000000000000000e+02,3.604760169982910156e-01,1.991543054580688477e+00,6.277481614893354323e-01,0.000000000000000000e+00,0.000000000000000000e+00,1.110000000000000000e+02
1.000000000000000000e+00,1.000000000000000000e+00,1.000000000000000000e+00,1.000000000000000000e+00,6.230000000000000000e+02,2.452180385589599609e-01,1.535378932952880859e+00,3.135128000225769207e-01,0.000000000000000000e+00,0.000000000000000000e+00,1.110000000000000000e+02
1.000000000000000000e+00,0.000000000000000000e+00,0.000000000000000000e+00,0.000000000000000000e+00,6.220000000000000000e+02,3.459429740905761719e-01,1.863883972167968750e+00,5.272340041103266151e-01,0.000000000000000000e+00,1.000000000000000000e+00,1.120000000000000000e+02
0.000000000000000000e+00,1.000000000000000000e+00,0.000000000000000000e+00,2.000000000000000000e+00,6.230000000000000000e+02,3.674058914184570312e-01,1.656876087188720703e+00,3.010783121582877309e-01,0.000000000000000000e+00,1.000000000000000000e+00,1.110000000000000000e+02
0.000000000000000000e+00,1.000000000000000000e+00,0.000000000000000000e+00,2.000000000000000000e+00,6.240000000000000000e+02,2.977468967437744141e-01,1.688797950744628906e+00,3.898354583685731400e-01,0.000000000000000000e+00,0.000000000000000000e+00,1.110000000000000000e+02
1.000000000000000000e+00,1.000000000000000000e+00,1.000000000000000000e+00,4.000000000000000000e+00,6.270000000000000000e+02,2.964479923248291016e-01,1.710975170135498047e+00,4.175141480307397734e-01,0.000000000000000000e+00,0.000000000000000000e+00,1.110000000000000000e+02
1.000000000000000000e+00,1.000000000000000000e+00,1.000000000000000000e+00,3.000000000000000000e+00,6.290000000000000000e+02,3.668718338012695312e-01,1.937047004699707031e+00,5.711169022924031946e-01,0.000000000000000000e+00,0.000000000000000000e+00,1.110000000000000000e+02
0.000000000000000000e+00,0.000000000000000000e+00,1.000000000000000000e+00,0.000000000000000000e+00,6.280000000000000000e+02,2.786080837249755859e-01,1.558521032333374023e+00,2.800161676922581222e-01,0.000000000000000000e+00,1.000000000000000000e+00,1.120000000000000000e+02
0.000000000000000000e+00,1.000000000000000000e+00,0.000000000000000000e+00,1.000000000000000000e+00,6.280000000000000000e+02,3.316187858581542969e-01,1.785497903823852539e+00,4.653689082941576682e-01,0.000000000000000000e+00,1.000000000000000000e+00,1.110000000000000000e+02
0.000000000000000000e+00,0.000000000000000000e+00,1.000000000000000000e+00,0.000000000000000000e+00,6.270000000000000000e+02,2.437000274658203125e-01,1.797940015792846680e+00,5.633060781517402749e-01,1.000000000000000000e+00,1.000000000000000000e+00,1.120000000000000000e+02
0.000000000000000000e+00,0.000000000000000000e+00,1.000000000000000000e+00,0.000000000000000000e+00,6.260000000000000000e+02,1.534349918365478516e-01,1.697765827178955078e+00,5.611071855759388605e-01,0.000000000000000000e+00,0.000000000000000000e+00,1.120000000000000000e+02
1.000000000000000000e+00,1.000000000000000000e+00,1.000000000000000000e+00,2.000000000000000000e+00,6.270000000000000000e+02,2.354178428649902344e-01,1.629323959350585938e+00,4.073147007158431365e-01,0.000000000000000000e+00,0.000000000000000000e+00,1.120000000000000000e+02
1.000000000000000000e+00,0.000000000000000000e+00,0.000000000000000000e+00,0.000000000000000000e+00,6.260000000000000000e+02,2.992269992828369141e-01,1.808170080184936523e+00,5.154505715361200613e-01,0.000000000000000000e+00,1.000000000000000000e+00,1.110000000000000000e+02
0.000000000000000000e+00,1.000000000000000000e+00,0.000000000000000000e+00,2.000000000000000000e+00,6.270000000000000000e+02,2.626678943634033203e-01,1.720735073089599609e+00,4.529629619380644567e-01,0.000000000000000000e+00,0.000000000000000000e+00,1.110000000000000000e+02
1.000000000000000000e+00,0.000000000000000000e+00,0.000000000000000000e+00,0.000000000000000000e+00,6.260000000000000000e+02,2.830140590667724609e-01,1.910237073898315430e+00,6.297450153374926085e-01,0.000000000000000000e+00,1.000000000000000000e+00,1.120000000000000000e+02
1.000000000000000000e+00,1.000000000000000000e+00,1.000000000000000000e+00,2.000000000000000000e+00,6.270000000000000000e+02,3.100829124450683594e-01,1.632905960083007812e+00,3.463541847519747141e-01,0.000000000000000000e+00,0.000000000000000000e+00,1.120000000000000000e+02
1.000000000000000000e+00,1.000000000000000000e+00,1.000000000000000000e+00,2.000000000000000000e+00,6.280000000000000000e+02,4.197840690612792969e-01,2.136330127716064453e+00,7.323916853645275893e-01,0.000000000000000000e+00,0.000000000000000000e+00,1.120000000000000000e+02
1.000000000000000000e+00,1.000000000000000000e+00,1.000000000000000000e+00,3.000000000000000000e+00,6.300000000000000000e+02,2.308959960937500000e-01,1.855537891387939453e+00,6.214263214657429479e-01,0.000000000000000000e+00,0.000000000000000000e+00,1.120000000000000000e+02
0.000000000000000000e+00,0.000000000000000000e+00,1.000000000000000000e+00,0.000000000000000000e+00,6.290000000000000000e+02,3.169929981231689453e-01,1.689347028732299805e+00,3.777348293041327687e-01,0.000000000000000000e+00,1.000000000000000000e+00,1.110000000000000000e+02
0.000000000000000000e+00,0.000000000000000000e+00,1.000000000000000000e+00,0.000000000000000000e+00,6.280000000000000000e+02,3.166680335998535156e-01,1.658354997634887695e+00,3.528322934017017465e-01,0.000000000000000000e+00,1.000000000000000000e+00,1.120000000000000000e+02
1.000000000000000000e+00,0.000000000000000000e+00,0.000000000000000000e+00,0.000000000000000000e+00,6.270000000000000000e+02,2.779979705810546875e-01,1.794727087020874023e+00,5.307986405921978346e-01,0.000000000000000000e+00,1.000000000000000000e+00,1.110000000000000000e+02
0.000000000000000000e+00,0.000000000000000000e+00,1.000000000000000000e+00,0.000000000000000000e+00,6.260000000000000000e+02,3.187129497528076172e-01,2.022279977798461914e+00,7.196324599398410404e-01,0.000000000000000000e+00,0.000000000000000000e+00,1.110000000000000000e+02
1.000000000000000000e+00,1.000000000000000000e+00,1.000000000000000000e+00,4.000000000000000000e+00,6.290000000000000000e+02,1.964170932769775391e-01,1.931171178817749023e+00,7.341440707192525839e-01,0.000000000000000000e+00,1.000000000000000000e+00,1.120000000000000000e+02
0.000000000000000000e+00,1.000000000000000000e+00,0.000000000000000000e+00,2.000000000000000000e+00,6.300000000000000000e+02,2.832131385803222656e-01,1.697816848754882812e+00,4.157015106299159490e-01,0.000000000000000000e+00,0.000000000000000000e+00,1.120000000000000000e+02
0.000000000000000000e+00,1.000000000000000000e+00,0.000000000000000000e+00,4.000000000000000000e+00,6.330000000000000000e+02,3.173260688781738281e-01,1.617810964584350586e+00,3.003709720418257789e-01,0.000000000000000000e+00,0.000000000000000000e+00,1.120000000000000000e+02
0.000000000000000000e+00,1.000000000000000000e+00,0.000000000000000000e+00,1.000000000000000000e+00,6.330000000000000000e+02,3.496971130371093750e-01,2.019124984741210938e+00,6.691683040883165123e-01,0.000000000000000000e+00,0.000000000000000000e+00,1.120000000000000000e+02
0.000000000000000000e+00,1.000000000000000000e+00,0.000000000000000000e+00,3.000000000000000000e+00,6.350000000000000000e+02,3.841309547424316406e-01,1.865314960479736328e+00,4.847431036816202687e-01,0.000000000000000000e+00,0.000000000000000000e+00,1.120000000000000000e+02
1.000000000000000000e+00,1.000000000000000000e+00,1.000000000000000000e+00,2.000000000000000000e+00,6.360000000000000000e+02,2.744829654693603516e-01,1.709619045257568359e+00,4.444669633526699415e-01,0.000000000000000000e+00,0.000000000000000000e+00,1.120000000000000000e+02
1.000000000000000000e+00,1.000000000000000000e+00,1.000000000000000000e+00,3.000000000000000000e+00,6.380000000000000000e+02,3.036601543426513672e-01,1.546548128128051758e+00,2.579932211929235608e-01,0.000000000000000000e+00,0.000000000000000000e+00,1.120000000000000000e+02
0.000000000000000000e+00,1.000000000000000000e+00,0.000000000000000000e+00,4.000000000000000000e+00,6.410000000000000000e+02,3.136038780212402344e-01,1.851855039596557617e+00,5.428819368270406676e-01,0.000000000000000000e+00,0.000000000000000000e+00,1.120000000000000000e+02
1.000000000000000000e+00,1.000000000000000000e+00,1.000000000000000000e+00,2.000000000000000000e+00,6.420000000000000000e+02,2.105939388275146484e-01,1.556882858276367188e+00,3.666773988754054026e-01,0.000000000000000000e+00,0.000000000000000000e+00,1.120000000000000000e+02
1.000000000000000000e+00,1.000000000000000000e+00,1.000000000000000000e+00,3.000000000000000000e+00,6.440000000000000000e+02,3.259990215301513672e-01,1.579817056655883789e+00,2.633542323815088460e-01,0.000000000000000000e+00,0.000000000000000000e+00,1.120000000000000000e+02
0.000000000000000000e+00,0.000000000000000000e+00,1.000000000000000000e+00,0.000000000000000000e+00,6.430000000000000000e+02,3.014450073242187500e-01,1.862553119659423828e+00,5.756276699486180259e-01,0.000000000000000000e+00,1.000000000000000000e+00,1.110000000000000000e+02
0.000000000000000000e+00,0.000000000000000000e+00,1.000000000000000000e+00,0.000000000000000000e+00,6.420000000000000000e+02,3.298971652984619141e-01,1.957664012908935547e+00,6.332710489021509126e-01,0.000000000000000000e+00,1.000000000000000000e+00,1.120000000000000000e+02
1.000000000000000000e+00,0.000000000000000000e+00,0.000000000000000000e+00,0.000000000000000000e+00,6.410000000000000000e+02,2.762010097503662109e-01,1.700877904891967773e+00,4.344413960271507058e-01,0.000000000000000000e+00,1.000000000000000000e+00,1.110000000000000000e+02
1.000000000000000000e+00,1.000000000000000000e+00,1.000000000000000000e+00,5.000000000000000000e+00,6.450000000000000000e+02,4.953410625457763672e-01,2.022973060607910156e+00,5.240940970877725480e-01,0.000000000000000000e+00,0.000000000000000000e+00,1.110000000000000000e+02
1.000000000000000000e+00,0.000000000000000000e+00,0.000000000000000000e+00,0.000000000000000000e+00,6.440000000000000000e+02,3.147010803222656250e-01,1.573451042175292969e+00,2.645124358336740644e-01,0.000000000000000000e+00,1.000000000000000000e+00,1.120000000000000000e+02
0.000000000000000000e+00,0.000000000000000000e+00,1.000000000000000000e+00,0.000000000000000000e+00,6.430000000000000000e+02,3.280949592590332031e-01,1.819528102874755859e+00,5.171872287425296477e-01,0.000000000000000000e+00,0.000000000000000000e+00,1.120000000000000000e+02
1.000000000000000000e+00,1.000000000000000000e+00,1.000000000000000000e+00,4.000000000000000000e+00,6.460000000000000000e+02,2.618510723114013672e-01,1.969612121582031250e+00,7.033517666082564901e-01,0.000000000000000000e+00,0.000000000000000000e+00,1.120000000000000000e+02
1.000000000000000000e+00,1.000000000000000000e+00,1.000000000000000000e+00,4.000000000000000000e+00,6.490000000000000000e+02,3.292679786682128906e-01,1.629417896270751953e+00,3.165643249713228080e-01,0.000000000000000000e+00,0.000000000000000000e+00,1.120000000000000000e+02
1.000000000000000000e+00,1.000000000000000000e+00,1.000000000000000000e+00,2.000000000000000000e+00,6.500000000000000000e+02,3.909149169921875000e-01,1.858261108398437500e+00,4.746994535775228563e-01,0.000000000000000000e+00,0.000000000000000000e+00,1.120000000000000000e+02
1.000000000000000000e+00,1.000000000000000000e+00,1.000000000000000000e+00,3.000000000000000000e+00,6.520000000000000000e+02,3.559489250183105469e-01,1.787182807922363281e+00,4.453190709242721423e-01,0.000000000000000000e+00,1.000000000000000000e+00,1.110000000000000000e+02
0.000000000000000000e+00,0.000000000000000000e+00,1.000000000000000000e+00,0.000000000000000000e+00,6.510000000000000000e+02,2.508318424224853516e-01,1.668977975845336914e+00,4.310405660476224754e-01,0.000000000000000000e+00,1.000000000000000000e+00,1.120000000000000000e+02
0.000000000000000000e+00,0.000000000000000000e+00,1.000000000000000000e+00,0.000000000000000000e+00,6.500000000000000000e+02,3.702039718627929688e-01,1.621866941452026367e+00,2.698075586237263512e-01,0.000000000000000000e+00,1.000000000000000000e+00,1.110000000000000000e+02
0.000000000000000000e+00,1.000000000000000000e+00,0.000000000000000000e+00,2.000000000000000000e+00,6.510000000000000000e+02,4.848511219024658203e-01,1.938951969146728516e+00,4.586177182749597292e-01,0.000000000000000000e+00,0.000000000000000000e+00,1.110000000000000000e+02
1.000000000000000000e+00,0.000000000000000000e+00,0.000000000000000000e+00,0.000000000000000000e+00,6.500000000000000000e+02,2.505481243133544922e-01,1.561945199966430664e+00,3.207657535713467345e-01,0.000000000000000000e+00,1.000000000000000000e+00,1.120000000000000000e+02
1.000000000000000000e+00,0.000000000000000000e+00,0.000000000000000000e+00,0.000000000000000000e+00,6.490000000000000000e+02,2.299840450286865234e-01,1.698904991149902344e+00,4.695723298058150363e-01,0.000000000000000000e+00,1.000000000000000000e+00,1.110000000000000000e+02
1.000000000000000000e+00,1.000000000000000000e+00,1.000000000000000000e+00,1.000000000000000000e+00,6.490000000000000000e+02,3.300600051879882812e-01,1.608103036880493164e+00,2.779534849287325637e-01,0.000000000000000000e+00,0.000000000000000000e+00,1.110000000000000000e+02
1.000000000000000000e+00,1.000000000000000000e+00,1.000000000000000000e+00,3.000000000000000000e+00,6.510000000000000000e+02,7.641570568084716797e-01,2.186693906784057617e+00,4.312241070556795397e-01,0.000000000000000000e+00,0.000000000000000000e+00,1.110000000000000000e+02
0.000000000000000000e+00,0.000000000000000000e+00,1.000000000000000000e+00,0.000000000000000000e+00,6.500000000000000000e+02,3.449521064758300781e-01,1.691916942596435547e+00,3.566455762275372310e-01,0.000000000000000000e+00,1.000000000000000000e+00,1.120000000000000000e+02
1.000000000000000000e+00,1.000000000000000000e+00,1.000000000000000000e+00,1.000000000000000000e+00,6.500000000000000000e+02,2.919969558715820312e-01,1.532510995864868164e+00,2.560134641872870986e-01,0.000000000000000000e+00,0.000000000000000000e+00,1.120000000000000000e+02
0.000000000000000000e+00,1.000000000000000000e+00,0.000000000000000000e+00,5.000000000000000000e+00,6.540000000000000000e+02,3.797140121459960938e-01,2.013345956802368164e+00,6.356623918854669153e-01,0.000000000000000000e+00,0.000000000000000000e+00,1.120000000000000000e+02
0.000000000000000000e+00,0.000000000000000000e+00,1.000000000000000000e+00,0.000000000000000000e+00,6.530000000000000000e+02,3.670110702514648438e-01,2.015344142913818359e+00,6.510884217440923161e-01,1.000000000000000000e+00,1.000000000000000000e+00,1.110000000000000000e+02
1.000000000000000000e+00,0.000000000000000000e+00,0.000000000000000000e+00,0.000000000000000000e+00,6.520000000000000000e+02,3.004951477050781250e-01,1.564312934875488281e+00,2.658508653502961172e-01,0.000000000000000000e+00,1.000000000000000000e+00,1.120000000000000000e+02
0.000000000000000000e+00,1.000000000000000000e+00,0.000000000000000000e+00,1.000000000000000000e+00,6.520000000000000000e+02,3.108890056610107422e-01,1.872267961502075195e+00,5.711696652517908035e-01,0.000000000000000000e+00,0.000000000000000000e+00,1.120000000000000000e+02
1.000000000000000000e+00,0.000000000000000000e+00,0.000000000000000000e+00,0.000000000000000000e+00,6.510000000000000000e+02,3.652689456939697266e-01,1.958250999450683594e+00,5.961570590933513714e-01,0.000000000000000000e+00,0.000000000000000000e+00,1.120000000000000000e+02
0.000000000000000000e+00,0.000000000000000000e+00,1.000000000000000000e+00,0.000000000000000000e+00,6.500000000000000000e+02,2.173819541931152344e-01,1.939210176467895508e+00,7.352822909362779491e-01,0.000000000000000000e+00,1.000000000000000000e+00,1.110000000000000000e+02
1.000000000000000000e+00,1.000000000000000000e+00,1.000000000000000000e+00,2.000000000000000000e+00,6.510000000000000000e+02,2.544209957122802734e-01,1.655003786087036133e+00,4.073595609012345409e-01,0.000000000000000000e+00,0.000000000000000000e+00,1.110000000000000000e+02
0.000000000000000000e+00,1.000000000000000000e+00,0.000000000000000000e+00,2.000000000000000000e+00,6.520000000000000000e+02,3.074109554290771484e-01,1.892655849456787109e+00,5.998730631291597781e-01,0.000000000000000000e+00,0.000000000000000000e+00,1.110000000000000000e+02
1.000000000000000000e+00,0.000000000000000000e+00,0.000000000000000000e+00,0.000000000000000000e+00,6.510000000000000000e+02,2.624731063842773438e-01,1.915287971496582031e+00,6.485322244584549312e-01,0.000000000000000000e+00,1.000000000000000000e+00,1.120000000000000000e+02
0.000000000000000000e+00,0.000000000000000000e+00,1.000000000000000000e+00,0.000000000000000000e+00,6.500000000000000000e+02,3.033242225646972656e-01,1.878120899200439453e+00,5.601170532400066016e-01,0.000000000000000000e+00,1.000000000000000000e+00,1.110000000000000000e+02
1.000000000000000000e+00,0.000000000000000000e+00,0.000000000000000000e+00,0.000000000000000000e+00,6.490000000000000000e+02,3.732690811157226562e-01,1.913430929183959961e+00,5.569641382683316877e-01,0.000000000000000000e+00,0.000000000000000000e+00,1.110000000000000000e+02
0.000000000000000000e+00,1.000000000000000000e+00,0.000000000000000000e+00,1.000000000000000000e+00,6.490000000000000000e+02,3.097009658813476562e-01,1.821191072463989258e+00,5.282443781616522616e-01,0.000000000000000000e+00,0.000000000000000000e+00,1.110000000000000000e+02
1.000000000000000000e+00,1.000000000000000000e+00,1.000000000000000000e+00,3.000000000000000000e+00,6.510000000000000000e+02,3.891270160675048828e-01,1.706181049346923828e+00,3.347092347695205250e-01,0.000000000000000000e+00,0.000000000000000000e+00,1.110000000000000000e+02
0.000000000000000000e+00,1.000000000000000000e+00,0.000000000000000000e+00,1.000000000000000000e+00,6.510000000000000000e+02,2.875368595123291016e-01,1.946692943572998047e+00,6.644387187827718311e-01,0.000000000000000000e+00,0.000000000000000000e+00,1.110000000000000000e+02
0.000000000000000000e+00,1.000000000000000000e+00,0.000000000000000000e+00,2.000000000000000000e+00,6.520000000000000000e+02,3.862590789794921875e-01,1.710237979888916016e+00,3.417723460043642358e-01,0.000000000000000000e+00,0.000000000000000000e+00,1.110000000000000000e+02
1.000000000000000000e+00,1.000000000000000000e+00,1.000000000000000000e+00,2.000000000000000000e+00,6.530000000000000000e+02,3.777010440826416016e-01,1.997324943542480469e+00,6.388684572254426097e-01,0.000000000000000000e+00,0.000000000000000000e+00,1.110000000000000000e+02
0.000000000000000000e+00,0.000000000000000000e+00,1.000000000000000000e+00,0.000000000000000000e+00,6.520000000000000000e+02,2.807719707489013672e-01,2.011968135833740234e+00,7.341359813594516837e-01,0.000000000000000000e+00,1.000000000000000000e+00,1.120000000000000000e+02
1.000000000000000000e+00,0.000000000000000000e+00,0.000000000000000000e+00,0.000000000000000000e+00,6.510000000000000000e+02,2.421340942382812500e-01,1.759428024291992188e+00,5.271476694355077264e-01,0.000000000000000000e+00,1.000000000000000000e+00,1.110000000000000000e+02
1.000000000000000000e+00,1.000000000000000000e+00,1.000000000000000000e+00,2.000000000000000000e+00,6.520000000000000000e+02,2.432260513305664062e-01,1.934120893478393555e+00,7.111291585327148557e-01,0.000000000000000000e+00,0.000000000000000000e+00,1.110000000000000000e+02
1.000000000000000000e+00,1.000000000000000000e+00,1.000000000000000000e+00,3.000000000000000000e+00,6.540000000000000000e+02,3.779051303863525391e-01,1.849215984344482422e+00,4.940044288914521298e-01,0.000000000000000000e+00,0.000000000000000000e+00,1.110000000000000000e+02
1.000000000000000000e+00,1.000000000000000000e+00,1.000000000000000000e+00,3.000000000000000000e+00,6.560000000000000000e+02,3.169169425964355469e-01,1.647337913513183594e+00,3.415577923106181135e-01,0.000000000000000000e+00,0.000000000000000000e+00,1.110000000000000000e+02
0.000000000000000000e+00,1.000000000000000000e+00,0.000000000000000000e+00,3.000000000000000000e+00,6.580000000000000000e+02,2.979660034179687500e-01,1.726513862609863281e+00,4.346963643496870033e-01,0.000000000000000000e+00,0.000000000000000000e+00,1.110000000000000000e+02
0.000000000000000000e+00,1.000000000000000000e+00,0.000000000000000000e+00,2.000000000000000000e+00,6.590000000000000000e+02,3.627719879150390625e-01,1.852866172790527344e+00,4.875738208278239116e-01,0.000000000000000000e+00,0.000000000000000000e+00,1.110000000000000000e+02
0.000000000000000000e+00,1.000000000000000000e+00,0.000000000000000000e+00,4.000000000000000000e+00,6.620000000000000000e+02,2.908370494842529297e-01,1.625257015228271484e+00,3.463822677663213612e-01,0.000000000000000000e+00,0.000000000000000000e+00,1.110000000000000000e+02
1.000000000000000000e+00,0.000000000000000000e+00,0.000000000000000000e+00,0.000000000000000000e+00,6.610000000000000000e+02,3.093168735504150391e-01,1.689043998718261719e+00,4.021240666204510816e-01,0.000000000000000000e+00,1.000000000000000000e+00,1.120000000000000000e+02
1.000000000000000000e+00,1.000000000000000000e+00,1.000000000000000000e+00,2.000000000000000000e+00,6.620000000000000000e+02,2.992708683013916016e-01,1.961912155151367188e+00,6.638184013975310105e-01,0.000000000000000000e+00,0.000000000000000000e+00,1.120000000000000000e+02
0.000000000000000000e+00,0.000000000000000000e+00,1.000000000000000000e+00,0.000000000000000000e+00,6.610000000000000000e+02,3.323819637298583984e-01,1.829005956649780273e+00,5.096584850250871490e-01,0.000000000000000000e+00,1.000000000000000000e+00,1.110000000000000000e+02
1.000000000000000000e+00,0.000000000000000000e+00,0.000000000000000000e+00,0.000000000000000000e+00,6.600000000000000000e+02,2.460319995880126953e-01,1.542223930358886719e+00,3.188076430034135766e-01,0.000000000000000000e+00,1.000000000000000000e+00,1.120000000000000000e+02
1.000000000000000000e+00,1.000000000000000000e+00,1.000000000000000000e+00,4.000000000000000000e+00,6.630000000000000000e+02,3.061101436614990234e-01,1.841334819793701172e+00,5.433266637624630802e-01,0.000000000000000000e+00,0.000000000000000000e+00,1.120000000000000000e+02
1.000000000000000000e+00,0.000000000000000000e+00,0.000000000000000000e+00,0.000000000000000000e+00,6.620000000000000000e+02,3.988349437713623047e-01,1.780840873718261719e+00,3.910324590790822952e-01,0.000000000000000000e+00,1.000000000000000000e+00,1.110000000000000000e+02
0.000000000000000000e+00,1.000000000000000000e+00,0.000000000000000000e+00,1.000000000000000000e+00,6.620000000000000000e+02,4.616439342498779297e-01,2.068381071090698242e+00,6.259157139706226225e-01,0.000000000000000000e+00,1.000000000000000000e+00,1.120000000000000000e+02
1.000000000000000000e+00,0.000000000000000000e+00,0.000000000000000000e+00,0.000000000000000000e+00,6.610000000000000000e+02,3.029630184173583984e-01,1.561527967453002930e+00,2.711944942019615112e-01,0.000000000000000000e+00,1.000000000000000000e+00,1.110000000000000000e+02
1.000000000000000000e+00,1.000000000000000000e+00,1.000000000000000000e+00,1.000000000000000000e+00,6.610000000000000000e+02,2.402820587158203125e-01,1.735205888748168945e+00,5.062232156606049083e-01,0.000000000000000000e+00,0.000000000000000000e+00,1.110000000000000000e+02
1.000000000000000000e+00,1.000000000000000000e+00,1.000000000000000000e+00,1.000000000000000000e+00,6.610000000000000000e+02,2.711050510406494141e-01,1.779850006103515625e+00,5.194739802821521923e-01,0.000000000000000000e+00,0.000000000000000000e+00,1.110000000000000000e+02
0.000000000000000000e+00,0.000000000000000000e+00,1.000000000000000000e+00,0.000000000000000000e+00,6.600000000000000000e+02,3.507730960845947266e-01,1.691278934478759766e+00,3.443257324613048787e-01,0.000000000000000000e+00,1.000000000000000000e+00,1.120000000000000000e+02
1.000000000000000000e+00,1.000000000000000000e+00,1.000000000000000000e+00,4.000000000000000000e+00,6.630000000000000000e+02,3.634898662567138672e-01,2.068282127380371094e+00,7.123056822197202376e-01,0.000000000000000000e+00,1.000000000000000000e+00,1.110000000000000000e+02
1.000000000000000000e+00,1.000000000000000000e+00,1.000000000000000000e+00,3.000000000000000000e+00,6.650000000000000000e+02,3.989410400390625000e-01,1.994268894195556641e+00,6.067455040757846474e-01,0.000000000000000000e+00,0.000000000000000000e+00,1.110000000000000000e+02
1.000000000000000000e+00,1.000000000000000000e+00,1.000000000000000000e+00,2.000000000000000000e+00,6.660000000000000000e+02,2.790379524230957031e-01,1.772432804107666016e+00,4.960566572471278857e-01,0.000000000000000000e+00,0.000000000000000000e+00,1.110000000000000000e+02
0.000000000000000000e+00,1.000000000000000000e+00,0.000000000000000000e+00,3.000000000000000000e+00,6.680000000000000000e+02,3.074808120727539062e-01,1.909035921096801758e+00,6.216436375785154844e-01,0.000000000000000000e+00,0.000000000000000000e+00,1.110000000000000000e+02
1.000000000000000000e+00,1.000000000000000000e+00,1.000000000000000000e+00,2.000000000000000000e+00,6.690000000000000000e+02,2.608160972595214844e-01,1.855821132659912109e+00,6.108811723392875148e-01,0.000000000000000000e+00,0.000000000000000000e+00,1.110000000000000000e+02
0.000000000000000000e+00,0.000000000000000000e+00,1.000000000000000000e+00,0.000000000000000000e+00,6.680000000000000000e+02,2.919390201568603516e-01,1.611821889877319336e+00,3.397234666219598465e-01,1.000000000000000000e+00,1.000000000000000000e+00,1.120000000000000000e+02
1.000000000000000000e+00,1.000000000000000000e+00,1.000000000000000000e+00,3.000000000000000000e+00,6.700000000000000000e+02,2.352890968322753906e-01,1.803825139999389648e+00,5.766930126147894464e-01,0.000000000000000000e+00,0.000000000000000000e+00,1.120000000000000000e+02
0.000000000000000000e+00,0.000000000000000000e+00,1.000000000000000000e+00,0.000000000000000000e+00,6.690000000000000000e+02,3.093531131744384766e-01,2.029140949249267578e+00,7.390429546519408088e-01,0.000000000000000000e+00,1.000000000000000000e+00,1.110000000000000000e+02
0.000000000000000000e+00,1.000000000000000000e+00,0.000000000000000000e+00,3.000000000000000000e+00,6.710000000000000000e+02,2.390601634979248047e-01,1.886593103408813477e+00,6.591386718094081054e-01,0.000000000000000000e+00,1.000000000000000000e+00,1.120000000000000000e+02
1.000000000000000000e+00,1.000000000000000000e+00,1.000000000000000000e+00,3.000000000000000000e+00,6.730000000000000000e+02,2.847509384155273438e-01,1.585075855255126953e+00,3.113091665745948977e-01,0.000000000000000000e+00,0.000000000000000000e+00,1.120000000000000000e+02
1.000000000000000000e+00,0.000000000000000000e+00,0.000000000000000000e+00,0.000000000000000000e+00,6.720000000000000000e+02,3.165378570556640625e-01,1.870489120483398438e+00,5.649305126967902879e-01,0.000000000000000000e+00,1.000000000000000000e+00,1.110000000000000000e+02
0.000000000000000000e+00,1.000000000000000000e+00,0.000000000000000000e+00,3.000000000000000000e+00,6.740000000000000000e+02,3.088388442993164062e-01,1.969470024108886719e+00,6.843450252229910102e-01,0.000000000000000000e+00,1.000000000000000000e+00,1.120000000000000000e+02
0.000000000000000000e+00,1.000000000000000000e+00,0.000000000000000000e+00,2.000000000000000000e+00,6.750000000000000000e+02,2.946498394012451172e-01,1.682444095611572266e+00,3.838224046700587921e-01,0.000000000000000000e+00,0.000000000000000000e+00,1.120000000000000000e+02
0.000000000000000000e+00,1.000000000000000000e+00,0.000000000000000000e+00,4.000000000000000000e+00,6.780000000000000000e+02,3.283841609954833984e-01,1.669855833053588867e+00,3.538228507589096794e-01,0.000000000000000000e+00,0.000000000000000000e+00,1.120000000000000000e+02
0.000000000000000000e+00,1.000000000000000000e+00,0.000000000000000000e+00,3.000000000000000000e+00,6.800000000000000000e+02,2.676608562469482422e-01,1.874190807342529297e+00,6.115184221414319277e-01,0.000000000000000000e+00,0.000000000000000000e+00,1.120000000000000000e+02
0.000000000000000000e+00,1.000000000000000000e+00,0.000000000000000000e+00,2.000000000000000000e+00,6.810000000000000000e+02,3.502540588378906250e-01,1.904239892959594727e+00,5.654846673182375438e-01,0.000000000000000000e+00,0.000000000000000000e+00,1.120000000000000000e+02
0.000000000000000000e+00,1.000000000000000000e+00,0.000000000000000000e+00,2.000000000000000000e+00,6.820000000000000000e+02,2.075071334838867188e-01,1.737900972366333008e+00,5.367866422351759148e-01,0.000000000000000000e+00,0.000000000000000000e+00,1.120000000000000000e+02
1.000000000000000000e+00,1.000000000000000000e+00,1.000000000000000000e+00,3.000000000000000000e+00,6.840000000000000000e+02,3.153288364410400391e-01,1.587465047836303711e+00,2.746149082493996030e-01,0.000000000000000000e+00,0.000000000000000000e+00,1.120000000000000000e+02
0.000000000000000000e+00,1.000000000000000000e+00,0.000000000000000000e+00,1.000000000000000000e+00,6.840000000000000000e+02,2.600440979003906250e-01,1.765830993652343750e+00,5.235745847979242917e-01,0.000000000000000000e+00,0.000000000000000000e+00,1.120000000000000000e+02
1.000000000000000000e+00,1.000000000000000000e+00,1.000000000000000000e+00,1.000000000000000000e+00,6.840000000000000000e+02,2.582840919494628906e-01,1.544017076492309570e+00,3.012049404362120431e-01,0.000000000000000000e+00,0.000000000000000000e+00,1.120000000000000000e+02
0.000000000000000000e+00,0.000000000000000000e+00,1.000000000000000000e+00,0.000000000000000000e+00,6.830000000000000000e+02,3.224611282348632812e-01,2.062512874603271484e+00,7.466528276110702134e-01,0.000000000000000000e+00,0.000000000000000000e+00,1.120000000000000000e+02
1.000000000000000000e+00,0.000000000000000000e+00,0.000000000000000000e+00,0.000000000000000000e+00,6.820000000000000000e+02,2.285768985748291016e-01,1.541206836700439453e+00,3.216985961108632663e-01,0.000000000000000000e+00,1.000000000000000000e+00,1.110000000000000000e+02
1.000000000000000000e+00,0.000000000000000000e+00,0.000000000000000000e+00,0.000000000000000000e+00,6.810000000000000000e+02,3.315081596374511719e-01,1.744034051895141602e+00,4.156930018700664697e-01,0.000000000000000000e+00,1.000000000000000000e+00,1.120000000000000000e+02
0.000000000000000000e+00,1.000000000000000000e+00,0.000000000000000000e+00,2.000000000000000000e+00,6.820000000000000000e+02,2.376449108123779297e-01,1.966106176376342773e+00,7.315475278407872484e-01,0.000000000000000000e+00,0.000000000000000000e+00,1.120000000000000000e+02
1.000000000000000000e+00,1.000000000000000000e+00,1.000000000000000000e+00,3.000000000000000000e+00,6.840000000000000000e+02,2.527120113372802734e-01,1.798328876495361328e+00,5.634679951543009047e-01,0.000000000000000000e+00,0.000000000000000000e+00,1.120000000000000000e+02
0.000000000000000000e+00,1.000000000000000000e+00,0.000000000000000000e+00,3.000000000000000000e+00,6.860000000000000000e+02,3.087558746337890625e-01,1.952322006225585938e+00,6.657469435992933171e-01,0.000000000000000000e+00,0.000000000000000000e+00,1.120000000000000000e+02
0.000000000000000000e+00,0.000000000000000000e+00,1.000000000000000000e+00,0.000000000000000000e+00,6.850000000000000000e+02,3.151340484619140625e-01,1.752200126647949219e+00,4.349309363351581137e-01,0.000000000000000000e+00,1.000000000000000000e+00,1.110000000000000000e+02
1.000000000000000000e+00,1.000000000000000000e+00,1.000000000000000000e+00,2.000000000000000000e+00,6.860000000000000000e+02,2.393150329589843750e-01,1.640089035034179688e+00,4.084029150436992439e-01,0.000000000000000000e+00,0.000000000000000000e+00,1.110000000000000000e+02
1.000000000000000000e+00,0.000000000000000000e+00,0.000000000000000000e+00,0.000000000000000000e+00,6.850000000000000000e+02,3.879978656768798828e-01,1.726619958877563477e+00,3.518179647663691179e-01,0.000000000000000000e+00,1.000000000000000000e+00,1.120000000000000000e+02
1.000000000000000000e+00,1.000000000000000000e+00,1.000000000000000000e+00,3.000000000000000000e+00,6.870000000000000000e+02,2.786099910736083984e-01,1.618072032928466797e+00,3.366229892969248572e-01,0.000000000000000000e+00,0.000000000000000000e+00,1.120000000000000000e+02
1.000000000000000000e+00,0.000000000000000000e+00,0.000000000000000000e+00,0.000000000000000000e+00,6.860000000000000000e+02,4.020659923553466797e-01,2.064404964447021484e+00,6.674352509795276056e-01,0.000000000000000000e+00,1.000000000000000000e+00,1.110000000000000000e+02
0.000000000000000000e+00,0.000000000000000000e+00,1.000000000000000000e+00,0.000000000000000000e+00,6.850000000000000000e+02,3.036069869995117188e-01,2.009890794754028320e+00,7.106736880618562680e-01,0.000000000000000000e+00,1.000000000000000000e+00,1.120000000000000000e+02
1.000000000000000000e+00,1.000000000000000000e+00,1.000000000000000000e+00,3.000000000000000000e+00,6.870000000000000000e+02,2.425639629364013672e-01,1.555522918701171875e+00,3.333096067476160052e-01,0.000000000000000000e+00,1.000000000000000000e+00,1.110000000000000000e+02
1.000000000000000000e+00,0.000000000000000000e+00,0.000000000000000000e+00,0.000000000000000000e+00,6.860000000000000000e+02,4.279000759124755859e-01,1.820646047592163086e+00,4.039638913147256538e-01,0.000000000000000000e+00,1.000000000000000000e+00,1.120000000000000000e+02
1.000000000000000000e+00,0.000000000000000000e+00,0.000000000000000000e+00,0.000000000000000000e+00,6.850000000000000000e+02,2.883591651916503906e-01,1.768017053604125977e+00,4.886156602183753250e-01,1.000000000000000000e+00,1.000000000000000000e+00,1.110000000000000000e+02
1.000000000000000000e+00,1.000000000000000000e+00,1.000000000000000000e+00,3.000000000000000000e+00,6.870000000000000000e+02,3.357501029968261719e-01,1.875973939895629883e+00,5.479054563320799875e-01,0.000000000000000000e+00,0.000000000000000000e+00,1.110000000000000000e+02
1.000000000000000000e+00,1.000000000000000000e+00,1.000000000000000000e+00,2.000000000000000000e+00,6.880000000000000000e+02,3.541438579559326172e-01,1.713399171829223633e+00,3.782387982463112919e-01,0.000000000000000000e+00,0.000000000000000000e+00,1.110000000000000000e+02
1.000000000000000000e+00,0.000000000000000000e+00,0.000000000000000000e+00,0.000000000000000000e+00,6.870000000000000000e+02,2.975449562072753906e-01,1.757522821426391602e+00,4.690336210874342382e-01,0.000000000000000000e+00,1.000000000000000000e+00,1.120000000000000000e+02
0.000000000000000000e+00,1.000000000000000000e+00,0.000000000000000000e+00,4.000000000000000000e+00,6.900000000000000000e+02,3.489630222320556641e-01,1.649299860000610352e+00,3.019152594765146524e-01,0.000000000000000000e+00,0.000000000000000000e+00,1.120000000000000000e+02
1.000000000000000000e+00,1.000000000000000000e+00,1.000000000000000000e+00,2.000000000000000000e+00,6.910000000000000000e+02,4.899680614471435547e-01,1.774757146835327148e+00,2.934175018216580444e-01,0.000000000000000000e+00,0.000000000000000000e+00,1.120000000000000000e+02
1.000000000000000000e+00,0.000000000000000000e+00,0.000000000000000000e+00,0.000000000000000000e+00,6.900000000000000000e+02,3.863899707794189453e-01,1.723663806915283203e+00,3.504416306808734172e-01,0.000000000000000000e+00,1.000000000000000000e+00,1.110000000000000000e+02
1.000000000000000000e+00,1.000000000000000000e+00,1.000000000000000000e+00,4.000000000000000000e+00,6.930000000000000000e+02,2.190830707550048828e-01,1.961632013320922852e+00,7.450567542621133743e-01,0.000000000000000000e+00,0.000000000000000000e+00,1.110000000000000000e+02
0.000000000000000000e+00,1.000000000000000000e+00,0.000000000000000000e+00,3.000000000000000000e+00,6.950000000000000000e+02,2.711629867553710938e-01,1.747228860855102539e+00,4.925991454835968453e-01,0.000000000000000000e+00,0.000000000000000000e+00,1.110000000000000000e+02
1.000000000000000000e+00,0.000000000000000000e+00,0.000000000000000000e+00,0.000000000000000000e+00,6.940000000000000000e+02,3.312489986419677734e-01,1.605627059936523438e+00,2.818452136447225365e-01,0.000000000000000000e+00,0.000000000000000000e+00,1.110000000000000000e+02
0.000000000000000000e+00,1.000000000000000000e+00,0.000000000000000000e+00,2.000000000000000000e+00,6.950000000000000000e+02,4.772770404815673828e-01,1.766696929931640625e+00,3.152324176401592459e-01,0.000000000000000000e+00,0.000000000000000000e+00,1.110000000000000000e+02
0.000000000000000000e+00,1.000000000000000000e+00,0.000000000000000000e+00,4.000000000000000000e+00,6.980000000000000000e+02,4.037020206451416016e-01,2.115180969238281250e+00,7.300564817294046271e-01,0.000000000000000000e+00,0.000000000000000000e+00,1.110000000000000000e+02
1.000000000000000000e+00,1.000000000000000000e+00,1.000000000000000000e+00,1.000000000000000000e+00,6.980000000000000000e+02,2.460501194000244141e-01,1.701542854309082031e+00,4.818937070294199154e-01,0.000000000000000000e+00,0.000000000000000000e+00,1.110000000000000000e+02
0.000000000000000000e+00,0.000000000000000000e+00,1.000000000000000000e+00,0.000000000000000000e+00,6.970000000000000000e+02,3.358421325683593750e-01,1.907175064086914062e+00,5.557430753592962347e-01,0.000000000000000000e+00,0.000000000000000000e+00,1.110000000000000000e+02
0.000000000000000000e+00,1.000000000000000000e+00,0.000000000000000000e+00,1.000000000000000000e+00,6.970000000000000000e+02,4.545569419860839844e-01,1.813572168350219727e+00,3.695947551496288064e-01,0.000000000000000000e+00,0.000000000000000000e+00,1.110000000000000000e+02
0.000000000000000000e+00,1.000000000000000000e+00,0.000000000000000000e+00,2.000000000000000000e+00,6.980000000000000000e+02,3.629109859466552734e-01,2.111247062683105469e+00,7.472075461650469208e-01,0.000000000000000000e+00,0.000000000000000000e+00,1.110000000000000000e+02
0.000000000000000000e+00,1.000000000000000000e+00,0.000000000000000000e+00,3.000000000000000000e+00,7.000000000000000000e+02,3.250510692596435547e-01,1.557199954986572266e+00,2.549595964317422081e-01,0.000000000000000000e+00,0.000000000000000000e+00,1.110000000000000000e+02
1.000000000000000000e+00,0.000000000000000000e+00,0.000000000000000000e+00,0.000000000000000000e+00,6.990000000000000000e+02,3.782858848571777344e-01,1.922698020935058594e+00,5.607104672293687919e-01,0.000000000000000000e+00,1.000000000000000000e+00,1.120000000000000000e+02
1.000000000000000000e+00,0.000000000000000000e+00,0.000000000000000000e+00,0.000000000000000000e+00,6.980000000000000000e+02,3.457109928131103516e-01,1.661331176757812500e+00,3.223681158884989517e-01,0.000000000000000000e+00,1.000000000000000000e+00,1.110000000000000000e+02
0.000000000000000000e+00,1.000000000000000000e+00,0.000000000000000000e+00,2.000000000000000000e+00,6.990000000000000000e+02,3.011999130249023438e-01,1.724929809570312500e+00,4.305949725547467133e-01,0.000000000000000000e+00,0.000000000000000000e+00,1.110000000000000000e+02
1.000000000000000000e+00,1.000000000000000000e+00,1.000000000000000000e+00,2.000000000000000000e+00,7.000000000000000000e+02,2.735519409179687500e-01,1.959414958953857422e+00,7.064612521630269093e-01,0.000000000000000000e+00,0.000000000000000000e+00,1.110000000000000000e+02
0.000000000000000000e+00,1.000000000000000000e+00,0.000000000000000000e+00,3.000000000000000000e+00,7.020000000000000000e+02,3.218841552734375000e-01,1.966903924942016602e+00,6.568227600807217126e-01,0.000000000000000000e+00,0.000000000000000000e+00,1.110000000000000000e+02
0.000000000000000000e+00,0.000000000000000000e+00,1.000000000000000000e+00,0.000000000000000000e+00,7.010000000000000000e+02,3.673090934753417969e-01,2.044104099273681641e+00,6.843054487837757494e-01,0.000000000000000000e+00,1.000000000000000000e+00,1.120000000000000000e+02
1.000000000000000000e+00,1.000000000000000000e+00,1.000000000000000000e+00,3.000000000000000000e+00,7.030000000000000000e+02,2.294569015502929688e-01,1.863662958145141602e+00,6.315090404980148175e-01,0.000000000000000000e+00,1.000000000000000000e+00,1.110000000000000000e+02
1.000000000000000000e+00,1.000000000000000000e+00,1.000000000000000000e+00,2.000000000000000000e+00,7.040000000000000000e+02,3.054711818695068359e-01,1.607172012329101562e+00,3.223004924274821548e-01,0.000000000000000000e+00,0.000000000000000000e+00,1.110000000000000000e+02
1.000000000000000000e+00,1.000000000000000000e+00,1.000000000000000000e+00,1.000000000000000000e+00,7.040000000000000000e+02,4.778521060943603516e-01,2.153320074081420898e+00,6.919787798594745354e-01,0.000000000000000000e+00,0.000000000000000000e+00,1.110000000000000000e+02
1.000000000000000000e+00,1.000000000000000000e+00,1.000000000000000000e+00,2.000000000000000000e+00,7.050000000000000000e+02,3.129310607910156250e-01,1.837403059005737305e+00,5.296208422040364905e-01,0.000000000000000000e+00,0.000000000000000000e+00,1.110000000000000000e+02
0.000000000000000000e+00,0.000000000000000000e+00,1.000000000000000000e+00,0.000000000000000000e+00,7.040000000000000000e+02,2.856490612030029297e-01,1.933954000473022461e+00,6.634929247581333733e-01,0.000000000000000000e+00,1.000000000000000000e+00,1.120000000000000000e+02
1.000000000000000000e+00,1.000000000000000000e+00,1.000000000000000000e+00,1.000000000000000000e+00,7.040000000000000000e+02,2.753701210021972656e-01,1.833549022674560547e+00,5.805192374441814351e-01,0.000000000000000000e+00,0.000000000000000000e+00,1.120000000000000000e+02
0.000000000000000000e+00,0.000000000000000000e+00,1.000000000000000000e+00,0.000000000000000000e+00,7.030000000000000000e+02,3.190889358520507812e-01,1.654335975646972656e+00,3.518464501046315029e-01,0.000000000000000000e+00,1.000000000000000000e+00,1.110000000000000000e+02
1.000000000000000000e+00,1.000000000000000000e+00,1.000000000000000000e+00,3.000000000000000000e+00,7.050000000000000000e+02,3.295390605926513672e-01,1.836919784545898438e+00,5.053152940467841026e-01,0.000000000000000000e+00,0.000000000000000000e+00,1.110000000000000000e+02
1.000000000000000000e+00,1.000000000000000000e+00,1.000000000000000000e+00,3.000000000000000000e+00,7.070000000000000000e+02,3.423149585723876953e-01,1.893851995468139648e+00,5.658302199999207804e-01,0.000000000000000000e+00,0.000000000000000000e+00,1.110000000000000000e+02
0.000000000000000000e+00,1.000000000000000000e+00,0.000000000000000000e+00,4.000000000000000000e+00,7.100000000000000000e+02,3.003239631652832031e-01,1.799086809158325195e+00,4.983875908727209425e-01,0.000000000000000000e+00,0.000000000000000000e+00,1.110000000000000000e+02
0.000000000000000000e+00,1.000000000000000000e+00,0.000000000000000000e+00,1.000000000000000000e+00,7.100000000000000000e+02,3.141040802001953125e-01,1.879768848419189453e+00,5.781518588498881783e-01,0.000000000000000000e+00,0.000000000000000000e+00,1.110000000000000000e+02
0.000000000000000000e+00,1.000000000000000000e+00,0.000000000000000000e+00,3.000000000000000000e+00,7.120000000000000000e+02,2.878038883209228516e-01,1.976068019866943359e+00,7.041790570641084379e-01,0.000000000000000000e+00,0.000000000000000000e+00,1.110000000000000000e+02
1.000000000000000000e+00,0.000000000000000000e+00,0.000000000000000000e+00,0.000000000000000000e+00,7.110000000000000000e+02,2.625520229339599609e-01,1.858386993408203125e+00,5.960710496514547430e-01,0.000000000000000000e+00,1.000000000000000000e+00,1.120000000000000000e+02
0.000000000000000000e+00,0.000000000000000000e+00,1.000000000000000000e+00,0.000000000000000000e+00,7.100000000000000000e+02,2.656400203704833984e-01,1.522603034973144531e+00,2.690684222934938696e-01,0.000000000000000000e+00,1.000000000000000000e+00,1.110000000000000000e+02
0.000000000000000000e+00,0.000000000000000000e+00,1.000000000000000000e+00,0.000000000000000000e+00,7.090000000000000000e+02,4.692990779876708984e-01,2.085331201553344727e+00,6.207851764652294602e-01,0.000000000000000000e+00,1.000000000000000000e+00,1.120000000000000000e+02
0.000000000000000000e+00,0.000000000000000000e+00,1.000000000000000000e+00,0.000000000000000000e+00,7.080000000000000000e+02,3.110771179199218750e-01,1.949947834014892578e+00,6.540648859936899484e-01,0.000000000000000000e+00,1.000000000000000000e+00,1.110000000000000000e+02
0.000000000000000000e+00,0.000000000000000000e+00,1.000000000000000000e+00,0.000000000000000000e+00,7.070000000000000000e+02,6.092009544372558594e-01,2.332695960998535156e+00,7.367627880394667095e-01,0.000000000000000000e+00,1.000000000000000000e+00,1.120000000000000000e+02
1.000000000000000000e+00,0.000000000000000000e+00,0.000000000000000000e+00,0.000000000000000000e+00,7.060000000000000000e+02,4.948980808258056641e-01,2.110920906066894531e+00,6.312509657869884716e-01,0.000000000000000000e+00,0.000000000000000000e+00,1.120000000000000000e+02
0.000000000000000000e+00,0.000000000000000000e+00,1.000000000000000000e+00,0.000000000000000000e+00,7.050000000000000000e+02,2.499918937683105469e-01,1.693119049072265625e+00,4.579219840994176449e-01,0.000000000000000000e+00,1.000000000000000000e+00,1.110000000000000000e+02
1.000000000000000000e+00,0.000000000000000000e+00,0.000000000000000000e+00,0.000000000000000000e+00,7.040000000000000000e+02,4.292130470275878906e-01,2.013945102691650391e+00,5.884681393845261344e-01,0.000000000000000000e+00,0.000000000000000000e+00,1.110000000000000000e+02
0.000000000000000000e+00,0.000000000000000000e+00,1.000000000000000000e+00,0.000000000000000000e+00,7.030000000000000000e+02,2.684800624847412109e-01,1.905234098434448242e+00,6.437269852124196667e-01,0.000000000000000000e+00,1.000000000000000000e+00,1.120000000000000000e+02
1.000000000000000000e+00,1.000000000000000000e+00,1.000000000000000000e+00,4.000000000000000000e+00,7.060000000000000000e+02,7.205190658569335938e-01,2.201650857925415039e+00,4.955946259961250822e-01,0.000000000000000000e+00,1.000000000000000000e+00,1.110000000000000000e+02
1.000000000000000000e+00,1.000000000000000000e+00,1.000000000000000000e+00,3.000000000000000000e+00,7.080000000000000000e+02,2.577011585235595703e-01,1.604310989379882812e+00,3.667801068735674908e-01,0.000000000000000000e+00,0.000000000000000000e+00,1.110000000000000000e+02
0.000000000000000000e+00,1.000000000000000000e+00,0.000000000000000000e+00,2.000000000000000000e+00,7.090000000000000000e+02,2.720458507537841797e-01,1.745508909225463867e+00,4.788763793335104602e-01,0.000000000000000000e+00,0.000000000000000000e+00,1.110000000000000000e+02
1.000000000000000000e+00,1.000000000000000000e+00,1.000000000000000000e+00,2.000000000000000000e+00,7.100000000000000000e+02,2.336781024932861328e-01,1.580480098724365234e+00,3.595524794296127702e-01,0.000000000000000000e+00,0.000000000000000000e+00,1.110000000000000000e+02
0.000000000000000000e+00,1.000000000000000000e+00,0.000000000000000000e+00,2.000000000000000000e+00,7.110000000000000000e+02,2.403960227966308594e-01,1.630175113677978516e+00,4.063898959151170387e-01,0.000000000000000000e+00,0.000000000000000000e+00,1.110000000000000000e+02
1.000000000000000000e+00,1.000000000000000000e+00,1.000000000000000000e+00,1.000000000000000000e+00,7.110000000000000000e+02,2.311670780181884766e-01,1.559240818023681641e+00,3.324514110369863329e-01,1.000000000000000000e+00,0.000000000000000000e+00,1.110000000000000000e+02
0.000000000000000000e+00,0.000000000000000000e+00,1.000000000000000000e+00,0.000000000000000000e+00,7.100000000000000000e+02,2.735719680786132812e-01,1.836768150329589844e+00,5.690291249942482921e-01,0.000000000000000000e+00,1.000000000000000000e+00,1.120000000000000000e+02
1.000000000000000000e+00,1.000000000000000000e+00,1.000000000000000000e+00,3.000000000000000000e+00,7.120000000000000000e+02,3.072738647460937500e-01,1.600479125976562500e+00,3.031921762160209033e-01,0.000000000000000000e+00,0.000000000000000000e+00,1.120000000000000000e+02
0.000000000000000000e+00,1.000000000000000000e+00,0.000000000000000000e+00,1.000000000000000000e+00,7.120000000000000000e+02,2.933819293975830078e-01,1.634681940078735352e+00,3.545385392788983348e-01,0.000000000000000000e+00,0.000000000000000000e+00,1.120000000000000000e+02
0.000000000000000000e+00,1.000000000000000000e+00,0.000000000000000000e+00,4.000000000000000000e+00,7.150000000000000000e+02,3.200240135192871094e-01,1.934905052185058594e+00,6.225707292855054975e-01,0.000000000000000000e+00,0.000000000000000000e+00,1.120000000000000000e+02
1.000000000000000000e+00,1.000000000000000000e+00,1.000000000000000000e+00,3.000000000000000000e+00,7.170000000000000000e+02,3.039331436157226562e-01,1.816275119781494141e+00,5.223172292526745419e-01,0.000000000000000000e+00,0.000000000000000000e+00,1.120000000000000000e+02
1.000000000000000000e+00,1.000000000000000000e+00,1.000000000000000000e+00,3.000000000000000000e+00,7.190000000000000000e+02,2.721908092498779297e-01,1.983824014663696289e+00,7.227039533225321222e-01,0.000000000000000000e+00,0.000000000000000000e+00,1.120000000000000000e+02
1.000000000000000000e+00,0.000000000000000000e+00,0.000000000000000000e+00,0.000000000000000000e+00,7.180000000000000000e+02,2.201099395751953125e-01,1.476688861846923828e+00,2.665833397212422073e-01,0.000000000000000000e+00,1.000000000000000000e+00,1.110000000000000000e+02
1.000000000000000000e+00,1.000000000000000000e+00,1.000000000000000000e+00,1.000000000000000000e+00,7.180000000000000000e+02,2.856481075286865234e-01,1.650910139083862305e+00,3.674521507868230841e-01,0.000000000000000000e+00,0.000000000000000000e+00,1.110000000000000000e+02
1.000000000000000000e+00,0.000000000000000000e+00,0.000000000000000000e+00,0.000000000000000000e+00,7.170000000000000000e+02,3.006930351257324219e-01,1.826169967651367188e+00,5.268536063465196762e-01,0.000000000000000000e+00,1.000000000000000000e+00,1.120000000000000000e+02
1.000000000000000000e+00,1.000000000000000000e+00,1.000000000000000000e+00,3.000000000000000000e+00,7.190000000000000000e+02,2.592549324035644531e-01,1.552267074584960938e+00,3.127322599229483968e-01,0.000000000000000000e+00,0.000000000000000000e+00,1.120000000000000000e+02
0.000000000000000000e+00,1.000000000000000000e+00,0.000000000000000000e+00,3.000000000000000000e+00,7.210000000000000000e+02,3.351371288299560547e-01,1.883004903793334961e+00,5.622093124962841415e-01,0.000000000000000000e+00,0.000000000000000000e+00,1.120000000000000000e+02
0.000000000000000000e+00,1.000000000000000000e+00,0.000000000000000000e+00,3.000000000000000000e+00,7.230000000000000000e+02,2.568941116333007812e-01,1.752140045166015625e+00,5.144598015416916859e-01,0.000000000000000000e+00,0.000000000000000000e+00,1.120000000000000000e+02
1.000000000000000000e+00,1.000000000000000000e+00,1.000000000000000000e+00,2.000000000000000000e+00,7.240000000000000000e+02,2.399280071258544922e-01,1.753624200820922852e+00,5.348125815365054603e-01,0.000000000000000000e+00,0.000000000000000000e+00,1.120000000000000000e+02
1.000000000000000000e+00,1.000000000000000000e+00,1.000000000000000000e+00,4.000000000000000000e+00,7.270000000000000000e+02,2.054629325866699219e-01,1.688350915908813477e+00,4.901297178497625029e-01,0.000000000000000000e+00,0.000000000000000000e+00,1.120000000000000000e+02
1.000000000000000000e+00,1.000000000000000000e+00,1.000000000000000000e+00,3.000000000000000000e+00,7.290000000000000000e+02,3.070948123931884766e-01,1.883031129837036133e+00,5.895520669743219422e-01,0.000000000000000000e+00,0.000000000000000000e+00,1.120000000000000000e+02
0.000000000000000000e+00,1.000000000000000000e+00,0.000000000000000000e+00,2.000000000000000000e+00,7.300000000000000000e+02,3.837950229644775391e-01,1.656928062438964844e+00,2.802274395726581102e-01,0.000000000000000000e+00,0.000000000000000000e+00,1.120000000000000000e+02
0.000000000000000000e+00,1.000000000000000000e+00,0.000000000000000000e+00,3.000000000000000000e+00,7.320000000000000000e+02,3.568229675292968750e-01,1.788079023361206055e+00,4.515387865611033003e-01,0.000000000000000000e+00,0.000000000000000000e+00,1.120000000000000000e+02
0.000000000000000000e+00,0.000000000000000000e+00,1.000000000000000000e+00,0.000000000000000000e+00,7.310000000000000000e+02,2.418668270111083984e-01,1.939946889877319336e+00,7.079306035211522241e-01,0.000000000000000000e+00,1.000000000000000000e+00,1.110000000000000000e+02
1.000000000000000000e+00,0.000000000000000000e+00,0.000000000000000000e+00,0.000000000000000000e+00,7.300000000000000000e+02,2.326240539550781250e-01,1.895675182342529297e+00,6.703870118087095209e-01,0.000000000000000000e+00,1.000000000000000000e+00,1.120000000000000000e+02
0.000000000000000000e+00,1.000000000000000000e+00,0.000000000000000000e+00,3.000000000000000000e+00,7.320000000000000000e+02,4.137141704559326172e-01,1.753427028656005859e+00,3.408690426800759510e-01,0.000000000000000000e+00,0.000000000000000000e+00,1.120000000000000000e+02
0.000000000000000000e+00,0.000000000000000000e+00,1.000000000000000000e+00,0.000000000000000000e+00,7.310000000000000000e+02,2.527420520782470703e-01,1.785800933837890625e+00,5.431899089139213821e-01,0.000000000000000000e+00,1.000000000000000000e+00,1.110000000000000000e+02
1.000000000000000000e+00,1.000000000000000000e+00,1.000000000000000000e+00,5.000000000000000000e+00,7.350000000000000000e+02,2.874128818511962891e-01,2.020512104034423828e+00,7.469181021780235685e-01,0.000000000000000000e+00,1.000000000000000000e+00,1.120000000000000000e+02
1.000000000000000000e+00,1.000000000000000000e+00,1.000000000000000000e+00,3.000000000000000000e+00,7.370000000000000000e+02,2.819321155548095703e-01,1.983751058578491211e+00,7.141008425539667748e-01,0.000000000000000000e+00,0.000000000000000000e+00,1.120000000000000000e+02
1.000000000000000000e+00,0.000000000000000000e+00,0.000000000000000000e+00,0.000000000000000000e+00,7.360000000000000000e+02,2.236549854278564453e-01,1.877412080764770508e+00,6.749508357641413880e-01,0.000000000000000000e+00,1.000000000000000000e+00,1.110000000000000000e+02
0.000000000000000000e+00,0.000000000000000000e+00,1.000000000000000000e+00,0.000000000000000000e+00,7.350000000000000000e+02,2.813739776611328125e-01,1.558066844940185547e+00,2.834817513868063132e-01,0.000000000000000000e+00,1.000000000000000000e+00,1.120000000000000000e+02
1.000000000000000000e+00,0.000000000000000000e+00,0.000000000000000000e+00,0.000000000000000000e+00,7.340000000000000000e+02,3.097560405731201172e-01,1.617478132247924805e+00,3.176543227117578083e-01,0.000000000000000000e+00,0.000000000000000000e+00,1.120000000000000000e+02
0.000000000000000000e+00,0.000000000000000000e+00,1.000000000000000000e+00,0.000000000000000000e+00,7.330000000000000000e+02,2.541189193725585938e-01,1.799789905548095703e+00,5.506001228260088975e-01,0.000000000000000000e+00,0.000000000000000000e+00,1.120000000000000000e+02
0.000000000000000000e+00,1.000000000000000000e+00,0.000000000000000000e+00,2.000000000000000000e+00,7.340000000000000000e+02,3.341438770294189453e-01,2.063444137573242188e+00,7.305671830080572304e-01,0.000000000000000000e+00,0.000000000000000000e+00,1.120000000000000000e+02
0.000000000000000000e+00,1.000000000000000000e+00,0.000000000000000000e+00,1.000000000000000000e+00,7.340000000000000000e+02,2.712550163269042969e-01,1.503469944000244141e+00,2.513011090053889340e-01,0.000000000000000000e+00,0.000000000000000000e+00,1.120000000000000000e+02
0.000000000000000000e+00,1.000000000000000000e+00,0.000000000000000000e+00,3.000000000000000000e+00,7.360000000000000000e+02,3.246111869812011719e-01,1.970468997955322266e+00,6.547314521019106381e-01,0.000000000000000000e+00,0.000000000000000000e+00,1.120000000000000000e+02
1.000000000000000000e+00,1.000000000000000000e+00,1.000000000000000000e+00,3.000000000000000000e+00,7.380000000000000000e+02,2.830028533935546875e-01,1.656563997268676758e+00,3.783153048946241159e-01,0.000000000000000000e+00,0.000000000000000000e+00,1.120000000000000000e+02
0.000000000000000000e+00,1.000000000000000000e+00,0.000000000000000000e+00,4.000000000000000000e+00,7.410000000000000000e+02,2.661569118499755859e-01,1.984133958816528320e+00,7.288313080977232294e-01,0.000000000000000000e+00,0.000000000000000000e+00,1.120000000000000000e+02
0.000000000000000000e+00,1.000000000000000000e+00,0.000000000000000000e+00,3.000000000000000000e+00,7.430000000000000000e+02,3.368780612945556641e-01,2.024589061737060547e+00,7.034990141753899584e-01,0.000000000000000000e+00,0.000000000000000000e+00,1.120000000000000000e+02
0.000000000000000000e+00,1.000000000000000000e+00,0.000000000000000000e+00,3.000000000000000000e+00,7.450000000000000000e+02,3.085057735443115234e-01,2.044178009033203125e+00,7.476822620158452004e-01,0.000000000000000000e+00,0.000000000000000000e+00,1.120000000000000000e+02
1.000000000000000000e+00,1.000000000000000000e+00,1.000000000000000000e+00,3.000000000000000000e+00,7.470000000000000000e+02,4.602239131927490234e-01,1.892155885696411133e+00,4.568766388326303551e-01,0.000000000000000000e+00,0.000000000000000000e+00,1.120000000000000000e+02
0.000000000000000000e+00,0.000000000000000000e+00,1.000000000000000000e+00,0.000000000000000000e+00,7.460000000000000000e+02,2.583839893341064453e-01,1.772848129272460938e+00,5.297422205725301758e-01,0.000000000000000000e+00,1.000000000000000000e+00,1.110000000000000000e+02
0.000000000000000000e+00,0.000000000000000000e+00,1.000000000000000000e+00,0.000000000000000000e+00,7.450000000000000000e+02,3.088231086730957031e-01,1.586308002471923828e+00,2.996783635172774463e-01,1.000000000000000000e+00,1.000000000000000000e+00,1.120000000000000000e+02
1.000000000000000000e+00,1.000000000000000000e+00,1.000000000000000000e+00,1.000000000000000000e+00,7.450000000000000000e+02,3.447852134704589844e-01,1.672194004058837891e+00,3.385642498109579512e-01,0.000000000000000000e+00,0.000000000000000000e+00,1.120000000000000000e+02
1.000000000000000000e+00,0.000000000000000000e+00,0.000000000000000000e+00,0.000000000000000000e+00,7.440000000000000000e+02,2.662508487701416016e-01,1.653944015502929688e+00,3.924971524478359508e-01,0.000000000000000000e+00,1.000000000000000000e+00,1.110000000000000000e+02
1.000000000000000000e+00,1.000000000000000000e+00,1.000000000000000000e+00,4.000000000000000000e+00,7.470000000000000000e+02,2.522969245910644531e-01,1.959602117538452148e+00,7.185129447541578340e-01,0.000000000000000000e+00,0.000000000000000000e+00,1.110000000000000000e+02
0.000000000000000000e+00,1.000000000000000000e+00,0.000000000000000000e+00,5.000000000000000000e+00,7.510000000000000000e+02,2.387452125549316406e-01,1.939168930053710938e+00,7.077356326276564857e-01,0.000000000000000000e+00,0.000000000000000000e+00,1.110000000000000000e+02
0.000000000000000000e+00,1.000000000000000000e+00,0.000000000000000000e+00,2.000000000000000000e+00,7.520000000000000000e+02,3.294360637664794922e-01,1.938158035278320312e+00,6.127492219318022570e-01,0.000000000000000000e+00,0.000000000000000000e+00,1.110000000000000000e+02
1.000000000000000000e+00,1.000000000000000000e+00,1.000000000000000000e+00,3.000000000000000000e+00,7.540000000000000000e+02,3.121981620788574219e-01,1.617077112197875977e+00,3.135445030723649773e-01,0.000000000000000000e+00,0.000000000000000000e+00,1.110000000000000000e+02
1.000000000000000000e+00,1.000000000000000000e+00,1.000000000000000000e+00,1.000000000000000000e+00,7.540000000000000000e+02,4.205610752105712891e-01,1.837548971176147461e+00,4.343548435991731460e-01,0.000000000000000000e+00,0.000000000000000000e+00,1.110000000000000000e+02
1.000000000000000000e+00,1.000000000000000000e+00,1.000000000000000000e+00,1.000000000000000000e+00,7.540000000000000000e+02,2.826170921325683594e-01,1.616226911544799805e+00,3.341958265113327275e-01,0.000000000000000000e+00,0.000000000000000000e+00,1.110000000000000000e+02
1.000000000000000000e+00,1.000000000000000000e+00,1.000000000000000000e+00,3.000000000000000000e+00,7.560000000000000000e+02,3.099920749664306641e-01,1.623361110687255859e+00,3.241798075764085185e-01,0.000000000000000000e+00,0.000000000000000000e+00,1.110000000000000000e+02
1.000000000000000000e+00,1.000000000000000000e+00,1.000000000000000000e+00,2.000000000000000000e+00,7.570000000000000000e+02,3.083930015563964844e-01,1.926302909851074219e+00,6.335641358328087946e-01,0.000000000000000000e+00,0.000000000000000000e+00,1.110000000000000000e+02
1.000000000000000000e+00,1.000000000000000000e+00,1.000000000000000000e+00,2.000000000000000000e+00,7.580000000000000000e+02,2.441048622131347656e-01,1.684195995330810547e+00,4.513206161591580834e-01,0.000000000000000000e+00,0.000000000000000000e+00,1.110000000000000000e+02
1.000000000000000000e+00,1.000000000000000000e+00,1.000000000000000000e+00,3.000000000000000000e+00,7.600000000000000000e+02,2.458539009094238281e-01,1.763807058334350586e+00,5.150539361007390182e-01,0.000000000000000000e+00,0.000000000000000000e+00,1.110000000000000000e+02
1.000000000000000000e+00,1.000000000000000000e+00,1.000000000000000000e+00,2.000000000000000000e+00,7.610000000000000000e+02,2.549290657043457031e-01,1.921206951141357422e+00,6.862706730787296872e-01,0.000000000000000000e+00,0.000000000000000000e+00,1.110000000000000000e+02
1.000000000000000000e+00,1.000000000000000000e+00,1.000000000000000000e+00,1.000000000000000000e+00,7.610000000000000000e+02,2.286589145660400391e-01,1.863822937011718750e+00,6.501645958978561346e-01,0.000000000000000000e+00,0.000000000000000000e+00,1.110000000000000000e+02
1.000000000000000000e+00,1.000000000000000000e+00,1.000000000000000000e+00,2.000000000000000000e+00,7.620000000000000000e+02,1.760768890380859375e-01,1.695612907409667969e+00,5.292893123405941758e-01,0.000000000000000000e+00,1.000000000000000000e+00,1.120000000000000000e+02
1.000000000000000000e+00,0.000000000000000000e+00,0.000000000000000000e+00,0.000000000000000000e+00,7.610000000000000000e+02,2.407639026641845703e-01,1.907195091247558594e+00,6.864138796089482852e-01,0.000000000000000000e+00,1.000000000000000000e+00,1.110000000000000000e+02
0.000000000000000000e+00,1.000000000000000000e+00,0.000000000000000000e+00,3.000000000000000000e+00,7.630000000000000000e+02,2.392091751098632812e-01,1.947532892227172852e+00,7.173125657989825044e-01,0.000000000000000000e+00,0.000000000000000000e+00,1.110000000000000000e+02
1.000000000000000000e+00,1.000000000000000000e+00,1.000000000000000000e+00,2.000000000000000000e+00,7.640000000000000000e+02,2.281990051269531250e-01,1.574866056442260742e+00,3.426091703390779508e-01,0.000000000000000000e+00,0.000000000000000000e+00,1.110000000000000000e+02
0.000000000000000000e+00,0.000000000000000000e+00,1.000000000000000000e+00,0.000000000000000000e+00,7.630000000000000000e+02,2.435710430145263672e-01,1.758546113967895508e+00,5.343596960666052720e-01,0.000000000000000000e+00,0.000000000000000000e+00,1.110000000000000000e+02
1.000000000000000000e+00,1.000000000000000000e+00,1.000000000000000000e+00,4.000000000000000000e+00,7.660000000000000000e+02,2.319588661193847656e-01,1.978075027465820312e+00,7.456000810173077920e-01,0.000000000000000000e+00,0.000000000000000000e+00,1.110000000000000000e+02
1.000000000000000000e+00,0.000000000000000000e+00,0.000000000000000000e+00,0.000000000000000000e+00,7.650000000000000000e+02,2.643630504608154297e-01,1.792296886444091797e+00,5.381951775849046493e-01,0.000000000000000000e+00,1.000000000000000000e+00,1.120000000000000000e+02
1.000000000000000000e+00,0.000000000000000000e+00,0.000000000000000000e+00,0.000000000000000000e+00,7.640000000000000000e+02,2.354178428649902344e-01,1.492609024047851562e+00,2.644752345697505835e-01,0.000000000000000000e+00,1.000000000000000000e+00,1.110000000000000000e+02
0.000000000000000000e+00,0.000000000000000000e+00,1.000000000000000000e+00,0.000000000000000000e+00,7.630000000000000000e+02,3.341081142425537109e-01,1.975695133209228516e+00,6.564911724404831617e-01,0.000000000000000000e+00,1.000000000000000000e+00,1.120000000000000000e+02
1.000000000000000000e+00,0.000000000000000000e+00,0.000000000000000000e+00,0.000000000000000000e+00,7.620000000000000000e+02,2.438449859619140625e-01,1.725451946258544922e+00,4.988314047430200127e-01,0.000000000000000000e+00,1.000000000000000000e+00,1.110000000000000000e+02
0.000000000000000000e+00,0.000000000000000000e+00,1.000000000000000000e+00,0.000000000000000000e+00,7.610000000000000000e+02,2.377028465270996094e-01,1.581958055496215820e+00,3.476714332056383139e-01,0.000000000000000000e+00,1.000000000000000000e+00,1.120000000000000000e+02
1.000000000000000000e+00,1.000000000000000000e+00,1.000000000000000000e+00,2.000000000000000000e+00,7.620000000000000000e+02,2.210028171539306641e-01,1.641629934310913086e+00,4.392392979928788632e-01,0.000000000000000000e+00,1.000000000000000000e+00,1.110000000000000000e+02
1.000000000000000000e+00,1.000000000000000000e+00,1.000000000000000000e+00,1.000000000000000000e+00,7.620000000000000000e+02,2.550480365753173828e-01,1.966493129730224609e+00,7.222089431901537182e-01,0.000000000000000000e+00,0.000000000000000000e+00,1.110000000000000000e+02
0.000000000000000000e+00,1.000000000000000000e+00,0.000000000000000000e+00,3.000000000000000000e+00,7.640000000000000000e+02,3.266010284423828125e-01,1.834307909011840820e+00,5.234461770784035739e-01,0.000000000000000000e+00,0.000000000000000000e+00,1.110000000000000000e+02
0.000000000000000000e+00,0.000000000000000000e+00,1.000000000000000000e+00,0.000000000000000000e+00,7.630000000000000000e+02,2.922248840332031250e-01,1.812354087829589844e+00,5.358408037489488240e-01,0.000000000000000000e+00,1.000000000000000000e+00,1.120000000000000000e+02
0.000000000000000000e+00,1.000000000000000000e+00,0.000000000000000000e+00,4.000000000000000000e+00,7.660000000000000000e+02,3.426098823547363281e-01,1.737859010696411133e+00,4.072481588491564941e-01,0.000000000000000000e+00,0.000000000000000000e+00,1.120000000000000000e+02
1.000000000000000000e+00,0.000000000000000000e+00,0.000000000000000000e+00,0.000000000000000000e+00,7.650000000000000000e+02,2.384119033813476562e-01,1.693932056427001953e+00,4.678447489658073000e-01,0.000000000000000000e+00,1.000000000000000000e+00,1.110000000000000000e+02
1.000000000000000000e+00,0.000000000000000000e+00,0.000000000000000000e+00,0.000000000000000000e+00,7.640000000000000000e+02,3.544721603393554688e-01,1.994507074356079102e+00,6.455786605621833818e-01,0.000000000000000000e+00,0.000000000000000000e+00,1.110000000000000000e+02
0.000000000000000000e+00,1.000000000000000000e+00,0.000000000000000000e+00,2.000000000000000000e+00,7.650000000000000000e+02,2.231869697570800781e-01,1.613239049911499023e+00,4.091157597239662436e-01,0.000000000000000000e+00,0.000000000000000000e+00,1.110000000000000000e+02
1.000000000000000000e+00,0.000000000000000000e+00,0.000000000000000000e+00,0.000000000000000000e+00,7.640000000000000000e+02,3.115248680114746094e-01,1.765300989151000977e+00,4.744331909864790697e-01,0.000000000000000000e+00,1.000000000000000000e+00,1.120000000000000000e+02
0.000000000000000000e+00,0.000000000000000000e+00,1.000000000000000000e+00,0.000000000000000000e+00,7.630000000000000000e+02,3.058648109436035156e-01,1.763849973678588867e+00,4.716450655251997470e-01,0.000000000000000000e+00,1.000000000000000000e+00,1.110000000000000000e+02
1.000000000000000000e+00,0.000000000000000000e+00,0.000000000000000000e+00,0.000000000000000000e+00,7.620000000000000000e+02,3.492441177368164062e-01,1.813705921173095703e+00,4.687620457559180109e-01,0.000000000000000000e+00,0.000000000000000000e+00,1.110000000000000000e+02
0.000000000000000000e+00,0.000000000000000000e+00,1.000000000000000000e+00,0.000000000000000000e+00,7.610000000000000000e+02,2.726790904998779297e-01,1.594293117523193359e+00,3.299548138437606304e-01,0.000000000000000000e+00,0.000000000000000000e+00,1.110000000000000000e+02
1.000000000000000000e+00,0.000000000000000000e+00,0.000000000000000000e+00,0.000000000000000000e+00,7.600000000000000000e+02,3.174331188201904297e-01,2.008718013763427734e+00,7.049962701310135138e-01,0.000000000000000000e+00,1.000000000000000000e+00,1.120000000000000000e+02
0.000000000000000000e+00,0.000000000000000000e+00,1.000000000000000000e+00,0.000000000000000000e+00,7.590000000000000000e+02,2.228529453277587891e-01,1.856328964233398438e+00,6.447969685769106007e-01,0.000000000000000000e+00,1.000000000000000000e+00,1.110000000000000000e+02
1.000000000000000000e+00,0.000000000000000000e+00,0.000000000000000000e+00,0.000000000000000000e+00,7.580000000000000000e+02,1.649181842803955078e-01,1.785932064056396484e+00,6.308026366432344378e-01,1.000000000000000000e+00,1.000000000000000000e+00,1.120000000000000000e+02
0.000000000000000000e+00,0.000000000000000000e+00,1.000000000000000000e+00,0.000000000000000000e+00,7.570000000000000000e+02,2.316281795501708984e-01,1.765098094940185547e+00,5.460560119802404522e-01,0.000000000000000000e+00,0.000000000000000000e+00,1.120000000000000000e+02
1.000000000000000000e+00,0.000000000000000000e+00,0.000000000000000000e+00,0.000000000000000000e+00,7.560000000000000000e+02,6.898839473724365234e-01,8.592463088035583496e+01,3.572729943582641510e-01,1.000000000000000000e+00,1.000000000000000000e+00,1.110000000000000000e+02
0.000000000000000000e+00,1.000000000000000000e+00,0.000000000000000000e+00,2.000000000000000000e+00,7.570000000000000000e+02,2.056210041046142578e-01,1.863810062408447266e+00,6.708309335348492386e-01,0.000000000000000000e+00,0.000000000000000000e+00,1.110000000000000000e+02
0.000000000000000000e+00,1.000000000000000000e+00,0.000000000000000000e+00,2.000000000000000000e+00,7.580000000000000000e+02,2.110319137573242188e-01,1.525861978530883789e+00,3.304041844230973801e-01,0.000000000000000000e+00,0.000000000000000000e+00,1.110000000000000000e+02
1.000000000000000000e+00,1.000000000000000000e+00,1.000000000000000000e+00,2.000000000000000000e+00,7.590000000000000000e+02,2.385828495025634766e-01,1.619305133819580078e+00,3.997223687661614067e-01,0.000000000000000000e+00,0.000000000000000000e+00,1.110000000000000000e+02
1.000000000000000000e+00,1.000000000000000000e+00,1.000000000000000000e+00,2.000000000000000000e+00,7.600000000000000000e+02,2.942030429840087891e-01,1.568655014038085938e+00,2.852081000140180844e-01,0.000000000000000000e+00,0.000000000000000000e+00,1.110000000000000000e+02
1.000000000000000000e+00,1.000000000000000000e+00,1.000000000000000000e+00,3.000000000000000000e+00,7.620000000000000000e+02,3.066349029541015625e-01,1.552089929580688477e+00,2.540682097490636338e-01,0.000000000000000000e+00,0.000000000000000000e+00,1.110000000000000000e+02
0.000000000000000000e+00,0.000000000000000000e+00,1.000000000000000000e+00,0.000000000000000000e+00,7.610000000000000000e+02,2.796690464019775391e-01,1.985532999038696289e+00,7.058945032099976924e-01,0.000000000000000000e+00,1.000000000000000000e+00,1.120000000000000000e+02
1.000000000000000000e+00,1.000000000000000000e+00,1.000000000000000000e+00,2.000000000000000000e+00,7.620000000000000000e+02,1.853809356689453125e-01,1.891723871231079102e+00,7.143271694355153301e-01,0.000000000000000000e+00,0.000000000000000000e+00,1.120000000000000000e+02
1.000000000000000000e+00,1.000000000000000000e+00,1.000000000000000000e+00,2.000000000000000000e+00,7.630000000000000000e+02,2.341759204864501953e-01,1.727950811386108398e+00,5.092209003474881257e-01,0.000000000000000000e+00,0.000000000000000000e+00,1.120000000000000000e+02
1.000000000000000000e+00,0.000000000000000000e+00,0.000000000000000000e+00,0.000000000000000000e+00,7.620000000000000000e+02,2.477719783782958984e-01,1.835194826126098633e+00,5.943736887708641614e-01,0.000000000000000000e+00,1.000000000000000000e+00,1.110000000000000000e+02
0.000000000000000000e+00,1.000000000000000000e+00,0.000000000000000000e+00,3.000000000000000000e+00,7.640000000000000000e+02,2.825109958648681641e-01,1.571567773818969727e+00,2.996471114016546200e-01,0.000000000000000000e+00,0.000000000000000000e+00,1.110000000000000000e+02
1.000000000000000000e+00,1.000000000000000000e+00,1.000000000000000000e+00,2.000000000000000000e+00,7.650000000000000000e+02,3.022248744964599609e-01,1.751048803329467773e+00,4.505856374229398331e-01,0.000000000000000000e+00,0.000000000000000000e+00,1.110000000000000000e+02
0.000000000000000000e+00,0.000000000000000000e+00,1.000000000000000000e+00,0.000000000000000000e+00,7.640000000000000000e+02,2.192850112915039062e-01,1.606616973876953125e+00,3.906702107361893495e-01,0.000000000000000000e+00,1.000000000000000000e+00,1.120000000000000000e+02
0.000000000000000000e+00,1.000000000000000000e+00,0.000000000000000000e+00,4.000000000000000000e+00,7.670000000000000000e+02,2.923231124877929688e-01,1.543805837631225586e+00,2.680004821464767595e-01,0.000000000000000000e+00,0.000000000000000000e+00,1.120000000000000000e+02
0.000000000000000000e+00,0.000000000000000000e+00,1.000000000000000000e+00,0.000000000000000000e+00,7.660000000000000000e+02,3.294029235839843750e-01,1.801112174987792969e+00,4.689529317475438219e-01,0.000000000000000000e+00,1.000000000000000000e+00,1.110000000000000000e+02
1.000000000000000000e+00,0.000000000000000000e+00,0.000000000000000000e+00,0.000000000000000000e+00,7.650000000000000000e+02,2.635788917541503906e-01,1.683440923690795898e+00,4.191885995189712499e-01,0.000000000000000000e+00,0.000000000000000000e+00,1.110000000000000000e+02
0.000000000000000000e+00,1.000000000000000000e+00,0.000000000000000000e+00,1.000000000000000000e+00,7.650000000000000000e+02,2.662708759307861328e-01,1.835334062576293945e+00,5.710955326959807898e-01,0.000000000000000000e+00,0.000000000000000000e+00,1.110000000000000000e+02
0.000000000000000000e+00,0.000000000000000000e+00,1.000000000000000000e+00,0.000000000000000000e+00,7.640000000000000000e+02,2.479832172393798828e-01,1.821177005767822266e+00,5.756279877223333674e-01,0.000000000000000000e+00,1.000000000000000000e+00,1.120000000000000000e+02
0.000000000000000000e+00,0.000000000000000000e+00,1.000000000000000000e+00,0.000000000000000000e+00,7.630000000000000000e+02,2.813839912414550781e-01,1.612694025039672852e+00,3.386581340427216591e-01,0.000000000000000000e+00,1.000000000000000000e+00,1.110000000000000000e+02
1.000000000000000000e+00,0.000000000000000000e+00,0.000000000000000000e+00,0.000000000000000000e+00,7.620000000000000000e+02,2.697720527648925781e-01,1.612977981567382812e+00,3.516933222700176498e-01,0.000000000000000000e+00,0.000000000000000000e+00,1.110000000000000000e+02
1.000000000000000000e+00,0.000000000000000000e+00,0.000000000000000000e+00,0.000000000000000000e+00,7.610000000000000000e+02,2.311530113220214844e-01,1.698653936386108398e+00,4.669338460446503802e-01,0.000000000000000000e+00,1.000000000000000000e+00,1.120000000000000000e+02
0.000000000000000000e+00,0.000000000000000000e+00,1.000000000000000000e+00,0.000000000000000000e+00,7.600000000000000000e+02,2.322309017181396484e-01,1.662364006042480469e+00,4.293940263972013671e-01,0.000000000000000000e+00,1.000000000000000000e+00,1.110000000000000000e+02
0.000000000000000000e+00,1.000000000000000000e+00,0.000000000000000000e+00,3.000000000000000000e+00,7.620000000000000000e+02,3.203258514404296875e-01,1.915817975997924805e+00,6.117724688867353100e-01,0.000000000000000000e+00,0.000000000000000000e+00,1.110000000000000000e+02
1.000000000000000000e+00,1.000000000000000000e+00,1.000000000000000000e+00,1.000000000000000000e+00,7.620000000000000000e+02,2.597348690032958984e-01,1.694770097732543945e+00,4.567387743702222003e-01,0.000000000000000000e+00,0.000000000000000000e+00,1.110000000000000000e+02
0.000000000000000000e+00,1.000000000000000000e+00,0.000000000000000000e+00,3.000000000000000000e+00,7.640000000000000000e+02,2.237441539764404297e-01,1.596561908721923828e+00,3.867676999756930467e-01,0.000000000000000000e+00,0.000000000000000000e+00,1.110000000000000000e+02
0.000000000000000000e+00,1.000000000000000000e+00,0.000000000000000000e+00,1.000000000000000000e+00,7.640000000000000000e+02,2.407541275024414062e-01,1.587265014648437500e+00,3.574717650215243347e-01,0.000000000000000000e+00,0.000000000000000000e+00,1.110000000000000000e+02
1.000000000000000000e+00,1.000000000000000000e+00,1.000000000000000000e+00,2.000000000000000000e+00,7.650000000000000000e+02,5.405089855194091797e-01,2.081359148025512695e+00,5.553591198398207807e-01,0.000000000000000000e+00,1.000000000000000000e+00,1.120000000000000000e+02
1.000000000000000000e+00,1.000000000000000000e+00,1.000000000000000000e+00,2.000000000000000000e+00,7.660000000000000000e+02,2.621419429779052734e-01,1.906337976455688477e+00,6.450037785765383447e-01,0.000000000000000000e+00,0.000000000000000000e+00,1.120000000000000000e+02
1.000000000000000000e+00,0.000000000000000000e+00,0.000000000000000000e+00,0.000000000000000000e+00,7.650000000000000000e+02,2.293939590454101562e-01,1.730031967163085938e+00,5.085853431211919684e-01,0.000000000000000000e+00,1.000000000000000000e+00,1.110000000000000000e+02
1.000000000000000000e+00,1.000000000000000000e+00,1.000000000000000000e+00,2.000000000000000000e+00,7.660000000000000000e+02,3.231301307678222656e-01,1.765480041503906250e+00,4.575246772890032010e-01,0.000000000000000000e+00,0.000000000000000000e+00,1.110000000000000000e+02
1.000000000000000000e+00,1.000000000000000000e+00,1.000000000000000000e+00,4.000000000000000000e+00,7.690000000000000000e+02,2.854688167572021484e-01,1.953823089599609375e+00,6.778206483801056947e-01,0.000000000000000000e+00,0.000000000000000000e+00,1.110000000000000000e+02
0.000000000000000000e+00,1.000000000000000000e+00,0.000000000000000000e+00,3.000000000000000000e+00,7.710000000000000000e+02,2.885830402374267578e-01,2.002732992172241211e+00,7.306026512169745413e-01,0.000000000000000000e+00,0.000000000000000000e+00,1.110000000000000000e+02
1.000000000000000000e+00,1.000000000000000000e+00,1.000000000000000000e+00,1.000000000000000000e+00,7.710000000000000000e+02,2.066180706024169922e-01,1.491647005081176758e+00,3.060861740077229221e-01,0.000000000000000000e+00,0.000000000000000000e+00,1.110000000000000000e+02
1.000000000000000000e+00,0.000000000000000000e+00,0.000000000000000000e+00,0.000000000000000000e+00,7.700000000000000000e+02,4.196259975433349609e-01,1.955080986022949219e+00,5.444270602711223095e-01,0.000000000000000000e+00,0.000000000000000000e+00,1.110000000000000000e+02
1.000000000000000000e+00,1.000000000000000000e+00,1.000000000000000000e+00,3.000000000000000000e+00,7.720000000000000000e+02,3.037180900573730469e-01,1.676189184188842773e+00,3.874029992230956787e-01,0.000000000000000000e+00,0.000000000000000000e+00,1.110000000000000000e+02
1.000000000000000000e+00,1.000000000000000000e+00,1.000000000000000000e+00,3.000000000000000000e+00,7.740000000000000000e+02,3.904449939727783203e-01,1.907657861709594727e+00,5.283058090083627700e-01,0.000000000000000000e+00,0.000000000000000000e+00,1.110000000000000000e+02
0.000000000000000000e+00,1.000000000000000000e+00,0.000000000000000000e+00,1.000000000000000000e+00,7.740000000000000000e+02,3.265521526336669922e-01,1.978200912475585938e+00,6.730949132219485875e-01,0.000000000000000000e+00,0.000000000000000000e+00,1.110000000000000000e+02
0.000000000000000000e+00,1.000000000000000000e+00,0.000000000000000000e+00,2.000000000000000000e+00,7.750000000000000000e+02,2.652378082275390625e-01,1.865900039672851562e+00,6.058309112707178645e-01,0.000000000000000000e+00,0.000000000000000000e+00,1.110000000000000000e+02
1.000000000000000000e+00,0.000000000000000000e+00,0.000000000000000000e+00,0.000000000000000000e+00,7.740000000000000000e+02,2.996098995208740234e-01,1.695554971694946289e+00,4.016103457279177058e-01,0.000000000000000000e+00,1.000000000000000000e+00,1.120000000000000000e+02
1.000000000000000000e+00,0.000000000000000000e+00,0.000000000000000000e+00,0.000000000000000000e+00,7.730000000000000000e+02,2.567310333251953125e-01,1.515765190124511719e+00,2.676029346494440686e-01,1.000000000000000000e+00,1.000000000000000000e+00,1.110000000000000000e+02
1.000000000000000000e+00,0.000000000000000000e+00,0.000000000000000000e+00,0.000000000000000000e+00,7.720000000000000000e+02,3.781051635742187500e-01,1.926159858703613281e+00,5.601741453478912280e-01,0.000000000000000000e+00,1.000000000000000000e+00,1.120000000000000000e+02
0.000000000000000000e+00,1.000000000000000000e+00,0.000000000000000000e+00,1.000000000000000000e+00,7.720000000000000000e+02,3.224830627441406250e-01,1.887783050537109375e+00,5.813452615853558214e-01,0.000000000000000000e+00,0.000000000000000000e+00,1.120000000000000000e+02
0.000000000000000000e+00,1.000000000000000000e+00,0.000000000000000000e+00,2.000000000000000000e+00,7.730000000000000000e+02,2.952191829681396484e-01,1.951595067977905273e+00,6.662620638392404704e-01,0.000000000000000000e+00,0.000000000000000000e+00,1.120000000000000000e+02
1.000000000000000000e+00,1.000000000000000000e+00,1.000000000000000000e+00,2.000000000000000000e+00,7.740000000000000000e+02,3.295650482177734375e-01,1.983370065689086914e+00,6.497111927893661765e-01,0.000000000000000000e+00,0.000000000000000000e+00,1.120000000000000000e+02
1.000000000000000000e+00,1.000000000000000000e+00,1.000000000000000000e+00,4.000000000000000000e+00,7.770000000000000000e+02,2.793500423431396484e-01,1.554198980331420898e+00,2.710399803037398248e-01,0.000000000000000000e+00,0.000000000000000000e+00,1.120000000000000000e+02
0.000000000000000000e+00,1.000000000000000000e+00,0.000000000000000000e+00,2.000000000000000000e+00,7.780000000000000000e+02,3.314170837402343750e-01,1.916723966598510742e+00,5.874810044299129119e-01,0.000000000000000000e+00,0.000000000000000000e+00,1.120000000000000000e+02
0.000000000000000000e+00,0.000000000000000000e+00,1.000000000000000000e+00,0.000000000000000000e+00,7.770000000000000000e+02,2.912881374359130859e-01,1.766489028930664062e+00,4.708468799121474646e-01,0.000000000000000000e+00,1.000000000000000000e+00,1.110000000000000000e+02
1.000000000000000000e+00,0.000000000000000000e+00,0.000000000000000000e+00,0.000000000000000000e+00,7.760000000000000000e+02,2.501101493835449219e-01,1.710368156433105469e+00,4.646141017956647579e-01,0.000000000000000000e+00,1.000000000000000000e+00,1.120000000000000000e+02
1.000000000000000000e+00,1.000000000000000000e+00,1.000000000000000000e+00,3.000000000000000000e+00,7.780000000000000000e+02,3.242790699005126953e-01,1.856510877609252930e+00,5.543891465568090426e-01,0.000000000000000000e+00,0.000000000000000000e+00,1.120000000000000000e+02
0.000000000000000000e+00,0.000000000000000000e+00,1.000000000000000000e+00,0.000000000000000000e+00,7.770000000000000000e+02,2.756550312042236328e-01,1.975831985473632812e+00,7.134677458029871078e-01,0.000000000000000000e+00,0.000000000000000000e+00,1.120000000000000000e+02
0.000000000000000000e+00,0.000000000000000000e+00,1.000000000000000000e+00,0.000000000000000000e+00,7.760000000000000000e+02,6.090478897094726562e-01,1.841979980468750000e+00,2.560007483531167582e-01,0.000000000000000000e+00,1.000000000000000000e+00,1.110000000000000000e+02
1.000000000000000000e+00,0.000000000000000000e+00,0.000000000000000000e+00,0.000000000000000000e+00,7.750000000000000000e+02,4.261620044708251953e-01,1.735214948654174805e+00,3.245472466324762495e-01,0.000000000000000000e+00,1.000000000000000000e+00,1.120000000000000000e+02
0.000000000000000000e+00,1.000000000000000000e+00,0.000000000000000000e+00,2.000000000000000000e+00,7.760000000000000000e+02,3.828887939453125000e-01,1.688553094863891602e+00,3.131688352368048323e-01,0.000000000000000000e+00,0.000000000000000000e+00,1.120000000000000000e+02
1.000000000000000000e+00,1.000000000000000000e+00,1.000000000000000000e+00,2.000000000000000000e+00,7.770000000000000000e+02,2.776179313659667969e-01,1.846754074096679688e+00,5.930126610974075785e-01,0.000000000000000000e+00,0.000000000000000000e+00,1.120000000000000000e+02
1.000000000000000000e+00,1.000000000000000000e+00,1.000000000000000000e+00,3.000000000000000000e+00,7.790000000000000000e+02,3.196740150451660156e-01,1.760764837265014648e+00,4.539983298021365576e-01,0.000000000000000000e+00,0.000000000000000000e+00,1.120000000000000000e+02
0.000000000000000000e+00,1.000000000000000000e+00,0.000000000000000000e+00,2.000000000000000000e+00,7.800000000000000000e+02,2.910280227661132812e-01,1.849031925201416016e+00,5.696635444973563445e-01,0.000000000000000000e+00,0.000000000000000000e+00,1.120000000000000000e+02
1.000000000000000000e+00,1.000000000000000000e+00,1.000000000000000000e+00,4.000000000000000000e+00,7.830000000000000000e+02,2.441020011901855469e-01,1.556828975677490234e+00,3.267792239541787991e-01,0.000000000000000000e+00,0.000000000000000000e+00,1.120000000000000000e+02
0.000000000000000000e+00,1.000000000000000000e+00,0.000000000000000000e+00,1.000000000000000000e+00,7.830000000000000000e+02,2.601249217987060547e-01,1.695192813873291016e+00,4.552372131029229774e-01,0.000000000000000000e+00,0.000000000000000000e+00,1.120000000000000000e+02
1.000000000000000000e+00,1.000000000000000000e+00,1.000000000000000000e+00,1.000000000000000000e+00,7.830000000000000000e+02,2.791740894317626953e-01,1.979933977127075195e+00,7.183137561703756280e-01,0.000000000000000000e+00,0.000000000000000000e+00,1.120000000000000000e+02
0.000000000000000000e+00,1.000000000000000000e+00,0.000000000000000000e+00,2.000000000000000000e+00,7.840000000000000000e+02,2.939829826354980469e-01,1.715038061141967773e+00,4.170634490662871730e-01,0.000000000000000000e+00,0.000000000000000000e+00,1.120000000000000000e+02
1.000000000000000000e+00,1.000000000000000000e+00,1.000000000000000000e+00,2.000000000000000000e+00,7.850000000000000000e+02,2.203891277313232422e-01,1.915719032287597656e+00,6.992206305769850250e-01,0.000000000000000000e+00,0.000000000000000000e+00,1.120000000000000000e+02
0.000000000000000000e+00,0.000000000000000000e+00,1.000000000000000000e+00,0.000000000000000000e+00,7.840000000000000000e+02,2.607300281524658203e-01,1.657800912857055664e+00,4.073782482344304734e-01,0.000000000000000000e+00,1.000000000000000000e+00,1.110000000000000000e+02
0.000000000000000000e+00,0.000000000000000000e+00,1.000000000000000000e+00,0.000000000000000000e+00,7.830000000000000000e+02,3.028419017791748047e-01,1.554228067398071289e+00,2.617928713691792253e-01,0.000000000000000000e+00,1.000000000000000000e+00,1.120000000000000000e+02
