choice, accuracy, solution,  reward, cumulative_reward, rt,  total_trial_time, iti, cp_with_slow_fast, obs_cp_with_slow_fast, high_val_cue
0.000000000000000000e+00,1.000000000000000000e+00,0.000000000000000000e+00,0.000000000000000000e+00,6.000000000000000000e+02,1.353936910629272461e+00,2.747844934463500977e+00,3.662676886657452169e-01,-1.000000000000000000e+00,-1.000000000000000000e+00,1.120000000000000000e+02
0.000000000000000000e+00,1.000000000000000000e+00,0.000000000000000000e+00,3.000000000000000000e+00,6.020000000000000000e+02,3.290240764617919922e-01,1.732831954956054688e+00,3.990894059664303328e-01,0.000000000000000000e+00,0.000000000000000000e+00,1.120000000000000000e+02
1.000000000000000000e+00,1.000000000000000000e+00,1.000000000000000000e+00,2.000000000000000000e+00,6.030000000000000000e+02,4.277949333190917969e-01,2.106729984283447266e+00,6.722830949906040132e-01,0.000000000000000000e+00,0.000000000000000000e+00,1.120000000000000000e+02
1.000000000000000000e+00,0.000000000000000000e+00,0.000000000000000000e+00,0.000000000000000000e+00,6.020000000000000000e+02,3.338520526885986328e-01,2.076743125915527344e+00,7.490604056204970274e-01,0.000000000000000000e+00,1.000000000000000000e+00,1.110000000000000000e+02
0.000000000000000000e+00,1.000000000000000000e+00,0.000000000000000000e+00,2.000000000000000000e+00,6.030000000000000000e+02,3.056340217590332031e-01,1.750761985778808594e+00,4.501748110216252652e-01,0.000000000000000000e+00,1.000000000000000000e+00,1.120000000000000000e+02
0.000000000000000000e+00,1.000000000000000000e+00,0.000000000000000000e+00,2.000000000000000000e+00,6.040000000000000000e+02,3.026950359344482422e-01,2.033942937850952148e+00,7.338957553696716651e-01,0.000000000000000000e+00,1.000000000000000000e+00,1.110000000000000000e+02
1.000000000000000000e+00,0.000000000000000000e+00,0.000000000000000000e+00,0.000000000000000000e+00,6.030000000000000000e+02,3.224902153015136719e-01,1.794245004653930664e+00,4.784816612025053484e-01,0.000000000000000000e+00,0.000000000000000000e+00,1.110000000000000000e+02
1.000000000000000000e+00,1.000000000000000000e+00,1.000000000000000000e+00,4.000000000000000000e+00,6.060000000000000000e+02,2.621431350708007812e-01,1.915227890014648438e+00,6.602468676578954199e-01,0.000000000000000000e+00,0.000000000000000000e+00,1.110000000000000000e+02
1.000000000000000000e+00,1.000000000000000000e+00,1.000000000000000000e+00,4.000000000000000000e+00,6.090000000000000000e+02,4.644901752471923828e-01,1.719227075576782227e+00,2.632917197117670693e-01,0.000000000000000000e+00,1.000000000000000000e+00,1.120000000000000000e+02
0.000000000000000000e+00,1.000000000000000000e+00,0.000000000000000000e+00,2.000000000000000000e+00,6.100000000000000000e+02,3.238449096679687500e-01,1.639986991882324219e+00,3.366010993853041922e-01,0.000000000000000000e+00,0.000000000000000000e+00,1.120000000000000000e+02
0.000000000000000000e+00,0.000000000000000000e+00,1.000000000000000000e+00,0.000000000000000000e+00,6.090000000000000000e+02,2.459309101104736328e-01,1.918004989624023438e+00,6.709864856320244542e-01,0.000000000000000000e+00,1.000000000000000000e+00,1.110000000000000000e+02
0.000000000000000000e+00,0.000000000000000000e+00,1.000000000000000000e+00,0.000000000000000000e+00,6.080000000000000000e+02,2.264120578765869141e-01,1.502634048461914062e+00,2.906906471193762553e-01,0.000000000000000000e+00,1.000000000000000000e+00,1.120000000000000000e+02
0.000000000000000000e+00,0.000000000000000000e+00,1.000000000000000000e+00,0.000000000000000000e+00,6.070000000000000000e+02,2.414290904998779297e-01,1.639945030212402344e+00,4.138862553610245243e-01,0.000000000000000000e+00,1.000000000000000000e+00,1.110000000000000000e+02
0.000000000000000000e+00,0.000000000000000000e+00,1.000000000000000000e+00,0.000000000000000000e+00,6.060000000000000000e+02,2.460348606109619141e-01,1.512768030166625977e+00,2.768445086604471306e-01,0.000000000000000000e+00,1.000000000000000000e+00,1.120000000000000000e+02
1.000000000000000000e+00,1.000000000000000000e+00,1.000000000000000000e+00,3.000000000000000000e+00,6.080000000000000000e+02,2.234451770782470703e-01,1.549150943756103516e+00,3.426609483588824445e-01,0.000000000000000000e+00,0.000000000000000000e+00,1.120000000000000000e+02
1.000000000000000000e+00,0.000000000000000000e+00,0.000000000000000000e+00,0.000000000000000000e+00,6.070000000000000000e+02,1.864471435546875000e-01,1.792055130004882812e+00,6.178618036515497458e-01,0.000000000000000000e+00,0.000000000000000000e+00,1.120000000000000000e+02
0.000000000000000000e+00,1.000000000000000000e+00,0.000000000000000000e+00,1.000000000000000000e+00,6.070000000000000000e+02,2.254199981689453125e-01,1.827537059783935547e+00,6.121113167438454461e-01,0.000000000000000000e+00,0.000000000000000000e+00,1.120000000000000000e+02
1.000000000000000000e+00,1.000000000000000000e+00,1.000000000000000000e+00,4.000000000000000000e+00,6.100000000000000000e+02,1.772849559783935547e-01,1.603234052658081055e+00,4.488819566318923426e-01,0.000000000000000000e+00,1.000000000000000000e+00,1.110000000000000000e+02
1.000000000000000000e+00,1.000000000000000000e+00,1.000000000000000000e+00,2.000000000000000000e+00,6.110000000000000000e+02,3.094048500061035156e-01,1.645262002944946289e+00,3.443358789061869429e-01,0.000000000000000000e+00,1.000000000000000000e+00,1.120000000000000000e+02
1.000000000000000000e+00,0.000000000000000000e+00,0.000000000000000000e+00,0.000000000000000000e+00,6.100000000000000000e+02,2.782640457153320312e-01,1.661787033081054688e+00,3.894641296631929372e-01,0.000000000000000000e+00,0.000000000000000000e+00,1.120000000000000000e+02
1.000000000000000000e+00,1.000000000000000000e+00,1.000000000000000000e+00,4.000000000000000000e+00,6.130000000000000000e+02,1.715190410614013672e-01,1.824664831161499023e+00,6.639134511957232032e-01,0.000000000000000000e+00,0.000000000000000000e+00,1.120000000000000000e+02
1.000000000000000000e+00,0.000000000000000000e+00,0.000000000000000000e+00,0.000000000000000000e+00,6.120000000000000000e+02,1.169059276580810547e-01,1.743286848068237305e+00,6.406168916341431485e-01,0.000000000000000000e+00,1.000000000000000000e+00,1.110000000000000000e+02
1.000000000000000000e+00,1.000000000000000000e+00,1.000000000000000000e+00,0.000000000000000000e+00,6.120000000000000000e+02,2.595090866088867188e-02,5.657362937927246094e+00,5.149847935110882791e-01,-2.000000000000000000e+00,-2.000000000000000000e+00,1.120000000000000000e+02
1.000000000000000000e+00,0.000000000000000000e+00,0.000000000000000000e+00,0.000000000000000000e+00,6.110000000000000000e+02,2.441020011901855469e-01,1.760717868804931641e+00,5.424089365712745359e-01,0.000000000000000000e+00,1.000000000000000000e+00,1.110000000000000000e+02
1.000000000000000000e+00,1.000000000000000000e+00,1.000000000000000000e+00,3.000000000000000000e+00,6.130000000000000000e+02,2.385051250457763672e-01,1.554485082626342773e+00,3.304831536350010257e-01,0.000000000000000000e+00,0.000000000000000000e+00,1.110000000000000000e+02
1.000000000000000000e+00,0.000000000000000000e+00,0.000000000000000000e+00,0.000000000000000000e+00,6.120000000000000000e+02,3.475489616394042969e-01,1.690371036529541016e+00,3.542217702497079679e-01,0.000000000000000000e+00,0.000000000000000000e+00,1.110000000000000000e+02
1.000000000000000000e+00,0.000000000000000000e+00,0.000000000000000000e+00,0.000000000000000000e+00,6.110000000000000000e+02,2.675950527191162109e-01,2.005373954772949219e+00,7.425668387444848140e-01,0.000000000000000000e+00,0.000000000000000000e+00,1.110000000000000000e+02
1.000000000000000000e+00,0.000000000000000000e+00,0.000000000000000000e+00,0.000000000000000000e+00,6.100000000000000000e+02,2.118020057678222656e-01,1.881832122802734375e+00,6.745889770273247876e-01,0.000000000000000000e+00,0.000000000000000000e+00,1.110000000000000000e+02
1.000000000000000000e+00,0.000000000000000000e+00,0.000000000000000000e+00,0.000000000000000000e+00,6.090000000000000000e+02,2.234718799591064453e-01,1.610104084014892578e+00,4.016715154696469114e-01,0.000000000000000000e+00,0.000000000000000000e+00,1.110000000000000000e+02
1.000000000000000000e+00,1.000000000000000000e+00,1.000000000000000000e+00,4.000000000000000000e+00,6.120000000000000000e+02,2.208321094512939453e-01,1.479371070861816406e+00,2.646171132024729977e-01,0.000000000000000000e+00,0.000000000000000000e+00,1.110000000000000000e+02
1.000000000000000000e+00,1.000000000000000000e+00,1.000000000000000000e+00,2.000000000000000000e+00,6.130000000000000000e+02,5.302460193634033203e-01,2.260326862335205078e+00,7.411860570578376883e-01,0.000000000000000000e+00,0.000000000000000000e+00,1.110000000000000000e+02
0.000000000000000000e+00,1.000000000000000000e+00,0.000000000000000000e+00,0.000000000000000000e+00,6.120000000000000000e+02,1.847691535949707031e-01,1.584523200988769531e+00,4.094108715982005542e-01,0.000000000000000000e+00,0.000000000000000000e+00,1.110000000000000000e+02
0.000000000000000000e+00,0.000000000000000000e+00,1.000000000000000000e+00,0.000000000000000000e+00,6.110000000000000000e+02,2.073948383331298828e-01,1.768454790115356445e+00,5.777522522012714656e-01,0.000000000000000000e+00,0.000000000000000000e+00,1.110000000000000000e+02
0.000000000000000000e+00,0.000000000000000000e+00,1.000000000000000000e+00,0.000000000000000000e+00,6.100000000000000000e+02,2.205018997192382812e-01,1.587177991867065430e+00,3.818692441546414629e-01,0.000000000000000000e+00,0.000000000000000000e+00,1.110000000000000000e+02
0.000000000000000000e+00,1.000000000000000000e+00,0.000000000000000000e+00,3.000000000000000000e+00,6.120000000000000000e+02,3.115808963775634766e-01,1.853173017501831055e+00,5.515784354456509941e-01,1.000000000000000000e+00,1.000000000000000000e+00,1.120000000000000000e+02
1.000000000000000000e+00,1.000000000000000000e+00,1.000000000000000000e+00,2.000000000000000000e+00,6.130000000000000000e+02,5.949499607086181641e-01,2.171293973922729492e+00,5.729465663188839653e-01,0.000000000000000000e+00,0.000000000000000000e+00,1.120000000000000000e+02
1.000000000000000000e+00,1.000000000000000000e+00,1.000000000000000000e+00,3.000000000000000000e+00,6.150000000000000000e+02,3.852701187133789062e-01,1.982701778411865234e+00,6.056951076196133155e-01,0.000000000000000000e+00,0.000000000000000000e+00,1.120000000000000000e+02
0.000000000000000000e+00,1.000000000000000000e+00,0.000000000000000000e+00,2.000000000000000000e+00,6.160000000000000000e+02,2.140369415283203125e-01,1.557172060012817383e+00,3.465063902291091735e-01,0.000000000000000000e+00,0.000000000000000000e+00,1.120000000000000000e+02
0.000000000000000000e+00,1.000000000000000000e+00,0.000000000000000000e+00,3.000000000000000000e+00,6.180000000000000000e+02,3.651199340820312500e-01,1.950582027435302734e+00,5.969020273421671297e-01,0.000000000000000000e+00,0.000000000000000000e+00,1.120000000000000000e+02
0.000000000000000000e+00,1.000000000000000000e+00,0.000000000000000000e+00,4.000000000000000000e+00,6.210000000000000000e+02,2.981989383697509766e-01,1.793563842773437500e+00,5.073189560199327097e-01,0.000000000000000000e+00,0.000000000000000000e+00,1.120000000000000000e+02
1.000000000000000000e+00,1.000000000000000000e+00,1.000000000000000000e+00,2.000000000000000000e+00,6.220000000000000000e+02,3.163499832153320312e-01,1.969783782958984375e+00,6.603502682083396413e-01,0.000000000000000000e+00,0.000000000000000000e+00,1.120000000000000000e+02
1.000000000000000000e+00,1.000000000000000000e+00,1.000000000000000000e+00,3.000000000000000000e+00,6.240000000000000000e+02,3.176100254058837891e-01,1.797145843505859375e+00,4.910635469807851927e-01,0.000000000000000000e+00,0.000000000000000000e+00,1.120000000000000000e+02
1.000000000000000000e+00,1.000000000000000000e+00,1.000000000000000000e+00,1.000000000000000000e+00,6.240000000000000000e+02,3.376910686492919922e-01,1.703231096267700195e+00,3.778094113449769198e-01,0.000000000000000000e+00,0.000000000000000000e+00,1.120000000000000000e+02
0.000000000000000000e+00,1.000000000000000000e+00,0.000000000000000000e+00,4.000000000000000000e+00,6.270000000000000000e+02,3.376951217651367188e-01,1.836488008499145508e+00,5.142526575269326106e-01,0.000000000000000000e+00,0.000000000000000000e+00,1.120000000000000000e+02
1.000000000000000000e+00,1.000000000000000000e+00,1.000000000000000000e+00,4.000000000000000000e+00,6.300000000000000000e+02,3.184988498687744141e-01,1.609190940856933594e+00,3.070389990076755060e-01,0.000000000000000000e+00,0.000000000000000000e+00,1.120000000000000000e+02
0.000000000000000000e+00,1.000000000000000000e+00,0.000000000000000000e+00,2.000000000000000000e+00,6.310000000000000000e+02,3.039090633392333984e-01,1.961503028869628906e+00,6.682481982719099545e-01,0.000000000000000000e+00,0.000000000000000000e+00,1.120000000000000000e+02
1.000000000000000000e+00,1.000000000000000000e+00,1.000000000000000000e+00,3.000000000000000000e+00,6.330000000000000000e+02,2.422978878021240234e-01,1.624822139739990234e+00,3.934064429288881559e-01,0.000000000000000000e+00,0.000000000000000000e+00,1.120000000000000000e+02
0.000000000000000000e+00,0.000000000000000000e+00,1.000000000000000000e+00,0.000000000000000000e+00,6.320000000000000000e+02,2.887361049652099609e-01,1.966871976852416992e+00,6.933709234158282886e-01,0.000000000000000000e+00,1.000000000000000000e+00,1.110000000000000000e+02
1.000000000000000000e+00,1.000000000000000000e+00,1.000000000000000000e+00,2.000000000000000000e+00,6.330000000000000000e+02,2.211139202117919922e-01,1.478935956954956055e+00,2.727993029597012287e-01,0.000000000000000000e+00,1.000000000000000000e+00,1.120000000000000000e+02
1.000000000000000000e+00,1.000000000000000000e+00,1.000000000000000000e+00,5.000000000000000000e+00,6.370000000000000000e+02,3.148059844970703125e-01,1.914883852005004883e+00,6.040519595501901984e-01,0.000000000000000000e+00,0.000000000000000000e+00,1.120000000000000000e+02
0.000000000000000000e+00,1.000000000000000000e+00,0.000000000000000000e+00,2.000000000000000000e+00,6.380000000000000000e+02,2.712240219116210938e-01,1.851780176162719727e+00,5.892599842671097932e-01,0.000000000000000000e+00,0.000000000000000000e+00,1.120000000000000000e+02
0.000000000000000000e+00,1.000000000000000000e+00,0.000000000000000000e+00,1.000000000000000000e+00,6.380000000000000000e+02,2.972869873046875000e-01,1.922578811645507812e+00,6.285204359467335689e-01,0.000000000000000000e+00,0.000000000000000000e+00,1.120000000000000000e+02
1.000000000000000000e+00,0.000000000000000000e+00,0.000000000000000000e+00,0.000000000000000000e+00,6.370000000000000000e+02,3.976659774780273438e-01,1.741047143936157227e+00,3.532721039693572096e-01,0.000000000000000000e+00,0.000000000000000000e+00,1.120000000000000000e+02
1.000000000000000000e+00,0.000000000000000000e+00,0.000000000000000000e+00,0.000000000000000000e+00,6.360000000000000000e+02,3.217549324035644531e-01,1.761532068252563477e+00,4.481063247922178472e-01,0.000000000000000000e+00,0.000000000000000000e+00,1.120000000000000000e+02
0.000000000000000000e+00,0.000000000000000000e+00,1.000000000000000000e+00,0.000000000000000000e+00,6.350000000000000000e+02,2.748129367828369141e-01,1.660883903503417969e+00,4.090660427317403536e-01,0.000000000000000000e+00,0.000000000000000000e+00,1.120000000000000000e+02
1.000000000000000000e+00,0.000000000000000000e+00,0.000000000000000000e+00,0.000000000000000000e+00,6.340000000000000000e+02,2.242689132690429688e-01,1.681797981262207031e+00,4.742142264696311837e-01,0.000000000000000000e+00,0.000000000000000000e+00,1.120000000000000000e+02
1.000000000000000000e+00,1.000000000000000000e+00,1.000000000000000000e+00,3.000000000000000000e+00,6.360000000000000000e+02,3.379268646240234375e-01,2.032845973968505859e+00,7.068441697402536583e-01,0.000000000000000000e+00,1.000000000000000000e+00,1.110000000000000000e+02
1.000000000000000000e+00,0.000000000000000000e+00,0.000000000000000000e+00,0.000000000000000000e+00,6.350000000000000000e+02,2.986609935760498047e-01,1.698393106460571289e+00,4.056059590286550942e-01,0.000000000000000000e+00,1.000000000000000000e+00,1.120000000000000000e+02
0.000000000000000000e+00,1.000000000000000000e+00,0.000000000000000000e+00,3.000000000000000000e+00,6.370000000000000000e+02,2.987191677093505859e-01,1.698032855987548828e+00,4.036912810121526252e-01,0.000000000000000000e+00,0.000000000000000000e+00,1.120000000000000000e+02
1.000000000000000000e+00,1.000000000000000000e+00,1.000000000000000000e+00,3.000000000000000000e+00,6.390000000000000000e+02,3.218379020690917969e-01,2.062550783157348633e+00,7.493139259254331108e-01,0.000000000000000000e+00,0.000000000000000000e+00,1.120000000000000000e+02
1.000000000000000000e+00,0.000000000000000000e+00,0.000000000000000000e+00,0.000000000000000000e+00,6.380000000000000000e+02,2.491991519927978516e-01,1.544282197952270508e+00,2.941091914205059554e-01,0.000000000000000000e+00,1.000000000000000000e+00,1.110000000000000000e+02
0.000000000000000000e+00,0.000000000000000000e+00,1.000000000000000000e+00,0.000000000000000000e+00,6.370000000000000000e+02,2.979590892791748047e-01,1.908276796340942383e+00,6.188051879533731370e-01,0.000000000000000000e+00,0.000000000000000000e+00,1.110000000000000000e+02
0.000000000000000000e+00,1.000000000000000000e+00,0.000000000000000000e+00,3.000000000000000000e+00,6.390000000000000000e+02,3.013119697570800781e-01,1.602846145629882812e+00,3.053608083940070328e-01,0.000000000000000000e+00,1.000000000000000000e+00,1.120000000000000000e+02
1.000000000000000000e+00,1.000000000000000000e+00,1.000000000000000000e+00,3.000000000000000000e+00,6.410000000000000000e+02,3.123509883880615234e-01,2.059400081634521484e+00,7.310646490839678435e-01,0.000000000000000000e+00,0.000000000000000000e+00,1.120000000000000000e+02
1.000000000000000000e+00,1.000000000000000000e+00,1.000000000000000000e+00,1.000000000000000000e+00,6.410000000000000000e+02,3.094220161437988281e-01,1.605180978775024414e+00,3.200438632668702876e-01,0.000000000000000000e+00,0.000000000000000000e+00,1.120000000000000000e+02
0.000000000000000000e+00,0.000000000000000000e+00,1.000000000000000000e+00,0.000000000000000000e+00,6.400000000000000000e+02,2.977728843688964844e-01,1.755127906799316406e+00,4.584340372295179211e-01,0.000000000000000000e+00,1.000000000000000000e+00,1.110000000000000000e+02
0.000000000000000000e+00,0.000000000000000000e+00,1.000000000000000000e+00,0.000000000000000000e+00,6.390000000000000000e+02,3.298900127410888672e-01,1.646486997604370117e+00,3.217653868593891020e-01,0.000000000000000000e+00,0.000000000000000000e+00,1.110000000000000000e+02
1.000000000000000000e+00,1.000000000000000000e+00,1.000000000000000000e+00,3.000000000000000000e+00,6.410000000000000000e+02,3.168199062347412109e-01,1.768256902694702148e+00,4.566296724112121064e-01,0.000000000000000000e+00,1.000000000000000000e+00,1.120000000000000000e+02
1.000000000000000000e+00,0.000000000000000000e+00,0.000000000000000000e+00,0.000000000000000000e+00,6.410000000000000000e+02,1.321300029754638672e+00,2.620311975479125977e+00,2.772546125566583419e-01,-1.000000000000000000e+00,-1.000000000000000000e+00,1.110000000000000000e+02
1.000000000000000000e+00,1.000000000000000000e+00,1.000000000000000000e+00,1.000000000000000000e+00,6.410000000000000000e+02,3.688061237335205078e-01,1.946686983108520508e+00,5.907286338779443868e-01,0.000000000000000000e+00,1.000000000000000000e+00,1.120000000000000000e+02
1.000000000000000000e+00,0.000000000000000000e+00,0.000000000000000000e+00,0.000000000000000000e+00,6.400000000000000000e+02,3.277800083160400391e-01,1.623854160308837891e+00,2.978945717804819537e-01,0.000000000000000000e+00,1.000000000000000000e+00,1.110000000000000000e+02
1.000000000000000000e+00,0.000000000000000000e+00,0.000000000000000000e+00,0.000000000000000000e+00,6.390000000000000000e+02,2.952251434326171875e-01,1.869127035140991211e+00,6.000727554735323377e-01,0.000000000000000000e+00,0.000000000000000000e+00,1.110000000000000000e+02
1.000000000000000000e+00,0.000000000000000000e+00,0.000000000000000000e+00,0.000000000000000000e+00,6.380000000000000000e+02,2.169580459594726562e-01,1.645264863967895508e+00,4.289271923844318324e-01,0.000000000000000000e+00,0.000000000000000000e+00,1.110000000000000000e+02
1.000000000000000000e+00,0.000000000000000000e+00,0.000000000000000000e+00,0.000000000000000000e+00,6.370000000000000000e+02,3.426120281219482422e-01,1.741860866546630859e+00,4.208676353706836681e-01,0.000000000000000000e+00,0.000000000000000000e+00,1.110000000000000000e+02
0.000000000000000000e+00,1.000000000000000000e+00,0.000000000000000000e+00,4.000000000000000000e+00,6.400000000000000000e+02,2.727189064025878906e-01,1.738974094390869141e+00,4.765072399517226720e-01,1.000000000000000000e+00,1.000000000000000000e+00,1.120000000000000000e+02
0.000000000000000000e+00,1.000000000000000000e+00,0.000000000000000000e+00,4.000000000000000000e+00,6.430000000000000000e+02,2.754068374633789062e-01,1.575483083724975586e+00,3.188450488732119115e-01,0.000000000000000000e+00,0.000000000000000000e+00,1.120000000000000000e+02
1.000000000000000000e+00,1.000000000000000000e+00,1.000000000000000000e+00,2.000000000000000000e+00,6.440000000000000000e+02,2.821459770202636719e-01,1.592700958251953125e+00,3.116203457235792729e-01,0.000000000000000000e+00,0.000000000000000000e+00,1.120000000000000000e+02
0.000000000000000000e+00,0.000000000000000000e+00,1.000000000000000000e+00,0.000000000000000000e+00,6.430000000000000000e+02,3.328838348388671875e-01,1.685788869857788086e+00,3.640835193625694965e-01,0.000000000000000000e+00,1.000000000000000000e+00,1.110000000000000000e+02
1.000000000000000000e+00,0.000000000000000000e+00,0.000000000000000000e+00,0.000000000000000000e+00,6.420000000000000000e+02,2.445840835571289062e-01,1.711471796035766602e+00,4.921644354422378687e-01,0.000000000000000000e+00,1.000000000000000000e+00,1.120000000000000000e+02
1.000000000000000000e+00,1.000000000000000000e+00,1.000000000000000000e+00,2.000000000000000000e+00,6.430000000000000000e+02,2.669959068298339844e-01,1.586068153381347656e+00,3.284760384045825043e-01,0.000000000000000000e+00,1.000000000000000000e+00,1.110000000000000000e+02
0.000000000000000000e+00,1.000000000000000000e+00,0.000000000000000000e+00,2.000000000000000000e+00,6.440000000000000000e+02,2.756979465484619141e-01,1.538652896881103516e+00,2.838809846563992156e-01,0.000000000000000000e+00,1.000000000000000000e+00,1.120000000000000000e+02
0.000000000000000000e+00,0.000000000000000000e+00,1.000000000000000000e+00,0.000000000000000000e+00,6.430000000000000000e+02,3.267700672149658203e-01,1.894146203994750977e+00,5.777524257619212067e-01,0.000000000000000000e+00,1.000000000000000000e+00,1.110000000000000000e+02
0.000000000000000000e+00,1.000000000000000000e+00,0.000000000000000000e+00,3.000000000000000000e+00,6.450000000000000000e+02,2.824559211730957031e-01,1.737862825393676758e+00,4.658351219293234702e-01,0.000000000000000000e+00,1.000000000000000000e+00,1.120000000000000000e+02
1.000000000000000000e+00,0.000000000000000000e+00,0.000000000000000000e+00,0.000000000000000000e+00,6.440000000000000000e+02,2.575800418853759766e-01,1.640455961227416992e+00,3.897605851158325030e-01,0.000000000000000000e+00,1.000000000000000000e+00,1.110000000000000000e+02
0.000000000000000000e+00,1.000000000000000000e+00,0.000000000000000000e+00,4.000000000000000000e+00,6.470000000000000000e+02,2.902288436889648438e-01,1.943935155868530273e+00,6.667886504408031545e-01,0.000000000000000000e+00,1.000000000000000000e+00,1.120000000000000000e+02
1.000000000000000000e+00,1.000000000000000000e+00,1.000000000000000000e+00,2.000000000000000000e+00,6.480000000000000000e+02,2.572579383850097656e-01,1.666569948196411133e+00,4.170247455987176055e-01,0.000000000000000000e+00,1.000000000000000000e+00,1.110000000000000000e+02
1.000000000000000000e+00,1.000000000000000000e+00,1.000000000000000000e+00,2.000000000000000000e+00,6.490000000000000000e+02,3.006241321563720703e-01,1.729278087615966797e+00,4.296894975159931684e-01,0.000000000000000000e+00,0.000000000000000000e+00,1.110000000000000000e+02
1.000000000000000000e+00,0.000000000000000000e+00,0.000000000000000000e+00,0.000000000000000000e+00,6.480000000000000000e+02,3.611838817596435547e-01,1.907367944717407227e+00,5.703247408130920348e-01,0.000000000000000000e+00,1.000000000000000000e+00,1.120000000000000000e+02
1.000000000000000000e+00,1.000000000000000000e+00,1.000000000000000000e+00,3.000000000000000000e+00,6.500000000000000000e+02,2.495310306549072266e-01,1.864795207977294922e+00,6.184849835772598947e-01,0.000000000000000000e+00,1.000000000000000000e+00,1.110000000000000000e+02
0.000000000000000000e+00,0.000000000000000000e+00,1.000000000000000000e+00,0.000000000000000000e+00,6.490000000000000000e+02,4.530088901519775391e-01,1.787497997283935547e+00,3.396262594481149755e-01,0.000000000000000000e+00,1.000000000000000000e+00,1.120000000000000000e+02
0.000000000000000000e+00,1.000000000000000000e+00,0.000000000000000000e+00,4.000000000000000000e+00,6.520000000000000000e+02,2.426679134368896484e-01,1.662368059158325195e+00,4.353140114972341990e-01,0.000000000000000000e+00,0.000000000000000000e+00,1.120000000000000000e+02
1.000000000000000000e+00,1.000000000000000000e+00,1.000000000000000000e+00,3.000000000000000000e+00,6.540000000000000000e+02,2.432150840759277344e-01,1.949842929840087891e+00,7.182425033956904015e-01,0.000000000000000000e+00,0.000000000000000000e+00,1.120000000000000000e+02
0.000000000000000000e+00,0.000000000000000000e+00,1.000000000000000000e+00,0.000000000000000000e+00,6.530000000000000000e+02,3.141739368438720703e-01,1.977809906005859375e+00,6.628483687700369442e-01,0.000000000000000000e+00,1.000000000000000000e+00,1.110000000000000000e+02
1.000000000000000000e+00,1.000000000000000000e+00,1.000000000000000000e+00,3.000000000000000000e+00,6.550000000000000000e+02,2.385320663452148438e-01,1.731637001037597656e+00,5.113532277954351279e-01,0.000000000000000000e+00,1.000000000000000000e+00,1.120000000000000000e+02
1.000000000000000000e+00,1.000000000000000000e+00,1.000000000000000000e+00,0.000000000000000000e+00,6.550000000000000000e+02,5.523180961608886719e-02,5.705729961395263672e+00,5.339214083716429249e-01,-2.000000000000000000e+00,-2.000000000000000000e+00,1.120000000000000000e+02
1.000000000000000000e+00,1.000000000000000000e+00,1.000000000000000000e+00,3.000000000000000000e+00,6.570000000000000000e+02,2.328171730041503906e-01,1.856767892837524414e+00,6.240085738773926138e-01,0.000000000000000000e+00,0.000000000000000000e+00,1.120000000000000000e+02
0.000000000000000000e+00,1.000000000000000000e+00,0.000000000000000000e+00,2.000000000000000000e+00,6.580000000000000000e+02,2.627580165863037109e-01,1.796555042266845703e+00,5.374028809234399073e-01,0.000000000000000000e+00,0.000000000000000000e+00,1.120000000000000000e+02
1.000000000000000000e+00,0.000000000000000000e+00,0.000000000000000000e+00,0.000000000000000000e+00,6.570000000000000000e+02,2.149140834808349609e-01,1.551072120666503906e+00,3.387402769561359550e-01,0.000000000000000000e+00,1.000000000000000000e+00,1.110000000000000000e+02
1.000000000000000000e+00,1.000000000000000000e+00,1.000000000000000000e+00,1.000000000000000000e+00,6.570000000000000000e+02,2.909390926361083984e-01,1.726662874221801758e+00,4.487008667619109548e-01,0.000000000000000000e+00,1.000000000000000000e+00,1.120000000000000000e+02
0.000000000000000000e+00,0.000000000000000000e+00,1.000000000000000000e+00,0.000000000000000000e+00,6.560000000000000000e+02,4.773361682891845703e-01,1.735486984252929688e+00,2.843803028046543724e-01,0.000000000000000000e+00,0.000000000000000000e+00,1.120000000000000000e+02
0.000000000000000000e+00,1.000000000000000000e+00,0.000000000000000000e+00,3.000000000000000000e+00,6.580000000000000000e+02,3.624460697174072266e-01,1.863167047500610352e+00,4.974207538163168407e-01,0.000000000000000000e+00,0.000000000000000000e+00,1.120000000000000000e+02
1.000000000000000000e+00,1.000000000000000000e+00,1.000000000000000000e+00,4.000000000000000000e+00,6.610000000000000000e+02,2.784740924835205078e-01,1.983983993530273438e+00,7.145597947657640336e-01,0.000000000000000000e+00,0.000000000000000000e+00,1.120000000000000000e+02
0.000000000000000000e+00,1.000000000000000000e+00,0.000000000000000000e+00,3.000000000000000000e+00,6.630000000000000000e+02,2.692649364471435547e-01,1.860325813293457031e+00,6.085178679475714558e-01,0.000000000000000000e+00,0.000000000000000000e+00,1.120000000000000000e+02
1.000000000000000000e+00,0.000000000000000000e+00,0.000000000000000000e+00,0.000000000000000000e+00,6.620000000000000000e+02,2.816329002380371094e-01,1.549580812454223633e+00,2.750587677752358573e-01,1.000000000000000000e+00,1.000000000000000000e+00,1.110000000000000000e+02
0.000000000000000000e+00,1.000000000000000000e+00,0.000000000000000000e+00,3.000000000000000000e+00,6.640000000000000000e+02,2.456939220428466797e-01,1.893844127655029297e+00,6.519198904839982323e-01,0.000000000000000000e+00,1.000000000000000000e+00,1.120000000000000000e+02
1.000000000000000000e+00,0.000000000000000000e+00,0.000000000000000000e+00,0.000000000000000000e+00,6.630000000000000000e+02,2.177698612213134766e-01,1.857504844665527344e+00,6.428278483106373287e-01,0.000000000000000000e+00,1.000000000000000000e+00,1.110000000000000000e+02
1.000000000000000000e+00,0.000000000000000000e+00,0.000000000000000000e+00,0.000000000000000000e+00,6.620000000000000000e+02,3.890058994293212891e-01,1.993026018142700195e+00,6.192855680623536863e-01,0.000000000000000000e+00,0.000000000000000000e+00,1.110000000000000000e+02
1.000000000000000000e+00,0.000000000000000000e+00,0.000000000000000000e+00,0.000000000000000000e+00,6.610000000000000000e+02,3.508510589599609375e-01,2.059787034988403320e+00,7.124004759927786701e-01,0.000000000000000000e+00,0.000000000000000000e+00,1.110000000000000000e+02
0.000000000000000000e+00,1.000000000000000000e+00,0.000000000000000000e+00,3.000000000000000000e+00,6.630000000000000000e+02,3.779349327087402344e-01,1.636435985565185547e+00,2.660215031979771827e-01,0.000000000000000000e+00,1.000000000000000000e+00,1.120000000000000000e+02
0.000000000000000000e+00,0.000000000000000000e+00,1.000000000000000000e+00,0.000000000000000000e+00,6.620000000000000000e+02,3.730869293212890625e-01,1.910519123077392578e+00,5.429738721441145222e-01,0.000000000000000000e+00,1.000000000000000000e+00,1.110000000000000000e+02
0.000000000000000000e+00,0.000000000000000000e+00,1.000000000000000000e+00,0.000000000000000000e+00,6.610000000000000000e+02,2.971110343933105469e-01,1.551365852355957031e+00,2.613620891977601612e-01,0.000000000000000000e+00,0.000000000000000000e+00,1.110000000000000000e+02
0.000000000000000000e+00,1.000000000000000000e+00,0.000000000000000000e+00,2.000000000000000000e+00,6.620000000000000000e+02,3.851161003112792969e-01,1.734316825866699219e+00,3.622878295410889016e-01,0.000000000000000000e+00,0.000000000000000000e+00,1.110000000000000000e+02
1.000000000000000000e+00,0.000000000000000000e+00,0.000000000000000000e+00,0.000000000000000000e+00,6.610000000000000000e+02,3.459100723266601562e-01,2.063409090042114258e+00,7.253897416023009637e-01,0.000000000000000000e+00,1.000000000000000000e+00,1.120000000000000000e+02
1.000000000000000000e+00,0.000000000000000000e+00,0.000000000000000000e+00,0.000000000000000000e+00,6.600000000000000000e+02,2.872741222381591797e-01,1.721127986907958984e+00,4.468789646841360708e-01,0.000000000000000000e+00,1.000000000000000000e+00,1.110000000000000000e+02
0.000000000000000000e+00,0.000000000000000000e+00,1.000000000000000000e+00,0.000000000000000000e+00,6.590000000000000000e+02,4.506161212921142578e-01,1.906764984130859375e+00,4.703420889960176487e-01,0.000000000000000000e+00,1.000000000000000000e+00,1.120000000000000000e+02
0.000000000000000000e+00,0.000000000000000000e+00,1.000000000000000000e+00,0.000000000000000000e+00,6.580000000000000000e+02,2.860379219055175781e-01,1.826772928237915039e+00,5.471135079643065779e-01,0.000000000000000000e+00,1.000000000000000000e+00,1.110000000000000000e+02
1.000000000000000000e+00,1.000000000000000000e+00,1.000000000000000000e+00,2.000000000000000000e+00,6.590000000000000000e+02,3.104960918426513672e-01,1.575268983840942383e+00,2.893978972857510490e-01,0.000000000000000000e+00,0.000000000000000000e+00,1.110000000000000000e+02
1.000000000000000000e+00,1.000000000000000000e+00,1.000000000000000000e+00,2.000000000000000000e+00,6.600000000000000000e+02,6.060640811920166016e-01,1.980684041976928711e+00,3.867151435585486907e-01,0.000000000000000000e+00,1.000000000000000000e+00,1.120000000000000000e+02
1.000000000000000000e+00,1.000000000000000000e+00,1.000000000000000000e+00,2.000000000000000000e+00,6.610000000000000000e+02,4.709200859069824219e-01,1.743025064468383789e+00,2.799199362132572255e-01,0.000000000000000000e+00,0.000000000000000000e+00,1.120000000000000000e+02
1.000000000000000000e+00,1.000000000000000000e+00,1.000000000000000000e+00,4.000000000000000000e+00,6.640000000000000000e+02,3.115510940551757812e-01,1.965217113494873047e+00,6.614668519131821078e-01,0.000000000000000000e+00,0.000000000000000000e+00,1.120000000000000000e+02
1.000000000000000000e+00,0.000000000000000000e+00,0.000000000000000000e+00,0.000000000000000000e+00,6.630000000000000000e+02,3.019459247589111328e-01,1.864480972290039062e+00,5.761226703120739812e-01,0.000000000000000000e+00,1.000000000000000000e+00,1.110000000000000000e+02
1.000000000000000000e+00,1.000000000000000000e+00,1.000000000000000000e+00,3.000000000000000000e+00,6.650000000000000000e+02,3.014750480651855469e-01,1.712949991226196289e+00,4.226122667656345144e-01,0.000000000000000000e+00,1.000000000000000000e+00,1.120000000000000000e+02
1.000000000000000000e+00,0.000000000000000000e+00,0.000000000000000000e+00,0.000000000000000000e+00,6.640000000000000000e+02,3.148851394653320312e-01,1.741760969161987305e+00,4.310994343964572595e-01,0.000000000000000000e+00,1.000000000000000000e+00,1.110000000000000000e+02
1.000000000000000000e+00,1.000000000000000000e+00,1.000000000000000000e+00,2.000000000000000000e+00,6.650000000000000000e+02,3.106498718261718750e-01,1.871463775634765625e+00,5.691490666080244454e-01,0.000000000000000000e+00,1.000000000000000000e+00,1.120000000000000000e+02
0.000000000000000000e+00,0.000000000000000000e+00,1.000000000000000000e+00,0.000000000000000000e+00,6.640000000000000000e+02,5.362861156463623047e-01,1.971053838729858398e+00,4.404257753650399065e-01,0.000000000000000000e+00,1.000000000000000000e+00,1.110000000000000000e+02
0.000000000000000000e+00,0.000000000000000000e+00,1.000000000000000000e+00,0.000000000000000000e+00,6.630000000000000000e+02,3.306128978729248047e-01,2.073037862777709961e+00,7.465369074802690186e-01,0.000000000000000000e+00,1.000000000000000000e+00,1.120000000000000000e+02
0.000000000000000000e+00,0.000000000000000000e+00,1.000000000000000000e+00,0.000000000000000000e+00,6.620000000000000000e+02,5.240030288696289062e-01,2.229356050491333008e+00,7.259956516870949006e-01,0.000000000000000000e+00,1.000000000000000000e+00,1.110000000000000000e+02
0.000000000000000000e+00,0.000000000000000000e+00,1.000000000000000000e+00,0.000000000000000000e+00,6.610000000000000000e+02,2.887759208679199219e-01,1.552240133285522461e+00,2.787648831483798273e-01,0.000000000000000000e+00,0.000000000000000000e+00,1.110000000000000000e+02
0.000000000000000000e+00,0.000000000000000000e+00,1.000000000000000000e+00,0.000000000000000000e+00,6.600000000000000000e+02,3.488290309906005859e-01,1.946701049804687500e+00,6.085207184629102262e-01,0.000000000000000000e+00,0.000000000000000000e+00,1.110000000000000000e+02
0.000000000000000000e+00,1.000000000000000000e+00,0.000000000000000000e+00,2.000000000000000000e+00,6.610000000000000000e+02,2.409160137176513672e-01,1.770147800445556641e+00,5.454687625003467044e-01,0.000000000000000000e+00,1.000000000000000000e+00,1.120000000000000000e+02
1.000000000000000000e+00,1.000000000000000000e+00,1.000000000000000000e+00,1.000000000000000000e+00,6.610000000000000000e+02,3.123919963836669922e-01,1.985638141632080078e+00,6.810180864625885455e-01,0.000000000000000000e+00,1.000000000000000000e+00,1.110000000000000000e+02
1.000000000000000000e+00,1.000000000000000000e+00,1.000000000000000000e+00,3.000000000000000000e+00,6.630000000000000000e+02,2.611391544342041016e-01,1.697166919708251953e+00,4.618134668326295822e-01,0.000000000000000000e+00,0.000000000000000000e+00,1.110000000000000000e+02
1.000000000000000000e+00,1.000000000000000000e+00,1.000000000000000000e+00,2.000000000000000000e+00,6.640000000000000000e+02,3.792099952697753906e-01,1.826560020446777344e+00,4.551092288247247652e-01,0.000000000000000000e+00,0.000000000000000000e+00,1.110000000000000000e+02
0.000000000000000000e+00,0.000000000000000000e+00,1.000000000000000000e+00,0.000000000000000000e+00,6.630000000000000000e+02,3.469219207763671875e-01,2.059244871139526367e+00,7.141517680829040371e-01,0.000000000000000000e+00,0.000000000000000000e+00,1.110000000000000000e+02
0.000000000000000000e+00,1.000000000000000000e+00,0.000000000000000000e+00,2.000000000000000000e+00,6.640000000000000000e+02,3.229558467864990234e-01,1.643093109130859375e+00,3.409975607325543279e-01,0.000000000000000000e+00,1.000000000000000000e+00,1.120000000000000000e+02
1.000000000000000000e+00,0.000000000000000000e+00,0.000000000000000000e+00,0.000000000000000000e+00,6.630000000000000000e+02,4.288990497589111328e-01,1.739171981811523438e+00,3.136214290959217221e-01,0.000000000000000000e+00,1.000000000000000000e+00,1.110000000000000000e+02
0.000000000000000000e+00,1.000000000000000000e+00,0.000000000000000000e+00,3.000000000000000000e+00,6.650000000000000000e+02,3.708398342132568359e-01,2.023628950119018555e+00,6.703338185878993105e-01,1.000000000000000000e+00,1.000000000000000000e+00,1.120000000000000000e+02
1.000000000000000000e+00,1.000000000000000000e+00,1.000000000000000000e+00,4.000000000000000000e+00,6.680000000000000000e+02,3.534920215606689453e-01,1.808967828750610352e+00,4.628655305487067717e-01,0.000000000000000000e+00,0.000000000000000000e+00,1.120000000000000000e+02
0.000000000000000000e+00,0.000000000000000000e+00,1.000000000000000000e+00,0.000000000000000000e+00,6.670000000000000000e+02,3.304212093353271484e-01,1.617305994033813477e+00,2.970434998420505290e-01,0.000000000000000000e+00,1.000000000000000000e+00,1.110000000000000000e+02
1.000000000000000000e+00,1.000000000000000000e+00,1.000000000000000000e+00,1.000000000000000000e+00,6.670000000000000000e+02,2.949349880218505859e-01,1.556282997131347656e+00,2.867412095910089609e-01,0.000000000000000000e+00,1.000000000000000000e+00,1.120000000000000000e+02
1.000000000000000000e+00,1.000000000000000000e+00,1.000000000000000000e+00,0.000000000000000000e+00,6.660000000000000000e+02,4.391779899597167969e-01,1.788413047790527344e+00,3.584645236316899575e-01,0.000000000000000000e+00,1.000000000000000000e+00,1.110000000000000000e+02
1.000000000000000000e+00,1.000000000000000000e+00,1.000000000000000000e+00,3.000000000000000000e+00,6.680000000000000000e+02,2.409238815307617188e-01,1.578282117843627930e+00,3.534916734157225737e-01,0.000000000000000000e+00,1.000000000000000000e+00,1.120000000000000000e+02
1.000000000000000000e+00,0.000000000000000000e+00,0.000000000000000000e+00,0.000000000000000000e+00,6.670000000000000000e+02,2.656428813934326172e-01,1.564693927764892578e+00,3.016549829336437338e-01,0.000000000000000000e+00,0.000000000000000000e+00,1.120000000000000000e+02
1.000000000000000000e+00,0.000000000000000000e+00,0.000000000000000000e+00,0.000000000000000000e+00,6.660000000000000000e+02,3.220810890197753906e-01,1.663406848907470703e+00,3.483912130167245991e-01,0.000000000000000000e+00,1.000000000000000000e+00,1.110000000000000000e+02
1.000000000000000000e+00,0.000000000000000000e+00,0.000000000000000000e+00,0.000000000000000000e+00,6.650000000000000000e+02,3.172349929809570312e-01,1.719995975494384766e+00,4.183838396720621633e-01,0.000000000000000000e+00,0.000000000000000000e+00,1.110000000000000000e+02
1.000000000000000000e+00,1.000000000000000000e+00,1.000000000000000000e+00,0.000000000000000000e+00,6.650000000000000000e+02,9.903907775878906250e-02,5.889621019363403320e+00,6.579757830595094337e-01,-2.000000000000000000e+00,-2.000000000000000000e+00,1.120000000000000000e+02
1.000000000000000000e+00,0.000000000000000000e+00,0.000000000000000000e+00,0.000000000000000000e+00,6.640000000000000000e+02,2.508509159088134766e-01,1.546640872955322266e+00,3.050422921953248601e-01,0.000000000000000000e+00,1.000000000000000000e+00,1.110000000000000000e+02
1.000000000000000000e+00,0.000000000000000000e+00,0.000000000000000000e+00,0.000000000000000000e+00,6.630000000000000000e+02,3.468420505523681641e-01,1.802241086959838867e+00,4.571877684833101640e-01,0.000000000000000000e+00,0.000000000000000000e+00,1.110000000000000000e+02
0.000000000000000000e+00,0.000000000000000000e+00,1.000000000000000000e+00,0.000000000000000000e+00,6.620000000000000000e+02,3.569269180297851562e-01,1.664700031280517578e+00,3.220971479760602607e-01,0.000000000000000000e+00,0.000000000000000000e+00,1.110000000000000000e+02
1.000000000000000000e+00,1.000000000000000000e+00,1.000000000000000000e+00,2.000000000000000000e+00,6.630000000000000000e+02,4.803328514099121094e-01,2.010178089141845703e+00,5.321168319464800733e-01,0.000000000000000000e+00,0.000000000000000000e+00,1.110000000000000000e+02
1.000000000000000000e+00,1.000000000000000000e+00,1.000000000000000000e+00,3.000000000000000000e+00,6.650000000000000000e+02,6.287209987640380859e-01,1.923424959182739258e+00,2.892019507716851456e-01,0.000000000000000000e+00,1.000000000000000000e+00,1.120000000000000000e+02
1.000000000000000000e+00,0.000000000000000000e+00,0.000000000000000000e+00,0.000000000000000000e+00,6.640000000000000000e+02,6.411421298980712891e-01,2.003043174743652344e+00,3.755447371124236988e-01,0.000000000000000000e+00,1.000000000000000000e+00,1.110000000000000000e+02
0.000000000000000000e+00,1.000000000000000000e+00,0.000000000000000000e+00,0.000000000000000000e+00,6.640000000000000000e+02,1.146269083023071289e+00,2.639518976211547852e+00,4.817113051206542429e-01,-1.000000000000000000e+00,-1.000000000000000000e+00,1.120000000000000000e+02
0.000000000000000000e+00,0.000000000000000000e+00,1.000000000000000000e+00,0.000000000000000000e+00,6.630000000000000000e+02,4.359419345855712891e-01,1.890120029449462891e+00,4.719294199578618620e-01,0.000000000000000000e+00,1.000000000000000000e+00,1.110000000000000000e+02
1.000000000000000000e+00,1.000000000000000000e+00,1.000000000000000000e+00,2.000000000000000000e+00,6.640000000000000000e+02,3.609941005706787109e-01,1.652620077133178711e+00,2.748135171517439579e-01,0.000000000000000000e+00,1.000000000000000000e+00,1.120000000000000000e+02
0.000000000000000000e+00,0.000000000000000000e+00,1.000000000000000000e+00,0.000000000000000000e+00,6.630000000000000000e+02,2.861161231994628906e-01,1.910151004791259766e+00,6.346601253743671123e-01,0.000000000000000000e+00,0.000000000000000000e+00,1.120000000000000000e+02
0.000000000000000000e+00,0.000000000000000000e+00,1.000000000000000000e+00,0.000000000000000000e+00,6.620000000000000000e+02,2.734789848327636719e-01,1.921314001083374023e+00,6.560142426996569132e-01,0.000000000000000000e+00,0.000000000000000000e+00,1.120000000000000000e+02
1.000000000000000000e+00,0.000000000000000000e+00,0.000000000000000000e+00,0.000000000000000000e+00,6.610000000000000000e+02,3.079180717468261719e-01,1.811982154846191406e+00,5.181930848318752059e-01,0.000000000000000000e+00,0.000000000000000000e+00,1.120000000000000000e+02
0.000000000000000000e+00,0.000000000000000000e+00,1.000000000000000000e+00,0.000000000000000000e+00,6.600000000000000000e+02,3.283090591430664062e-01,1.701308965682983398e+00,3.863773573563127894e-01,0.000000000000000000e+00,0.000000000000000000e+00,1.120000000000000000e+02
0.000000000000000000e+00,0.000000000000000000e+00,1.000000000000000000e+00,0.000000000000000000e+00,6.590000000000000000e+02,2.533380985260009766e-01,1.951772928237915039e+00,7.045745824626450382e-01,0.000000000000000000e+00,0.000000000000000000e+00,1.120000000000000000e+02
0.000000000000000000e+00,1.000000000000000000e+00,0.000000000000000000e+00,3.000000000000000000e+00,6.610000000000000000e+02,2.594079971313476562e-01,1.510081052780151367e+00,2.651650792698198034e-01,0.000000000000000000e+00,1.000000000000000000e+00,1.110000000000000000e+02
1.000000000000000000e+00,0.000000000000000000e+00,0.000000000000000000e+00,0.000000000000000000e+00,6.600000000000000000e+02,3.264400959014892578e-01,1.800690174102783203e+00,4.989647268958927739e-01,0.000000000000000000e+00,0.000000000000000000e+00,1.110000000000000000e+02
0.000000000000000000e+00,1.000000000000000000e+00,0.000000000000000000e+00,2.000000000000000000e+00,6.610000000000000000e+02,2.538831233978271484e-01,1.844275951385498047e+00,5.931938781425853957e-01,0.000000000000000000e+00,1.000000000000000000e+00,1.120000000000000000e+02
1.000000000000000000e+00,0.000000000000000000e+00,0.000000000000000000e+00,0.000000000000000000e+00,6.600000000000000000e+02,2.755708694458007812e-01,1.726351976394653320e+00,4.697895837957355436e-01,0.000000000000000000e+00,1.000000000000000000e+00,1.110000000000000000e+02
1.000000000000000000e+00,0.000000000000000000e+00,0.000000000000000000e+00,0.000000000000000000e+00,6.590000000000000000e+02,4.043650627136230469e-01,1.920609951019287109e+00,5.237023054327758498e-01,0.000000000000000000e+00,0.000000000000000000e+00,1.110000000000000000e+02
0.000000000000000000e+00,1.000000000000000000e+00,0.000000000000000000e+00,3.000000000000000000e+00,6.610000000000000000e+02,3.046820163726806641e-01,1.674943923950195312e+00,3.821822516436085837e-01,0.000000000000000000e+00,1.000000000000000000e+00,1.120000000000000000e+02
0.000000000000000000e+00,1.000000000000000000e+00,0.000000000000000000e+00,3.000000000000000000e+00,6.630000000000000000e+02,2.835059165954589844e-01,1.555850982666015625e+00,2.715632050275334497e-01,0.000000000000000000e+00,1.000000000000000000e+00,1.110000000000000000e+02
1.000000000000000000e+00,1.000000000000000000e+00,1.000000000000000000e+00,4.000000000000000000e+00,6.660000000000000000e+02,3.414580821990966797e-01,1.755715131759643555e+00,4.271823647731901596e-01,0.000000000000000000e+00,1.000000000000000000e+00,1.120000000000000000e+02
1.000000000000000000e+00,0.000000000000000000e+00,0.000000000000000000e+00,0.000000000000000000e+00,6.650000000000000000e+02,3.544809818267822266e-01,1.630419969558715820e+00,2.911576058468295924e-01,1.000000000000000000e+00,1.000000000000000000e+00,1.110000000000000000e+02
1.000000000000000000e+00,0.000000000000000000e+00,0.000000000000000000e+00,0.000000000000000000e+00,6.640000000000000000e+02,3.282458782196044922e-01,2.020951986312866211e+00,7.117109226279112466e-01,0.000000000000000000e+00,0.000000000000000000e+00,1.110000000000000000e+02
0.000000000000000000e+00,1.000000000000000000e+00,0.000000000000000000e+00,2.000000000000000000e+00,6.650000000000000000e+02,2.886970043182373047e-01,1.970458030700683594e+00,6.989306183289138996e-01,0.000000000000000000e+00,0.000000000000000000e+00,1.110000000000000000e+02
1.000000000000000000e+00,0.000000000000000000e+00,0.000000000000000000e+00,0.000000000000000000e+00,6.640000000000000000e+02,2.883698940277099609e-01,1.966522932052612305e+00,6.822066296252681239e-01,0.000000000000000000e+00,0.000000000000000000e+00,1.110000000000000000e+02
1.000000000000000000e+00,0.000000000000000000e+00,0.000000000000000000e+00,0.000000000000000000e+00,6.630000000000000000e+02,2.937490940093994141e-01,1.869635105133056641e+00,5.853152131326417873e-01,0.000000000000000000e+00,0.000000000000000000e+00,1.110000000000000000e+02
1.000000000000000000e+00,1.000000000000000000e+00,1.000000000000000000e+00,3.000000000000000000e+00,6.650000000000000000e+02,3.091900348663330078e-01,2.044621944427490234e+00,7.464846419730071236e-01,0.000000000000000000e+00,1.000000000000000000e+00,1.120000000000000000e+02
0.000000000000000000e+00,0.000000000000000000e+00,1.000000000000000000e+00,0.000000000000000000e+00,6.640000000000000000e+02,4.239010810852050781e-01,1.876334190368652344e+00,4.731934943510136549e-01,0.000000000000000000e+00,1.000000000000000000e+00,1.110000000000000000e+02
0.000000000000000000e+00,0.000000000000000000e+00,1.000000000000000000e+00,0.000000000000000000e+00,6.630000000000000000e+02,2.796478271484375000e-01,1.700049877166748047e+00,4.400120777158851304e-01,0.000000000000000000e+00,0.000000000000000000e+00,1.110000000000000000e+02
1.000000000000000000e+00,1.000000000000000000e+00,1.000000000000000000e+00,2.000000000000000000e+00,6.640000000000000000e+02,2.706630229949951172e-01,1.818499088287353516e+00,5.584680291804051677e-01,0.000000000000000000e+00,1.000000000000000000e+00,1.120000000000000000e+02
1.000000000000000000e+00,1.000000000000000000e+00,1.000000000000000000e+00,3.000000000000000000e+00,6.660000000000000000e+02,2.890789508819580078e-01,1.541361093521118164e+00,2.668575944001734257e-01,0.000000000000000000e+00,1.000000000000000000e+00,1.110000000000000000e+02
0.000000000000000000e+00,0.000000000000000000e+00,1.000000000000000000e+00,0.000000000000000000e+00,6.650000000000000000e+02,7.821769714355468750e-01,2.438659906387329102e+00,6.551816261445932987e-01,0.000000000000000000e+00,1.000000000000000000e+00,1.120000000000000000e+02
1.000000000000000000e+00,1.000000000000000000e+00,1.000000000000000000e+00,3.000000000000000000e+00,6.670000000000000000e+02,3.649289608001708984e-01,1.948612213134765625e+00,5.872659747220843052e-01,0.000000000000000000e+00,0.000000000000000000e+00,1.120000000000000000e+02
0.000000000000000000e+00,1.000000000000000000e+00,0.000000000000000000e+00,3.000000000000000000e+00,6.690000000000000000e+02,3.219430446624755859e-01,1.908838033676147461e+00,5.962094888277362781e-01,0.000000000000000000e+00,1.000000000000000000e+00,1.110000000000000000e+02
0.000000000000000000e+00,1.000000000000000000e+00,0.000000000000000000e+00,2.000000000000000000e+00,6.700000000000000000e+02,5.591089725494384766e-01,1.824877977371215820e+00,2.881123338994019401e-01,0.000000000000000000e+00,1.000000000000000000e+00,1.120000000000000000e+02
1.000000000000000000e+00,0.000000000000000000e+00,0.000000000000000000e+00,0.000000000000000000e+00,6.690000000000000000e+02,5.208089351654052734e-01,2.166790962219238281e+00,6.545890668460588868e-01,0.000000000000000000e+00,0.000000000000000000e+00,1.120000000000000000e+02
0.000000000000000000e+00,1.000000000000000000e+00,0.000000000000000000e+00,2.000000000000000000e+00,6.700000000000000000e+02,3.162028789520263672e-01,2.029202938079833984e+00,7.171453267875054216e-01,0.000000000000000000e+00,1.000000000000000000e+00,1.110000000000000000e+02
1.000000000000000000e+00,0.000000000000000000e+00,0.000000000000000000e+00,0.000000000000000000e+00,6.690000000000000000e+02,2.929840087890625000e-01,1.592597961425781250e+00,3.102127605170513225e-01,0.000000000000000000e+00,0.000000000000000000e+00,1.110000000000000000e+02
1.000000000000000000e+00,0.000000000000000000e+00,0.000000000000000000e+00,0.000000000000000000e+00,6.680000000000000000e+02,2.696781158447265625e-01,1.742166996002197266e+00,4.855876359178350476e-01,0.000000000000000000e+00,0.000000000000000000e+00,1.110000000000000000e+02
0.000000000000000000e+00,0.000000000000000000e+00,1.000000000000000000e+00,0.000000000000000000e+00,6.670000000000000000e+02,2.907190322875976562e-01,1.722249031066894531e+00,4.412826232747740218e-01,0.000000000000000000e+00,0.000000000000000000e+00,1.110000000000000000e+02
0.000000000000000000e+00,0.000000000000000000e+00,1.000000000000000000e+00,0.000000000000000000e+00,6.660000000000000000e+02,3.651378154754638672e-01,1.997719049453735352e+00,6.388704653120924615e-01,0.000000000000000000e+00,1.000000000000000000e+00,1.120000000000000000e+02
1.000000000000000000e+00,1.000000000000000000e+00,1.000000000000000000e+00,4.000000000000000000e+00,6.690000000000000000e+02,2.441620826721191406e-01,1.615453958511352539e+00,3.879694060516741261e-01,0.000000000000000000e+00,1.000000000000000000e+00,1.110000000000000000e+02
0.000000000000000000e+00,0.000000000000000000e+00,1.000000000000000000e+00,0.000000000000000000e+00,6.680000000000000000e+02,5.035500526428222656e-01,2.166059017181396484e+00,6.705159989824566180e-01,0.000000000000000000e+00,0.000000000000000000e+00,1.110000000000000000e+02
0.000000000000000000e+00,1.000000000000000000e+00,0.000000000000000000e+00,2.000000000000000000e+00,6.690000000000000000e+02,3.229458332061767578e-01,1.976418972015380859e+00,6.636438077882178543e-01,0.000000000000000000e+00,0.000000000000000000e+00,1.110000000000000000e+02
1.000000000000000000e+00,1.000000000000000000e+00,1.000000000000000000e+00,3.000000000000000000e+00,6.710000000000000000e+02,3.213779926300048828e-01,2.051100015640258789e+00,7.480812337907662979e-01,0.000000000000000000e+00,0.000000000000000000e+00,1.110000000000000000e+02
0.000000000000000000e+00,0.000000000000000000e+00,1.000000000000000000e+00,0.000000000000000000e+00,6.700000000000000000e+02,4.674398899078369141e-01,2.186514854431152344e+00,7.346680809742422991e-01,0.000000000000000000e+00,0.000000000000000000e+00,1.110000000000000000e+02
1.000000000000000000e+00,1.000000000000000000e+00,1.000000000000000000e+00,4.000000000000000000e+00,6.730000000000000000e+02,3.275098800659179688e-01,2.003403186798095703e+00,6.881973892810269167e-01,0.000000000000000000e+00,0.000000000000000000e+00,1.110000000000000000e+02
1.000000000000000000e+00,1.000000000000000000e+00,1.000000000000000000e+00,3.000000000000000000e+00,6.750000000000000000e+02,3.285691738128662109e-01,1.860482931137084961e+00,5.322543138278430508e-01,0.000000000000000000e+00,0.000000000000000000e+00,1.110000000000000000e+02
1.000000000000000000e+00,1.000000000000000000e+00,1.000000000000000000e+00,2.000000000000000000e+00,6.760000000000000000e+02,3.339951038360595703e-01,1.751610994338989258e+00,4.173738586846912346e-01,0.000000000000000000e+00,0.000000000000000000e+00,1.110000000000000000e+02
0.000000000000000000e+00,0.000000000000000000e+00,1.000000000000000000e+00,0.000000000000000000e+00,6.750000000000000000e+02,3.510007858276367188e-01,1.935322046279907227e+00,5.858932619442518419e-01,0.000000000000000000e+00,0.000000000000000000e+00,1.110000000000000000e+02
1.000000000000000000e+00,0.000000000000000000e+00,0.000000000000000000e+00,0.000000000000000000e+00,6.740000000000000000e+02,3.137650489807128906e-01,1.760947942733764648e+00,4.470955348642695615e-01,0.000000000000000000e+00,0.000000000000000000e+00,1.110000000000000000e+02
1.000000000000000000e+00,1.000000000000000000e+00,1.000000000000000000e+00,4.000000000000000000e+00,6.770000000000000000e+02,5.219278335571289062e-01,1.999704122543334961e+00,4.967862890336696702e-01,1.000000000000000000e+00,1.000000000000000000e+00,1.120000000000000000e+02
1.000000000000000000e+00,1.000000000000000000e+00,1.000000000000000000e+00,4.000000000000000000e+00,6.800000000000000000e+02,3.659369945526123047e-01,1.624409914016723633e+00,2.715269282018378250e-01,0.000000000000000000e+00,0.000000000000000000e+00,1.120000000000000000e+02
1.000000000000000000e+00,1.000000000000000000e+00,1.000000000000000000e+00,3.000000000000000000e+00,6.820000000000000000e+02,4.426279067993164062e-01,2.081082105636596680e+00,6.522626137512285149e-01,0.000000000000000000e+00,0.000000000000000000e+00,1.120000000000000000e+02
0.000000000000000000e+00,1.000000000000000000e+00,0.000000000000000000e+00,3.000000000000000000e+00,6.840000000000000000e+02,3.013088703155517578e-01,1.720360994338989258e+00,4.229273428867659779e-01,0.000000000000000000e+00,0.000000000000000000e+00,1.120000000000000000e+02
1.000000000000000000e+00,1.000000000000000000e+00,1.000000000000000000e+00,2.000000000000000000e+00,6.850000000000000000e+02,3.407139778137207031e-01,1.598567008972167969e+00,2.716383989302957325e-01,0.000000000000000000e+00,0.000000000000000000e+00,1.120000000000000000e+02
1.000000000000000000e+00,0.000000000000000000e+00,0.000000000000000000e+00,0.000000000000000000e+00,6.850000000000000000e+02,1.693845987319946289e+00,3.121932983398437500e+00,4.103122543465657079e-01,-1.000000000000000000e+00,-1.000000000000000000e+00,1.110000000000000000e+02
1.000000000000000000e+00,1.000000000000000000e+00,1.000000000000000000e+00,2.000000000000000000e+00,6.860000000000000000e+02,4.153480529785156250e-01,1.970472097396850586e+00,5.639633866854313338e-01,0.000000000000000000e+00,1.000000000000000000e+00,1.120000000000000000e+02
0.000000000000000000e+00,1.000000000000000000e+00,0.000000000000000000e+00,1.000000000000000000e+00,6.860000000000000000e+02,1.806919574737548828e-01,1.542026996612548828e+00,3.729293147202988323e-01,0.000000000000000000e+00,0.000000000000000000e+00,1.120000000000000000e+02
1.000000000000000000e+00,0.000000000000000000e+00,0.000000000000000000e+00,0.000000000000000000e+00,6.850000000000000000e+02,3.637139797210693359e-01,1.853667020797729492e+00,4.932311713755100913e-01,0.000000000000000000e+00,1.000000000000000000e+00,1.110000000000000000e+02
1.000000000000000000e+00,1.000000000000000000e+00,1.000000000000000000e+00,3.000000000000000000e+00,6.870000000000000000e+02,3.557829856872558594e-01,1.827265977859497070e+00,4.872071789581491341e-01,0.000000000000000000e+00,1.000000000000000000e+00,1.120000000000000000e+02
0.000000000000000000e+00,0.000000000000000000e+00,1.000000000000000000e+00,0.000000000000000000e+00,6.860000000000000000e+02,2.485229969024658203e-01,1.848011016845703125e+00,6.018081114832045664e-01,0.000000000000000000e+00,0.000000000000000000e+00,1.120000000000000000e+02
0.000000000000000000e+00,1.000000000000000000e+00,0.000000000000000000e+00,3.000000000000000000e+00,6.880000000000000000e+02,2.775361537933349609e-01,1.531044006347656250e+00,2.666390166148177032e-01,0.000000000000000000e+00,1.000000000000000000e+00,1.110000000000000000e+02
0.000000000000000000e+00,0.000000000000000000e+00,1.000000000000000000e+00,0.000000000000000000e+00,6.870000000000000000e+02,5.122518539428710938e-01,2.227375984191894531e+00,7.103014651899081100e-01,0.000000000000000000e+00,0.000000000000000000e+00,1.110000000000000000e+02
1.000000000000000000e+00,0.000000000000000000e+00,0.000000000000000000e+00,0.000000000000000000e+00,6.860000000000000000e+02,3.326909542083740234e-01,1.863156080245971680e+00,5.403528261544476852e-01,0.000000000000000000e+00,0.000000000000000000e+00,1.110000000000000000e+02
1.000000000000000000e+00,0.000000000000000000e+00,0.000000000000000000e+00,0.000000000000000000e+00,6.850000000000000000e+02,2.730710506439208984e-01,1.511235952377319336e+00,2.519606338293120529e-01,0.000000000000000000e+00,0.000000000000000000e+00,1.110000000000000000e+02
0.000000000000000000e+00,1.000000000000000000e+00,0.000000000000000000e+00,2.000000000000000000e+00,6.860000000000000000e+02,3.135490417480468750e-01,1.745790004730224609e+00,4.308755197975674966e-01,0.000000000000000000e+00,0.000000000000000000e+00,1.110000000000000000e+02
1.000000000000000000e+00,1.000000000000000000e+00,1.000000000000000000e+00,3.000000000000000000e+00,6.880000000000000000e+02,3.829431533813476562e-01,1.860558986663818359e+00,4.914956528131689262e-01,0.000000000000000000e+00,1.000000000000000000e+00,1.120000000000000000e+02
1.000000000000000000e+00,1.000000000000000000e+00,1.000000000000000000e+00,2.000000000000000000e+00,6.890000000000000000e+02,3.326179981231689453e-01,1.714535236358642578e+00,3.895535896039746260e-01,0.000000000000000000e+00,1.000000000000000000e+00,1.110000000000000000e+02
0.000000000000000000e+00,0.000000000000000000e+00,1.000000000000000000e+00,0.000000000000000000e+00,6.880000000000000000e+02,4.890081882476806641e-01,1.935032844543457031e+00,4.579409211977174543e-01,0.000000000000000000e+00,1.000000000000000000e+00,1.120000000000000000e+02
1.000000000000000000e+00,1.000000000000000000e+00,1.000000000000000000e+00,2.000000000000000000e+00,6.890000000000000000e+02,3.087849617004394531e-01,1.659386157989501953e+00,3.674567915350711034e-01,0.000000000000000000e+00,0.000000000000000000e+00,1.120000000000000000e+02
1.000000000000000000e+00,0.000000000000000000e+00,0.000000000000000000e+00,0.000000000000000000e+00,6.880000000000000000e+02,3.681998252868652344e-01,1.857879877090454102e+00,4.919488273529235567e-01,0.000000000000000000e+00,1.000000000000000000e+00,1.110000000000000000e+02
1.000000000000000000e+00,1.000000000000000000e+00,1.000000000000000000e+00,4.000000000000000000e+00,6.910000000000000000e+02,4.242241382598876953e-01,1.860917091369628906e+00,4.529804397206871891e-01,0.000000000000000000e+00,1.000000000000000000e+00,1.120000000000000000e+02
0.000000000000000000e+00,0.000000000000000000e+00,1.000000000000000000e+00,0.000000000000000000e+00,6.900000000000000000e+02,3.525450229644775391e-01,1.665688037872314453e+00,3.188631349820089667e-01,0.000000000000000000e+00,1.000000000000000000e+00,1.110000000000000000e+02
1.000000000000000000e+00,0.000000000000000000e+00,0.000000000000000000e+00,0.000000000000000000e+00,6.890000000000000000e+02,3.319458961486816406e-01,2.076879024505615234e+00,7.453448256801280536e-01,0.000000000000000000e+00,0.000000000000000000e+00,1.110000000000000000e+02
0.000000000000000000e+00,0.000000000000000000e+00,1.000000000000000000e+00,0.000000000000000000e+00,6.880000000000000000e+02,3.133459091186523438e-01,1.953248977661132812e+00,6.488052400295780675e-01,0.000000000000000000e+00,0.000000000000000000e+00,1.110000000000000000e+02
0.000000000000000000e+00,1.000000000000000000e+00,0.000000000000000000e+00,2.000000000000000000e+00,6.890000000000000000e+02,4.307460784912109375e-01,2.143841028213500977e+00,7.093010673953283884e-01,0.000000000000000000e+00,0.000000000000000000e+00,1.110000000000000000e+02
0.000000000000000000e+00,0.000000000000000000e+00,1.000000000000000000e+00,0.000000000000000000e+00,6.880000000000000000e+02,3.755860328674316406e-01,2.030279159545898438e+00,6.730244601933326187e-01,0.000000000000000000e+00,0.000000000000000000e+00,1.110000000000000000e+02
1.000000000000000000e+00,0.000000000000000000e+00,0.000000000000000000e+00,0.000000000000000000e+00,6.870000000000000000e+02,3.112771511077880859e-01,1.784597873687744141e+00,4.911961318834236478e-01,0.000000000000000000e+00,0.000000000000000000e+00,1.110000000000000000e+02
0.000000000000000000e+00,0.000000000000000000e+00,1.000000000000000000e+00,0.000000000000000000e+00,6.860000000000000000e+02,4.270291328430175781e-01,2.017713069915771484e+00,6.088906576924090208e-01,0.000000000000000000e+00,0.000000000000000000e+00,1.110000000000000000e+02
0.000000000000000000e+00,1.000000000000000000e+00,0.000000000000000000e+00,2.000000000000000000e+00,6.870000000000000000e+02,6.924231052398681641e-01,2.064059972763061523e+00,3.899358863546819598e-01,0.000000000000000000e+00,1.000000000000000000e+00,1.120000000000000000e+02
1.000000000000000000e+00,1.000000000000000000e+00,1.000000000000000000e+00,3.000000000000000000e+00,6.890000000000000000e+02,5.558681488037109375e-01,2.016044139862060547e+00,4.726103846841737122e-01,0.000000000000000000e+00,1.000000000000000000e+00,1.110000000000000000e+02
0.000000000000000000e+00,0.000000000000000000e+00,1.000000000000000000e+00,0.000000000000000000e+00,6.880000000000000000e+02,4.742710590362548828e-01,2.175245046615600586e+00,7.143298159521355162e-01,0.000000000000000000e+00,0.000000000000000000e+00,1.110000000000000000e+02
0.000000000000000000e+00,0.000000000000000000e+00,1.000000000000000000e+00,0.000000000000000000e+00,6.870000000000000000e+02,2.046289443969726562e-01,1.688426971435546875e+00,5.030543999089420737e-01,0.000000000000000000e+00,0.000000000000000000e+00,1.110000000000000000e+02
0.000000000000000000e+00,0.000000000000000000e+00,1.000000000000000000e+00,0.000000000000000000e+00,6.860000000000000000e+02,2.756848335266113281e-01,1.822786092758178711e+00,5.591647950960852986e-01,0.000000000000000000e+00,0.000000000000000000e+00,1.110000000000000000e+02
0.000000000000000000e+00,1.000000000000000000e+00,0.000000000000000000e+00,2.000000000000000000e+00,6.870000000000000000e+02,1.160640716552734375e-01,1.412118911743164062e+00,3.049634102843012951e-01,0.000000000000000000e+00,0.000000000000000000e+00,1.110000000000000000e+02
0.000000000000000000e+00,0.000000000000000000e+00,1.000000000000000000e+00,0.000000000000000000e+00,6.860000000000000000e+02,4.813759326934814453e-01,2.147691011428833008e+00,6.690282461953818149e-01,0.000000000000000000e+00,0.000000000000000000e+00,1.110000000000000000e+02
1.000000000000000000e+00,0.000000000000000000e+00,0.000000000000000000e+00,0.000000000000000000e+00,6.850000000000000000e+02,4.424459934234619141e-01,1.696791172027587891e+00,2.662945211539800572e-01,0.000000000000000000e+00,0.000000000000000000e+00,1.110000000000000000e+02
0.000000000000000000e+00,0.000000000000000000e+00,1.000000000000000000e+00,0.000000000000000000e+00,6.840000000000000000e+02,3.825368881225585938e-01,2.072653055191040039e+00,6.885583172813012354e-01,1.000000000000000000e+00,0.000000000000000000e+00,1.110000000000000000e+02
0.000000000000000000e+00,1.000000000000000000e+00,0.000000000000000000e+00,0.000000000000000000e+00,6.830000000000000000e+02,3.139441013336181641e-01,1.779779911041259766e+00,4.686471465893600197e-01,0.000000000000000000e+00,1.000000000000000000e+00,1.120000000000000000e+02
0.000000000000000000e+00,1.000000000000000000e+00,0.000000000000000000e+00,3.000000000000000000e+00,6.850000000000000000e+02,2.826859951019287109e-01,1.597474098205566406e+00,3.163618149438098270e-01,0.000000000000000000e+00,0.000000000000000000e+00,1.120000000000000000e+02
0.000000000000000000e+00,0.000000000000000000e+00,1.000000000000000000e+00,0.000000000000000000e+00,6.840000000000000000e+02,3.238310813903808594e-01,1.584454059600830078e+00,2.675624179592282492e-01,0.000000000000000000e+00,1.000000000000000000e+00,1.110000000000000000e+02
0.000000000000000000e+00,1.000000000000000000e+00,0.000000000000000000e+00,3.000000000000000000e+00,6.860000000000000000e+02,2.125930786132812500e-01,1.630488872528076172e+00,4.146230951528648845e-01,0.000000000000000000e+00,1.000000000000000000e+00,1.120000000000000000e+02
1.000000000000000000e+00,1.000000000000000000e+00,1.000000000000000000e+00,3.000000000000000000e+00,6.880000000000000000e+02,3.428170680999755859e-01,1.949995040893554688e+00,6.310981766763670286e-01,0.000000000000000000e+00,0.000000000000000000e+00,1.120000000000000000e+02
1.000000000000000000e+00,1.000000000000000000e+00,1.000000000000000000e+00,1.000000000000000000e+00,6.880000000000000000e+02,3.748970031738281250e-01,1.965763807296752930e+00,6.136322383933761060e-01,0.000000000000000000e+00,0.000000000000000000e+00,1.120000000000000000e+02
0.000000000000000000e+00,1.000000000000000000e+00,0.000000000000000000e+00,3.000000000000000000e+00,6.900000000000000000e+02,3.393039703369140625e-01,1.676120996475219727e+00,3.567728284508643322e-01,0.000000000000000000e+00,0.000000000000000000e+00,1.120000000000000000e+02
0.000000000000000000e+00,1.000000000000000000e+00,0.000000000000000000e+00,2.000000000000000000e+00,6.910000000000000000e+02,3.770630359649658203e-01,1.902458906173706055e+00,5.257836196668170814e-01,0.000000000000000000e+00,0.000000000000000000e+00,1.120000000000000000e+02
0.000000000000000000e+00,1.000000000000000000e+00,0.000000000000000000e+00,2.000000000000000000e+00,6.920000000000000000e+02,3.450829982757568359e-01,1.920346975326538086e+00,5.961240218524828105e-01,0.000000000000000000e+00,0.000000000000000000e+00,1.120000000000000000e+02
0.000000000000000000e+00,1.000000000000000000e+00,0.000000000000000000e+00,3.000000000000000000e+00,6.940000000000000000e+02,3.015041351318359375e-01,1.620435953140258789e+00,3.335431316314632078e-01,0.000000000000000000e+00,0.000000000000000000e+00,1.120000000000000000e+02
0.000000000000000000e+00,1.000000000000000000e+00,0.000000000000000000e+00,4.000000000000000000e+00,6.970000000000000000e+02,3.303191661834716797e-01,1.993274211883544922e+00,6.598762073673942741e-01,0.000000000000000000e+00,0.000000000000000000e+00,1.120000000000000000e+02
1.000000000000000000e+00,1.000000000000000000e+00,1.000000000000000000e+00,3.000000000000000000e+00,6.990000000000000000e+02,3.061511516571044922e-01,2.013604879379272461e+00,7.234928005250844674e-01,0.000000000000000000e+00,0.000000000000000000e+00,1.120000000000000000e+02
0.000000000000000000e+00,1.000000000000000000e+00,0.000000000000000000e+00,2.000000000000000000e+00,7.000000000000000000e+02,3.114800453186035156e-01,1.853136062622070312e+00,5.435564699704589220e-01,0.000000000000000000e+00,0.000000000000000000e+00,1.120000000000000000e+02
0.000000000000000000e+00,1.000000000000000000e+00,0.000000000000000000e+00,2.000000000000000000e+00,7.010000000000000000e+02,3.106050491333007812e-01,1.543353080749511719e+00,2.539676974761275186e-01,0.000000000000000000e+00,0.000000000000000000e+00,1.120000000000000000e+02
1.000000000000000000e+00,1.000000000000000000e+00,1.000000000000000000e+00,4.000000000000000000e+00,7.040000000000000000e+02,3.286781311035156250e-01,1.651479959487915039e+00,3.218215756433820407e-01,0.000000000000000000e+00,0.000000000000000000e+00,1.120000000000000000e+02
1.000000000000000000e+00,1.000000000000000000e+00,1.000000000000000000e+00,2.000000000000000000e+00,7.050000000000000000e+02,3.805959224700927734e-01,1.672115087509155273e+00,2.942740391552276513e-01,0.000000000000000000e+00,0.000000000000000000e+00,1.120000000000000000e+02
0.000000000000000000e+00,1.000000000000000000e+00,0.000000000000000000e+00,2.000000000000000000e+00,7.060000000000000000e+02,3.090438842773437500e-01,1.924335002899169922e+00,6.349832790348516331e-01,0.000000000000000000e+00,0.000000000000000000e+00,1.120000000000000000e+02
1.000000000000000000e+00,0.000000000000000000e+00,0.000000000000000000e+00,0.000000000000000000e+00,7.050000000000000000e+02,2.407960891723632812e-01,1.970215082168579102e+00,7.385073250896027064e-01,0.000000000000000000e+00,1.000000000000000000e+00,1.110000000000000000e+02
0.000000000000000000e+00,0.000000000000000000e+00,1.000000000000000000e+00,0.000000000000000000e+00,7.040000000000000000e+02,2.701809406280517578e-01,1.824022054672241211e+00,5.627632061585586820e-01,0.000000000000000000e+00,1.000000000000000000e+00,1.120000000000000000e+02
1.000000000000000000e+00,1.000000000000000000e+00,1.000000000000000000e+00,2.000000000000000000e+00,7.050000000000000000e+02,3.675589561462402344e-01,1.938365936279296875e+00,5.845233399808082986e-01,0.000000000000000000e+00,0.000000000000000000e+00,1.120000000000000000e+02
0.000000000000000000e+00,0.000000000000000000e+00,1.000000000000000000e+00,0.000000000000000000e+00,7.040000000000000000e+02,3.386061191558837891e-01,1.903230905532836914e+00,5.711551165829134025e-01,0.000000000000000000e+00,0.000000000000000000e+00,1.120000000000000000e+02
0.000000000000000000e+00,1.000000000000000000e+00,0.000000000000000000e+00,3.000000000000000000e+00,7.060000000000000000e+02,1.845710277557373047e-01,1.518293857574462891e+00,3.397413357436026016e-01,0.000000000000000000e+00,0.000000000000000000e+00,1.120000000000000000e+02
1.000000000000000000e+00,1.000000000000000000e+00,1.000000000000000000e+00,3.000000000000000000e+00,7.080000000000000000e+02,3.290629386901855469e-01,1.616321086883544922e+00,2.895029028137275917e-01,0.000000000000000000e+00,0.000000000000000000e+00,1.120000000000000000e+02
1.000000000000000000e+00,1.000000000000000000e+00,1.000000000000000000e+00,2.000000000000000000e+00,7.090000000000000000e+02,3.204660415649414062e-01,1.770080089569091797e+00,4.594795551555306279e-01,0.000000000000000000e+00,0.000000000000000000e+00,1.120000000000000000e+02
1.000000000000000000e+00,0.000000000000000000e+00,0.000000000000000000e+00,0.000000000000000000e+00,7.080000000000000000e+02,3.438420295715332031e-01,1.895005941390991211e+00,5.710648442102823630e-01,0.000000000000000000e+00,1.000000000000000000e+00,1.110000000000000000e+02
0.000000000000000000e+00,0.000000000000000000e+00,1.000000000000000000e+00,0.000000000000000000e+00,7.070000000000000000e+02,2.368838787078857422e-01,1.877171993255615234e+00,6.482471762762180845e-01,0.000000000000000000e+00,0.000000000000000000e+00,1.110000000000000000e+02
1.000000000000000000e+00,1.000000000000000000e+00,1.000000000000000000e+00,3.000000000000000000e+00,7.090000000000000000e+02,2.673130035400390625e-01,1.785598993301391602e+00,5.340331198459298268e-01,0.000000000000000000e+00,1.000000000000000000e+00,1.120000000000000000e+02
0.000000000000000000e+00,1.000000000000000000e+00,0.000000000000000000e+00,1.000000000000000000e+00,7.090000000000000000e+02,4.032559394836425781e-01,2.036973953247070312e+00,6.376337708024808482e-01,0.000000000000000000e+00,0.000000000000000000e+00,1.120000000000000000e+02
1.000000000000000000e+00,1.000000000000000000e+00,1.000000000000000000e+00,3.000000000000000000e+00,7.110000000000000000e+02,2.601029872894287109e-01,1.772036790847778320e+00,5.265411605599314981e-01,0.000000000000000000e+00,0.000000000000000000e+00,1.120000000000000000e+02
1.000000000000000000e+00,1.000000000000000000e+00,1.000000000000000000e+00,2.000000000000000000e+00,7.120000000000000000e+02,3.064389228820800781e-01,2.004136085510253906e+00,7.138514186305827680e-01,0.000000000000000000e+00,0.000000000000000000e+00,1.120000000000000000e+02
1.000000000000000000e+00,0.000000000000000000e+00,0.000000000000000000e+00,0.000000000000000000e+00,7.110000000000000000e+02,2.865569591522216797e-01,1.879317045211791992e+00,6.100188213909414348e-01,1.000000000000000000e+00,1.000000000000000000e+00,1.110000000000000000e+02
0.000000000000000000e+00,1.000000000000000000e+00,0.000000000000000000e+00,2.000000000000000000e+00,7.120000000000000000e+02,2.432451248168945312e-01,1.538468122482299805e+00,3.155226265637300354e-01,0.000000000000000000e+00,0.000000000000000000e+00,1.110000000000000000e+02
1.000000000000000000e+00,1.000000000000000000e+00,1.000000000000000000e+00,2.000000000000000000e+00,7.130000000000000000e+02,3.382980823516845703e-01,2.037170886993408203e+00,7.023754415917379257e-01,0.000000000000000000e+00,0.000000000000000000e+00,1.110000000000000000e+02
0.000000000000000000e+00,1.000000000000000000e+00,0.000000000000000000e+00,2.000000000000000000e+00,7.140000000000000000e+02,2.500941753387451172e-01,1.661559104919433594e+00,4.143081193800033368e-01,0.000000000000000000e+00,0.000000000000000000e+00,1.110000000000000000e+02
0.000000000000000000e+00,1.000000000000000000e+00,0.000000000000000000e+00,0.000000000000000000e+00,7.130000000000000000e+02,2.761170864105224609e-01,1.557452917098999023e+00,3.052245321468715633e-01,0.000000000000000000e+00,0.000000000000000000e+00,1.110000000000000000e+02
0.000000000000000000e+00,0.000000000000000000e+00,1.000000000000000000e+00,0.000000000000000000e+00,7.120000000000000000e+02,4.366900920867919922e-01,2.118165016174316406e+00,6.897499791770800304e-01,0.000000000000000000e+00,0.000000000000000000e+00,1.110000000000000000e+02
1.000000000000000000e+00,1.000000000000000000e+00,1.000000000000000000e+00,4.000000000000000000e+00,7.150000000000000000e+02,2.888920307159423828e-01,1.714618921279907227e+00,4.380354425668894214e-01,0.000000000000000000e+00,0.000000000000000000e+00,1.110000000000000000e+02
1.000000000000000000e+00,1.000000000000000000e+00,1.000000000000000000e+00,1.000000000000000000e+00,7.150000000000000000e+02,3.192858695983886719e-01,1.767292976379394531e+00,4.553890075163150586e-01,0.000000000000000000e+00,0.000000000000000000e+00,1.110000000000000000e+02
1.000000000000000000e+00,1.000000000000000000e+00,1.000000000000000000e+00,3.000000000000000000e+00,7.170000000000000000e+02,3.097448348999023438e-01,1.712886810302734375e+00,4.183783990033251299e-01,0.000000000000000000e+00,0.000000000000000000e+00,1.110000000000000000e+02
1.000000000000000000e+00,1.000000000000000000e+00,1.000000000000000000e+00,3.000000000000000000e+00,7.190000000000000000e+02,4.630811214447021484e-01,1.867219924926757812e+00,4.023205925626177626e-01,0.000000000000000000e+00,0.000000000000000000e+00,1.110000000000000000e+02
1.000000000000000000e+00,1.000000000000000000e+00,1.000000000000000000e+00,1.000000000000000000e+00,7.190000000000000000e+02,2.984831333160400391e-01,2.001433849334716797e+00,7.035252613522430254e-01,0.000000000000000000e+00,0.000000000000000000e+00,1.110000000000000000e+02
1.000000000000000000e+00,1.000000000000000000e+00,1.000000000000000000e+00,4.000000000000000000e+00,7.220000000000000000e+02,4.396409988403320312e-01,2.015288829803466797e+00,5.855551391704467701e-01,0.000000000000000000e+00,0.000000000000000000e+00,1.110000000000000000e+02
1.000000000000000000e+00,1.000000000000000000e+00,1.000000000000000000e+00,3.000000000000000000e+00,7.240000000000000000e+02,2.729320526123046875e-01,1.520145177841186523e+00,2.562291986169969449e-01,0.000000000000000000e+00,0.000000000000000000e+00,1.110000000000000000e+02
1.000000000000000000e+00,1.000000000000000000e+00,1.000000000000000000e+00,3.000000000000000000e+00,7.260000000000000000e+02,3.003230094909667969e-01,1.693578958511352539e+00,3.995726441666548334e-01,0.000000000000000000e+00,1.000000000000000000e+00,1.120000000000000000e+02
0.000000000000000000e+00,0.000000000000000000e+00,1.000000000000000000e+00,0.000000000000000000e+00,7.250000000000000000e+02,2.324318885803222656e-01,1.523627996444702148e+00,2.901496284308047180e-01,0.000000000000000000e+00,1.000000000000000000e+00,1.110000000000000000e+02
0.000000000000000000e+00,1.000000000000000000e+00,0.000000000000000000e+00,3.000000000000000000e+00,7.270000000000000000e+02,2.947881221771240234e-01,1.922310113906860352e+00,6.288869067948545943e-01,0.000000000000000000e+00,0.000000000000000000e+00,1.110000000000000000e+02
0.000000000000000000e+00,1.000000000000000000e+00,0.000000000000000000e+00,2.000000000000000000e+00,7.280000000000000000e+02,2.672410011291503906e-01,1.921912908554077148e+00,6.675051389039627914e-01,0.000000000000000000e+00,0.000000000000000000e+00,1.110000000000000000e+02
1.000000000000000000e+00,1.000000000000000000e+00,1.000000000000000000e+00,2.000000000000000000e+00,7.290000000000000000e+02,2.709801197052001953e-01,2.011734962463378906e+00,7.458987400271439583e-01,0.000000000000000000e+00,0.000000000000000000e+00,1.110000000000000000e+02
0.000000000000000000e+00,1.000000000000000000e+00,0.000000000000000000e+00,4.000000000000000000e+00,7.320000000000000000e+02,2.980630397796630859e-01,1.645144224166870117e+00,3.581666825578412316e-01,0.000000000000000000e+00,0.000000000000000000e+00,1.110000000000000000e+02
0.000000000000000000e+00,1.000000000000000000e+00,0.000000000000000000e+00,4.000000000000000000e+00,7.350000000000000000e+02,2.951538562774658203e-01,1.579429864883422852e+00,2.877285852830090973e-01,0.000000000000000000e+00,0.000000000000000000e+00,1.110000000000000000e+02
1.000000000000000000e+00,1.000000000000000000e+00,1.000000000000000000e+00,1.000000000000000000e+00,7.350000000000000000e+02,2.967991828918457031e-01,1.885097980499267578e+00,5.891762742932938890e-01,0.000000000000000000e+00,0.000000000000000000e+00,1.110000000000000000e+02
0.000000000000000000e+00,1.000000000000000000e+00,0.000000000000000000e+00,2.000000000000000000e+00,7.360000000000000000e+02,2.455549240112304688e-01,1.575724840164184570e+00,3.319215576570367920e-01,0.000000000000000000e+00,0.000000000000000000e+00,1.110000000000000000e+02
1.000000000000000000e+00,0.000000000000000000e+00,0.000000000000000000e+00,0.000000000000000000e+00,7.350000000000000000e+02,2.398519515991210938e-01,1.943001985549926758e+00,7.251248798516078953e-01,0.000000000000000000e+00,1.000000000000000000e+00,1.120000000000000000e+02
1.000000000000000000e+00,1.000000000000000000e+00,1.000000000000000000e+00,3.000000000000000000e+00,7.370000000000000000e+02,2.458670139312744141e-01,1.752561092376708984e+00,5.107740020129158953e-01,0.000000000000000000e+00,1.000000000000000000e+00,1.110000000000000000e+02
1.000000000000000000e+00,1.000000000000000000e+00,1.000000000000000000e+00,1.000000000000000000e+00,7.370000000000000000e+02,5.610089302062988281e-01,2.188782930374145508e+00,6.495015546271716289e-01,0.000000000000000000e+00,0.000000000000000000e+00,1.110000000000000000e+02
0.000000000000000000e+00,0.000000000000000000e+00,1.000000000000000000e+00,0.000000000000000000e+00,7.360000000000000000e+02,3.100981712341308594e-01,1.761479139328002930e+00,4.612268521943864164e-01,0.000000000000000000e+00,1.000000000000000000e+00,1.120000000000000000e+02
0.000000000000000000e+00,1.000000000000000000e+00,0.000000000000000000e+00,4.000000000000000000e+00,7.390000000000000000e+02,3.461060523986816406e-01,2.021640777587890625e+00,6.830522369419568252e-01,0.000000000000000000e+00,1.000000000000000000e+00,1.110000000000000000e+02
1.000000000000000000e+00,1.000000000000000000e+00,1.000000000000000000e+00,2.000000000000000000e+00,7.400000000000000000e+02,2.309050559997558594e-01,1.802119970321655273e+00,5.683253238336317681e-01,0.000000000000000000e+00,0.000000000000000000e+00,1.110000000000000000e+02
0.000000000000000000e+00,1.000000000000000000e+00,0.000000000000000000e+00,3.000000000000000000e+00,7.420000000000000000e+02,2.879419326782226562e-01,1.959127902984619141e+00,6.774555402906357049e-01,0.000000000000000000e+00,0.000000000000000000e+00,1.110000000000000000e+02
1.000000000000000000e+00,0.000000000000000000e+00,0.000000000000000000e+00,0.000000000000000000e+00,7.410000000000000000e+02,2.389640808105468750e-01,1.894885063171386719e+00,6.723962224341804017e-01,0.000000000000000000e+00,0.000000000000000000e+00,1.110000000000000000e+02
0.000000000000000000e+00,1.000000000000000000e+00,0.000000000000000000e+00,0.000000000000000000e+00,7.400000000000000000e+02,2.990529537200927734e-01,1.711638927459716797e+00,4.176854598861476919e-01,0.000000000000000000e+00,0.000000000000000000e+00,1.110000000000000000e+02
0.000000000000000000e+00,0.000000000000000000e+00,1.000000000000000000e+00,0.000000000000000000e+00,7.390000000000000000e+02,2.925140857696533203e-01,1.994228839874267578e+00,7.116912766742657936e-01,0.000000000000000000e+00,1.000000000000000000e+00,1.120000000000000000e+02
0.000000000000000000e+00,1.000000000000000000e+00,0.000000000000000000e+00,2.000000000000000000e+00,7.400000000000000000e+02,2.871809005737304688e-01,1.621534109115600586e+00,3.503097217898153426e-01,0.000000000000000000e+00,1.000000000000000000e+00,1.110000000000000000e+02
1.000000000000000000e+00,0.000000000000000000e+00,0.000000000000000000e+00,0.000000000000000000e+00,7.390000000000000000e+02,3.289799690246582031e-01,1.925906896591186523e+00,5.927120217201536923e-01,0.000000000000000000e+00,0.000000000000000000e+00,1.110000000000000000e+02
1.000000000000000000e+00,0.000000000000000000e+00,0.000000000000000000e+00,0.000000000000000000e+00,7.380000000000000000e+02,3.253610134124755859e-01,1.864500045776367188e+00,5.573109134207870907e-01,0.000000000000000000e+00,0.000000000000000000e+00,1.110000000000000000e+02
0.000000000000000000e+00,1.000000000000000000e+00,0.000000000000000000e+00,0.000000000000000000e+00,7.370000000000000000e+02,2.397670745849609375e-01,1.961964130401611328e+00,7.357793191469874650e-01,0.000000000000000000e+00,1.000000000000000000e+00,1.120000000000000000e+02
1.000000000000000000e+00,0.000000000000000000e+00,0.000000000000000000e+00,0.000000000000000000e+00,7.360000000000000000e+02,2.982618808746337891e-01,2.031255006790161133e+00,7.338024580807309682e-01,0.000000000000000000e+00,1.000000000000000000e+00,1.110000000000000000e+02
1.000000000000000000e+00,0.000000000000000000e+00,0.000000000000000000e+00,0.000000000000000000e+00,7.350000000000000000e+02,3.459310531616210938e-01,1.602070093154907227e+00,2.531334603170501962e-01,0.000000000000000000e+00,0.000000000000000000e+00,1.110000000000000000e+02
0.000000000000000000e+00,0.000000000000000000e+00,1.000000000000000000e+00,0.000000000000000000e+00,7.340000000000000000e+02,3.719589710235595703e-01,1.695621967315673828e+00,3.320462555728465603e-01,0.000000000000000000e+00,0.000000000000000000e+00,1.110000000000000000e+02
0.000000000000000000e+00,0.000000000000000000e+00,1.000000000000000000e+00,0.000000000000000000e+00,7.330000000000000000e+02,2.956919670104980469e-01,1.601125001907348633e+00,3.332783498362667518e-01,0.000000000000000000e+00,0.000000000000000000e+00,1.110000000000000000e+02
1.000000000000000000e+00,1.000000000000000000e+00,1.000000000000000000e+00,3.000000000000000000e+00,7.350000000000000000e+02,3.040390014648437500e-01,1.993474006652832031e+00,6.930408109083892043e-01,1.000000000000000000e+00,1.000000000000000000e+00,1.120000000000000000e+02
1.000000000000000000e+00,0.000000000000000000e+00,0.000000000000000000e+00,0.000000000000000000e+00,7.340000000000000000e+02,7.025501728057861328e-01,5.351585149765014648e+00,6.282937728588806614e-01,1.000000000000000000e+00,1.000000000000000000e+00,1.110000000000000000e+02
1.000000000000000000e+00,1.000000000000000000e+00,1.000000000000000000e+00,3.000000000000000000e+00,7.360000000000000000e+02,2.939839363098144531e-01,1.794432878494262695e+00,5.228792032403585255e-01,0.000000000000000000e+00,1.000000000000000000e+00,1.120000000000000000e+02
0.000000000000000000e+00,1.000000000000000000e+00,0.000000000000000000e+00,4.000000000000000000e+00,7.390000000000000000e+02,2.700600624084472656e-01,1.635051965713500977e+00,3.747961538038502294e-01,0.000000000000000000e+00,1.000000000000000000e+00,1.110000000000000000e+02
1.000000000000000000e+00,1.000000000000000000e+00,1.000000000000000000e+00,3.000000000000000000e+00,7.410000000000000000e+02,2.638552188873291016e-01,1.731735944747924805e+00,4.731651917636878202e-01,0.000000000000000000e+00,0.000000000000000000e+00,1.110000000000000000e+02
0.000000000000000000e+00,1.000000000000000000e+00,0.000000000000000000e+00,3.000000000000000000e+00,7.430000000000000000e+02,2.175140380859375000e-01,1.603986024856567383e+00,3.939580169025846401e-01,0.000000000000000000e+00,0.000000000000000000e+00,1.110000000000000000e+02
0.000000000000000000e+00,1.000000000000000000e+00,0.000000000000000000e+00,2.000000000000000000e+00,7.440000000000000000e+02,2.695069313049316406e-01,1.536741018295288086e+00,2.808490191845549044e-01,0.000000000000000000e+00,0.000000000000000000e+00,1.110000000000000000e+02
1.000000000000000000e+00,0.000000000000000000e+00,0.000000000000000000e+00,0.000000000000000000e+00,7.430000000000000000e+02,3.052690029144287109e-01,1.768109083175659180e+00,4.821526954096621576e-01,0.000000000000000000e+00,1.000000000000000000e+00,1.120000000000000000e+02
0.000000000000000000e+00,1.000000000000000000e+00,0.000000000000000000e+00,1.000000000000000000e+00,7.430000000000000000e+02,2.490229606628417969e-01,1.502731084823608398e+00,2.518523007539224534e-01,0.000000000000000000e+00,1.000000000000000000e+00,1.110000000000000000e+02
1.000000000000000000e+00,1.000000000000000000e+00,1.000000000000000000e+00,3.000000000000000000e+00,7.450000000000000000e+02,2.880160808563232422e-01,1.832278013229370117e+00,5.505446259463748770e-01,0.000000000000000000e+00,0.000000000000000000e+00,1.110000000000000000e+02
1.000000000000000000e+00,1.000000000000000000e+00,1.000000000000000000e+00,2.000000000000000000e+00,7.460000000000000000e+02,2.987430095672607422e-01,1.858983039855957031e+00,5.595692474607378841e-01,0.000000000000000000e+00,0.000000000000000000e+00,1.110000000000000000e+02
0.000000000000000000e+00,1.000000000000000000e+00,0.000000000000000000e+00,2.000000000000000000e+00,7.470000000000000000e+02,2.798359394073486328e-01,1.675565004348754883e+00,4.020398664141329736e-01,0.000000000000000000e+00,0.000000000000000000e+00,1.110000000000000000e+02
0.000000000000000000e+00,0.000000000000000000e+00,1.000000000000000000e+00,0.000000000000000000e+00,7.460000000000000000e+02,2.887418270111083984e-01,2.017771005630493164e+00,7.362158028450538350e-01,0.000000000000000000e+00,1.000000000000000000e+00,1.120000000000000000e+02
1.000000000000000000e+00,1.000000000000000000e+00,1.000000000000000000e+00,3.000000000000000000e+00,7.480000000000000000e+02,3.499331474304199219e-01,1.963857173919677734e+00,6.169335202581426314e-01,0.000000000000000000e+00,1.000000000000000000e+00,1.110000000000000000e+02
1.000000000000000000e+00,1.000000000000000000e+00,1.000000000000000000e+00,1.000000000000000000e+00,7.480000000000000000e+02,6.572930812835693359e-01,2.225826978683471680e+00,5.762042993387703760e-01,0.000000000000000000e+00,0.000000000000000000e+00,1.110000000000000000e+02
0.000000000000000000e+00,1.000000000000000000e+00,0.000000000000000000e+00,2.000000000000000000e+00,7.490000000000000000e+02,4.167208671569824219e-01,2.140053987503051758e+00,7.328416569753954946e-01,0.000000000000000000e+00,0.000000000000000000e+00,1.110000000000000000e+02
1.000000000000000000e+00,1.000000000000000000e+00,1.000000000000000000e+00,2.000000000000000000e+00,7.500000000000000000e+02,2.889020442962646484e-01,1.902465105056762695e+00,6.188274515632510298e-01,0.000000000000000000e+00,0.000000000000000000e+00,1.110000000000000000e+02
1.000000000000000000e+00,1.000000000000000000e+00,1.000000000000000000e+00,2.000000000000000000e+00,7.510000000000000000e+02,3.608479499816894531e-01,2.083048820495605469e+00,7.351782417873637954e-01,0.000000000000000000e+00,0.000000000000000000e+00,1.110000000000000000e+02
0.000000000000000000e+00,0.000000000000000000e+00,1.000000000000000000e+00,0.000000000000000000e+00,7.500000000000000000e+02,5.737140178680419922e-01,1.965440988540649414e+00,4.010180105591301669e-01,0.000000000000000000e+00,1.000000000000000000e+00,1.120000000000000000e+02
0.000000000000000000e+00,1.000000000000000000e+00,0.000000000000000000e+00,2.000000000000000000e+00,7.510000000000000000e+02,3.980519771575927734e-01,1.900159835815429688e+00,5.011520599807994802e-01,0.000000000000000000e+00,1.000000000000000000e+00,1.110000000000000000e+02
0.000000000000000000e+00,1.000000000000000000e+00,0.000000000000000000e+00,3.000000000000000000e+00,7.530000000000000000e+02,4.120731353759765625e-01,1.823855161666870117e+00,4.085515359985079087e-01,0.000000000000000000e+00,0.000000000000000000e+00,1.110000000000000000e+02
0.000000000000000000e+00,1.000000000000000000e+00,0.000000000000000000e+00,3.000000000000000000e+00,7.550000000000000000e+02,3.525140285491943359e-01,1.934829950332641602e+00,5.932110974404004589e-01,0.000000000000000000e+00,0.000000000000000000e+00,1.110000000000000000e+02
0.000000000000000000e+00,1.000000000000000000e+00,0.000000000000000000e+00,3.000000000000000000e+00,7.570000000000000000e+02,2.872550487518310547e-01,2.007039070129394531e+00,7.335098880138126720e-01,0.000000000000000000e+00,0.000000000000000000e+00,1.110000000000000000e+02
1.000000000000000000e+00,1.000000000000000000e+00,1.000000000000000000e+00,4.000000000000000000e+00,7.600000000000000000e+02,2.706780433654785156e-01,1.617060899734497070e+00,3.510121374470411837e-01,0.000000000000000000e+00,0.000000000000000000e+00,1.110000000000000000e+02
0.000000000000000000e+00,1.000000000000000000e+00,0.000000000000000000e+00,4.000000000000000000e+00,7.630000000000000000e+02,2.750349044799804688e-01,1.955545902252197266e+00,6.896173454513669920e-01,0.000000000000000000e+00,0.000000000000000000e+00,1.110000000000000000e+02
0.000000000000000000e+00,1.000000000000000000e+00,0.000000000000000000e+00,3.000000000000000000e+00,7.650000000000000000e+02,3.231008052825927734e-01,1.594568967819213867e+00,2.847043961747494079e-01,0.000000000000000000e+00,0.000000000000000000e+00,1.110000000000000000e+02
0.000000000000000000e+00,1.000000000000000000e+00,0.000000000000000000e+00,2.000000000000000000e+00,7.660000000000000000e+02,3.131930828094482422e-01,1.742781162261962891e+00,4.273711805935037633e-01,0.000000000000000000e+00,0.000000000000000000e+00,1.110000000000000000e+02
1.000000000000000000e+00,0.000000000000000000e+00,0.000000000000000000e+00,0.000000000000000000e+00,7.650000000000000000e+02,3.028919696807861328e-01,1.751000881195068359e+00,4.617266071141062356e-01,0.000000000000000000e+00,0.000000000000000000e+00,1.110000000000000000e+02
1.000000000000000000e+00,1.000000000000000000e+00,1.000000000000000000e+00,4.000000000000000000e+00,7.680000000000000000e+02,4.679250717163085938e-01,2.173756122589111328e+00,7.186436534734270687e-01,0.000000000000000000e+00,1.000000000000000000e+00,1.120000000000000000e+02
0.000000000000000000e+00,1.000000000000000000e+00,0.000000000000000000e+00,2.000000000000000000e+00,7.690000000000000000e+02,2.797050476074218750e-01,1.645813941955566406e+00,3.648681602844280336e-01,0.000000000000000000e+00,0.000000000000000000e+00,1.120000000000000000e+02
0.000000000000000000e+00,1.000000000000000000e+00,0.000000000000000000e+00,3.000000000000000000e+00,7.710000000000000000e+02,3.724160194396972656e-01,2.005623102188110352e+00,6.536113907857996619e-01,0.000000000000000000e+00,0.000000000000000000e+00,1.120000000000000000e+02
0.000000000000000000e+00,1.000000000000000000e+00,0.000000000000000000e+00,2.000000000000000000e+00,7.720000000000000000e+02,3.488609790802001953e-01,1.904295921325683594e+00,5.580251609344004660e-01,0.000000000000000000e+00,0.000000000000000000e+00,1.120000000000000000e+02
1.000000000000000000e+00,1.000000000000000000e+00,1.000000000000000000e+00,3.000000000000000000e+00,7.740000000000000000e+02,3.428919315338134766e-01,1.891863107681274414e+00,5.666597412277625256e-01,0.000000000000000000e+00,0.000000000000000000e+00,1.120000000000000000e+02
0.000000000000000000e+00,0.000000000000000000e+00,1.000000000000000000e+00,0.000000000000000000e+00,7.730000000000000000e+02,2.669792175292968750e-01,1.797987937927246094e+00,5.314151586211237621e-01,0.000000000000000000e+00,1.000000000000000000e+00,1.110000000000000000e+02
0.000000000000000000e+00,1.000000000000000000e+00,0.000000000000000000e+00,0.000000000000000000e+00,7.720000000000000000e+02,2.006859779357910156e-01,1.743799924850463867e+00,5.585791471853461809e-01,0.000000000000000000e+00,0.000000000000000000e+00,1.110000000000000000e+02
0.000000000000000000e+00,0.000000000000000000e+00,1.000000000000000000e+00,0.000000000000000000e+00,7.710000000000000000e+02,2.007398605346679688e-01,1.529782056808471680e+00,3.386510718282738086e-01,0.000000000000000000e+00,1.000000000000000000e+00,1.120000000000000000e+02
0.000000000000000000e+00,1.000000000000000000e+00,0.000000000000000000e+00,3.000000000000000000e+00,7.730000000000000000e+02,3.374569416046142578e-01,1.710067987442016602e+00,3.820393096606967687e-01,0.000000000000000000e+00,1.000000000000000000e+00,1.110000000000000000e+02
1.000000000000000000e+00,1.000000000000000000e+00,1.000000000000000000e+00,3.000000000000000000e+00,7.750000000000000000e+02,3.185398578643798828e-01,1.865164995193481445e+00,5.637626281967211828e-01,0.000000000000000000e+00,0.000000000000000000e+00,1.110000000000000000e+02
1.000000000000000000e+00,0.000000000000000000e+00,0.000000000000000000e+00,0.000000000000000000e+00,7.740000000000000000e+02,3.089740276336669922e-01,1.873612165451049805e+00,5.873216204424596132e-01,0.000000000000000000e+00,1.000000000000000000e+00,1.120000000000000000e+02
1.000000000000000000e+00,1.000000000000000000e+00,1.000000000000000000e+00,3.000000000000000000e+00,7.760000000000000000e+02,2.976520061492919922e-01,1.988852024078369141e+00,6.928948728372744670e-01,0.000000000000000000e+00,1.000000000000000000e+00,1.110000000000000000e+02
0.000000000000000000e+00,0.000000000000000000e+00,1.000000000000000000e+00,0.000000000000000000e+00,7.750000000000000000e+02,2.564051151275634766e-01,1.871671915054321289e+00,6.313776561416926114e-01,0.000000000000000000e+00,0.000000000000000000e+00,1.110000000000000000e+02
0.000000000000000000e+00,1.000000000000000000e+00,0.000000000000000000e+00,4.000000000000000000e+00,7.780000000000000000e+02,2.408089637756347656e-01,1.567511796951293945e+00,3.492404484473508597e-01,0.000000000000000000e+00,1.000000000000000000e+00,1.120000000000000000e+02
0.000000000000000000e+00,0.000000000000000000e+00,1.000000000000000000e+00,0.000000000000000000e+00,7.770000000000000000e+02,2.695400714874267578e-01,1.896303892135620117e+00,6.286558794666646799e-01,1.000000000000000000e+00,1.000000000000000000e+00,1.110000000000000000e+02
0.000000000000000000e+00,1.000000000000000000e+00,0.000000000000000000e+00,2.000000000000000000e+00,7.780000000000000000e+02,2.473189830780029297e-01,1.945214986801147461e+00,7.071823876494300887e-01,0.000000000000000000e+00,1.000000000000000000e+00,1.120000000000000000e+02
0.000000000000000000e+00,1.000000000000000000e+00,0.000000000000000000e+00,3.000000000000000000e+00,7.800000000000000000e+02,2.513909339904785156e-01,1.882927179336547852e+00,6.402484394713936489e-01,0.000000000000000000e+00,0.000000000000000000e+00,1.120000000000000000e+02
0.000000000000000000e+00,1.000000000000000000e+00,0.000000000000000000e+00,4.000000000000000000e+00,7.830000000000000000e+02,2.630710601806640625e-01,1.697727918624877930e+00,4.382400490225347167e-01,0.000000000000000000e+00,0.000000000000000000e+00,1.120000000000000000e+02
1.000000000000000000e+00,1.000000000000000000e+00,1.000000000000000000e+00,2.000000000000000000e+00,7.840000000000000000e+02,2.790980339050292969e-01,1.882316112518310547e+00,6.037973831686904713e-01,0.000000000000000000e+00,0.000000000000000000e+00,1.120000000000000000e+02
0.000000000000000000e+00,0.000000000000000000e+00,1.000000000000000000e+00,0.000000000000000000e+00,7.830000000000000000e+02,2.288329601287841797e-01,1.893081903457641602e+00,6.635334229636264958e-01,0.000000000000000000e+00,1.000000000000000000e+00,1.110000000000000000e+02
0.000000000000000000e+00,1.000000000000000000e+00,0.000000000000000000e+00,3.000000000000000000e+00,7.850000000000000000e+02,2.725641727447509766e-01,1.945616006851196289e+00,6.925279279314068281e-01,0.000000000000000000e+00,1.000000000000000000e+00,1.120000000000000000e+02
0.000000000000000000e+00,1.000000000000000000e+00,0.000000000000000000e+00,1.000000000000000000e+00,7.850000000000000000e+02,2.926368713378906250e-01,1.640496969223022461e+00,3.667719772848768711e-01,0.000000000000000000e+00,0.000000000000000000e+00,1.120000000000000000e+02
1.000000000000000000e+00,1.000000000000000000e+00,1.000000000000000000e+00,3.000000000000000000e+00,7.870000000000000000e+02,3.237168788909912109e-01,1.777028083801269531e+00,4.604508317538266726e-01,0.000000000000000000e+00,0.000000000000000000e+00,1.120000000000000000e+02
0.000000000000000000e+00,1.000000000000000000e+00,0.000000000000000000e+00,2.000000000000000000e+00,7.880000000000000000e+02,2.610790729522705078e-01,1.557317972183227539e+00,3.179504266024649195e-01,0.000000000000000000e+00,0.000000000000000000e+00,1.120000000000000000e+02
0.000000000000000000e+00,1.000000000000000000e+00,0.000000000000000000e+00,1.000000000000000000e+00,7.880000000000000000e+02,2.874670028686523438e-01,1.612055063247680664e+00,3.300157330046591397e-01,0.000000000000000000e+00,0.000000000000000000e+00,1.120000000000000000e+02
1.000000000000000000e+00,1.000000000000000000e+00,1.000000000000000000e+00,3.000000000000000000e+00,7.900000000000000000e+02,3.206300735473632812e-01,2.013379096984863281e+00,7.097823156771576603e-01,0.000000000000000000e+00,0.000000000000000000e+00,1.120000000000000000e+02
1.000000000000000000e+00,0.000000000000000000e+00,0.000000000000000000e+00,0.000000000000000000e+00,7.890000000000000000e+02,2.895231246948242188e-01,1.929702997207641602e+00,6.562978402363777164e-01,0.000000000000000000e+00,1.000000000000000000e+00,1.110000000000000000e+02
0.000000000000000000e+00,1.000000000000000000e+00,0.000000000000000000e+00,3.000000000000000000e+00,7.910000000000000000e+02,1.658141613006591797e-01,1.576264858245849609e+00,4.162074997334965221e-01,0.000000000000000000e+00,1.000000000000000000e+00,1.120000000000000000e+02
1.000000000000000000e+00,1.000000000000000000e+00,1.000000000000000000e+00,1.000000000000000000e+00,7.910000000000000000e+02,2.503800392150878906e-01,1.950479030609130859e+00,6.997875083611999614e-01,0.000000000000000000e+00,0.000000000000000000e+00,1.120000000000000000e+02
