choice, accuracy, solution,  reward, cumulative_reward, rt,  total_trial_time, iti, cp_with_slow_fast, obs_cp_with_slow_fast, high_val_cue
1.000000000000000000e+00,1.000000000000000000e+00,1.000000000000000000e+00,3.000000000000000000e+00,6.020000000000000000e+02,5.782740116119384766e-01,2.012189149856567383e+00,4.304668670652737616e-01,0.000000000000000000e+00,0.000000000000000000e+00,1.120000000000000000e+02
0.000000000000000000e+00,0.000000000000000000e+00,1.000000000000000000e+00,0.000000000000000000e+00,6.010000000000000000e+02,3.123011589050292969e-01,2.016694068908691406e+00,7.135725309032193708e-01,0.000000000000000000e+00,1.000000000000000000e+00,1.110000000000000000e+02
0.000000000000000000e+00,0.000000000000000000e+00,1.000000000000000000e+00,0.000000000000000000e+00,6.000000000000000000e+02,2.697999477386474609e-01,1.958709955215454102e+00,7.057105843476676466e-01,0.000000000000000000e+00,0.000000000000000000e+00,1.110000000000000000e+02
1.000000000000000000e+00,1.000000000000000000e+00,1.000000000000000000e+00,1.000000000000000000e+00,6.000000000000000000e+02,2.751419544219970703e-01,1.974606990814208984e+00,7.136788026875783286e-01,0.000000000000000000e+00,1.000000000000000000e+00,1.120000000000000000e+02
0.000000000000000000e+00,0.000000000000000000e+00,1.000000000000000000e+00,0.000000000000000000e+00,5.990000000000000000e+02,3.165771961212158203e-01,1.611451148986816406e+00,3.089626740598489518e-01,0.000000000000000000e+00,1.000000000000000000e+00,1.110000000000000000e+02
0.000000000000000000e+00,1.000000000000000000e+00,0.000000000000000000e+00,3.000000000000000000e+00,6.010000000000000000e+02,2.589459419250488281e-01,1.722941875457763672e+00,4.817424293615535924e-01,0.000000000000000000e+00,0.000000000000000000e+00,1.110000000000000000e+02
1.000000000000000000e+00,1.000000000000000000e+00,1.000000000000000000e+00,0.000000000000000000e+00,6.000000000000000000e+02,2.723920345306396484e-01,1.997804164886474609e+00,7.459831519441164627e-01,0.000000000000000000e+00,0.000000000000000000e+00,1.110000000000000000e+02
0.000000000000000000e+00,1.000000000000000000e+00,0.000000000000000000e+00,4.000000000000000000e+00,6.030000000000000000e+02,2.553770542144775391e-01,1.978446006774902344e+00,7.412216553884465320e-01,0.000000000000000000e+00,0.000000000000000000e+00,1.110000000000000000e+02
1.000000000000000000e+00,0.000000000000000000e+00,0.000000000000000000e+00,0.000000000000000000e+00,6.020000000000000000e+02,1.911120414733886719e-01,1.570554018020629883e+00,3.955126655109001965e-01,0.000000000000000000e+00,1.000000000000000000e+00,1.120000000000000000e+02
0.000000000000000000e+00,1.000000000000000000e+00,0.000000000000000000e+00,1.000000000000000000e+00,6.020000000000000000e+02,3.035049438476562500e-01,1.975131034851074219e+00,6.870711716045290185e-01,0.000000000000000000e+00,1.000000000000000000e+00,1.110000000000000000e+02
1.000000000000000000e+00,0.000000000000000000e+00,0.000000000000000000e+00,0.000000000000000000e+00,6.010000000000000000e+02,2.663261890411376953e-01,1.872751951217651367e+00,6.096693464134057550e-01,0.000000000000000000e+00,1.000000000000000000e+00,1.120000000000000000e+02
0.000000000000000000e+00,1.000000000000000000e+00,0.000000000000000000e+00,3.000000000000000000e+00,6.030000000000000000e+02,2.696120738983154297e-01,1.935947895050048828e+00,6.792032071413693917e-01,0.000000000000000000e+00,1.000000000000000000e+00,1.110000000000000000e+02
1.000000000000000000e+00,0.000000000000000000e+00,0.000000000000000000e+00,0.000000000000000000e+00,6.020000000000000000e+02,2.763550281524658203e-01,1.630880117416381836e+00,3.771466310415478862e-01,0.000000000000000000e+00,1.000000000000000000e+00,1.120000000000000000e+02
0.000000000000000000e+00,0.000000000000000000e+00,1.000000000000000000e+00,0.000000000000000000e+00,6.010000000000000000e+02,2.221829891204833984e-01,1.819764852523803711e+00,6.133884429071996269e-01,1.000000000000000000e+00,0.000000000000000000e+00,1.120000000000000000e+02
1.000000000000000000e+00,1.000000000000000000e+00,1.000000000000000000e+00,3.000000000000000000e+00,6.030000000000000000e+02,2.574989795684814453e-01,1.962375879287719727e+00,7.257077837364360740e-01,0.000000000000000000e+00,0.000000000000000000e+00,1.120000000000000000e+02
1.000000000000000000e+00,1.000000000000000000e+00,1.000000000000000000e+00,2.000000000000000000e+00,6.040000000000000000e+02,2.889680862426757812e-01,1.780826091766357422e+00,5.068865707410072918e-01,0.000000000000000000e+00,0.000000000000000000e+00,1.120000000000000000e+02
1.000000000000000000e+00,1.000000000000000000e+00,1.000000000000000000e+00,2.000000000000000000e+00,6.050000000000000000e+02,2.766540050506591797e-01,1.530659914016723633e+00,2.711197999210273601e-01,0.000000000000000000e+00,0.000000000000000000e+00,1.120000000000000000e+02
0.000000000000000000e+00,0.000000000000000000e+00,1.000000000000000000e+00,0.000000000000000000e+00,6.040000000000000000e+02,2.894051074981689453e-01,1.979409217834472656e+00,7.001363046521839051e-01,0.000000000000000000e+00,0.000000000000000000e+00,1.120000000000000000e+02
0.000000000000000000e+00,1.000000000000000000e+00,0.000000000000000000e+00,3.000000000000000000e+00,6.060000000000000000e+02,2.990748882293701172e-01,1.797998905181884766e+00,4.984302985762714688e-01,0.000000000000000000e+00,0.000000000000000000e+00,1.120000000000000000e+02
1.000000000000000000e+00,0.000000000000000000e+00,0.000000000000000000e+00,0.000000000000000000e+00,6.050000000000000000e+02,2.138221263885498047e-01,1.738178968429565430e+00,5.366166937193905806e-01,0.000000000000000000e+00,1.000000000000000000e+00,1.110000000000000000e+02
1.000000000000000000e+00,0.000000000000000000e+00,0.000000000000000000e+00,0.000000000000000000e+00,6.040000000000000000e+02,3.018581867218017578e-01,1.647518157958984375e+00,3.510096242863878779e-01,0.000000000000000000e+00,0.000000000000000000e+00,1.110000000000000000e+02
0.000000000000000000e+00,0.000000000000000000e+00,1.000000000000000000e+00,0.000000000000000000e+00,6.030000000000000000e+02,2.599380016326904297e-01,1.684469938278198242e+00,4.354927407215829493e-01,0.000000000000000000e+00,1.000000000000000000e+00,1.120000000000000000e+02
0.000000000000000000e+00,0.000000000000000000e+00,1.000000000000000000e+00,0.000000000000000000e+00,6.020000000000000000e+02,3.127059936523437500e-01,1.909116029739379883e+00,5.944855465007750084e-01,0.000000000000000000e+00,0.000000000000000000e+00,1.120000000000000000e+02
1.000000000000000000e+00,1.000000000000000000e+00,1.000000000000000000e+00,4.000000000000000000e+00,6.050000000000000000e+02,3.157448768615722656e-01,1.680367946624755859e+00,3.751529298573177407e-01,0.000000000000000000e+00,0.000000000000000000e+00,1.120000000000000000e+02
0.000000000000000000e+00,1.000000000000000000e+00,0.000000000000000000e+00,3.000000000000000000e+00,6.070000000000000000e+02,2.434310913085937500e-01,1.922056198120117188e+00,6.969283937468557788e-01,0.000000000000000000e+00,0.000000000000000000e+00,1.120000000000000000e+02
0.000000000000000000e+00,0.000000000000000000e+00,1.000000000000000000e+00,0.000000000000000000e+00,6.060000000000000000e+02,3.038978576660156250e-01,2.016818046569824219e+00,7.304119177273947772e-01,0.000000000000000000e+00,1.000000000000000000e+00,1.110000000000000000e+02
1.000000000000000000e+00,1.000000000000000000e+00,1.000000000000000000e+00,3.000000000000000000e+00,6.080000000000000000e+02,2.042379379272460938e-01,1.825109004974365234e+00,6.389900450336712945e-01,1.000000000000000000e+00,0.000000000000000000e+00,1.110000000000000000e+02
0.000000000000000000e+00,1.000000000000000000e+00,0.000000000000000000e+00,1.000000000000000000e+00,6.080000000000000000e+02,2.379360198974609375e-01,1.740885019302368164e+00,5.134824800577558745e-01,0.000000000000000000e+00,0.000000000000000000e+00,1.110000000000000000e+02
1.000000000000000000e+00,0.000000000000000000e+00,0.000000000000000000e+00,0.000000000000000000e+00,6.070000000000000000e+02,5.127229690551757812e-01,2.031969070434570312e+00,5.288448744579935523e-01,0.000000000000000000e+00,0.000000000000000000e+00,1.110000000000000000e+02
1.000000000000000000e+00,0.000000000000000000e+00,0.000000000000000000e+00,0.000000000000000000e+00,6.060000000000000000e+02,3.115448951721191406e-01,1.648658990859985352e+00,3.610155015675264867e-01,0.000000000000000000e+00,0.000000000000000000e+00,1.110000000000000000e+02
1.000000000000000000e+00,0.000000000000000000e+00,0.000000000000000000e+00,0.000000000000000000e+00,6.050000000000000000e+02,2.885789871215820312e-01,1.822259187698364258e+00,5.497907332059941421e-01,0.000000000000000000e+00,1.000000000000000000e+00,1.120000000000000000e+02
1.000000000000000000e+00,1.000000000000000000e+00,1.000000000000000000e+00,2.000000000000000000e+00,6.060000000000000000e+02,3.172519207000732422e-01,1.910017013549804688e+00,5.931703229847320458e-01,0.000000000000000000e+00,1.000000000000000000e+00,1.110000000000000000e+02
0.000000000000000000e+00,1.000000000000000000e+00,0.000000000000000000e+00,4.000000000000000000e+00,6.090000000000000000e+02,2.573351860046386719e-01,1.657665014266967773e+00,4.177084042905673811e-01,0.000000000000000000e+00,0.000000000000000000e+00,1.110000000000000000e+02
1.000000000000000000e+00,0.000000000000000000e+00,0.000000000000000000e+00,0.000000000000000000e+00,6.080000000000000000e+02,2.658059597015380859e-01,1.878840923309326172e+00,6.130184462257604050e-01,0.000000000000000000e+00,1.000000000000000000e+00,1.120000000000000000e+02
1.000000000000000000e+00,0.000000000000000000e+00,0.000000000000000000e+00,0.000000000000000000e+00,6.070000000000000000e+02,2.150328159332275391e-01,1.870759010314941406e+00,6.670479290009192486e-01,0.000000000000000000e+00,0.000000000000000000e+00,1.120000000000000000e+02
1.000000000000000000e+00,1.000000000000000000e+00,1.000000000000000000e+00,3.000000000000000000e+00,6.090000000000000000e+02,2.097399234771728516e-01,1.914474010467529297e+00,7.147813597386452056e-01,0.000000000000000000e+00,1.000000000000000000e+00,1.110000000000000000e+02
0.000000000000000000e+00,0.000000000000000000e+00,1.000000000000000000e+00,0.000000000000000000e+00,6.080000000000000000e+02,2.947981357574462891e-01,1.976366996765136719e+00,7.078303204064779752e-01,0.000000000000000000e+00,1.000000000000000000e+00,1.120000000000000000e+02
1.000000000000000000e+00,0.000000000000000000e+00,0.000000000000000000e+00,0.000000000000000000e+00,6.070000000000000000e+02,2.776570320129394531e-01,1.953176975250244141e+00,6.943907523757383293e-01,0.000000000000000000e+00,1.000000000000000000e+00,1.110000000000000000e+02
1.000000000000000000e+00,0.000000000000000000e+00,0.000000000000000000e+00,0.000000000000000000e+00,6.060000000000000000e+02,2.136368751525878906e-01,1.844434976577758789e+00,6.388214013937678626e-01,0.000000000000000000e+00,0.000000000000000000e+00,1.110000000000000000e+02
1.000000000000000000e+00,1.000000000000000000e+00,1.000000000000000000e+00,3.000000000000000000e+00,6.080000000000000000e+02,4.867718219757080078e-01,2.093608856201171875e+00,6.158225564497463722e-01,0.000000000000000000e+00,1.000000000000000000e+00,1.120000000000000000e+02
1.000000000000000000e+00,0.000000000000000000e+00,0.000000000000000000e+00,0.000000000000000000e+00,6.070000000000000000e+02,2.518641948699951172e-01,1.747038125991821289e+00,4.963213836289812053e-01,0.000000000000000000e+00,1.000000000000000000e+00,1.110000000000000000e+02
1.000000000000000000e+00,0.000000000000000000e+00,0.000000000000000000e+00,0.000000000000000000e+00,6.060000000000000000e+02,5.186049938201904297e-01,2.186468124389648438e+00,6.826089033221200975e-01,1.000000000000000000e+00,1.000000000000000000e+00,1.120000000000000000e+02
0.000000000000000000e+00,0.000000000000000000e+00,1.000000000000000000e+00,0.000000000000000000e+00,6.050000000000000000e+02,2.636539936065673828e-01,1.660132884979248047e+00,3.930663424420972052e-01,0.000000000000000000e+00,0.000000000000000000e+00,1.120000000000000000e+02
1.000000000000000000e+00,1.000000000000000000e+00,1.000000000000000000e+00,4.000000000000000000e+00,6.080000000000000000e+02,2.775921821594238281e-01,1.907707929611206055e+00,6.505011707982203406e-01,0.000000000000000000e+00,1.000000000000000000e+00,1.110000000000000000e+02
1.000000000000000000e+00,0.000000000000000000e+00,0.000000000000000000e+00,0.000000000000000000e+00,6.070000000000000000e+02,2.852020263671875000e-01,1.881240844726562500e+00,5.985169463709827387e-01,0.000000000000000000e+00,1.000000000000000000e+00,1.120000000000000000e+02
1.000000000000000000e+00,1.000000000000000000e+00,1.000000000000000000e+00,1.000000000000000000e+00,6.070000000000000000e+02,2.485458850860595703e-01,1.779611110687255859e+00,5.448151954547706399e-01,0.000000000000000000e+00,1.000000000000000000e+00,1.110000000000000000e+02
1.000000000000000000e+00,1.000000000000000000e+00,1.000000000000000000e+00,2.000000000000000000e+00,6.080000000000000000e+02,2.452740669250488281e-01,1.666519880294799805e+00,4.281535052403710462e-01,0.000000000000000000e+00,0.000000000000000000e+00,1.110000000000000000e+02
1.000000000000000000e+00,0.000000000000000000e+00,0.000000000000000000e+00,0.000000000000000000e+00,6.070000000000000000e+02,3.016328811645507812e-01,1.675350189208984375e+00,3.868672513611879915e-01,0.000000000000000000e+00,1.000000000000000000e+00,1.120000000000000000e+02
0.000000000000000000e+00,0.000000000000000000e+00,1.000000000000000000e+00,0.000000000000000000e+00,6.060000000000000000e+02,3.203349113464355469e-01,2.003924846649169922e+00,6.905651548256974692e-01,0.000000000000000000e+00,1.000000000000000000e+00,1.110000000000000000e+02
1.000000000000000000e+00,0.000000000000000000e+00,0.000000000000000000e+00,0.000000000000000000e+00,6.050000000000000000e+02,2.864401340484619141e-01,1.834814071655273438e+00,5.588574375483335022e-01,0.000000000000000000e+00,0.000000000000000000e+00,1.110000000000000000e+02
1.000000000000000000e+00,1.000000000000000000e+00,1.000000000000000000e+00,3.000000000000000000e+00,6.070000000000000000e+02,3.292438983917236328e-01,2.030632972717285156e+00,7.060506889958886312e-01,0.000000000000000000e+00,1.000000000000000000e+00,1.120000000000000000e+02
1.000000000000000000e+00,1.000000000000000000e+00,1.000000000000000000e+00,5.000000000000000000e+00,6.110000000000000000e+02,2.149050235748291016e-01,1.748932838439941406e+00,5.384580387823738601e-01,0.000000000000000000e+00,0.000000000000000000e+00,1.120000000000000000e+02
0.000000000000000000e+00,1.000000000000000000e+00,0.000000000000000000e+00,2.000000000000000000e+00,6.120000000000000000e+02,2.769000530242919922e-01,1.894682884216308594e+00,6.330660585479863656e-01,0.000000000000000000e+00,0.000000000000000000e+00,1.120000000000000000e+02
0.000000000000000000e+00,0.000000000000000000e+00,1.000000000000000000e+00,0.000000000000000000e+00,6.110000000000000000e+02,3.060140609741210938e-01,1.770710945129394531e+00,4.706405096953831246e-01,0.000000000000000000e+00,1.000000000000000000e+00,1.110000000000000000e+02
1.000000000000000000e+00,0.000000000000000000e+00,0.000000000000000000e+00,0.000000000000000000e+00,6.100000000000000000e+02,1.873881816864013672e-01,1.883350133895874023e+00,7.037231192835075033e-01,0.000000000000000000e+00,1.000000000000000000e+00,1.120000000000000000e+02
1.000000000000000000e+00,0.000000000000000000e+00,0.000000000000000000e+00,0.000000000000000000e+00,6.100000000000000000e+02,1.037140130996704102e+00,2.666311025619506836e+00,6.035960321878146573e-01,-1.000000000000000000e+00,-1.000000000000000000e+00,1.120000000000000000e+02
1.000000000000000000e+00,0.000000000000000000e+00,0.000000000000000000e+00,0.000000000000000000e+00,6.090000000000000000e+02,3.276121616363525391e-01,1.635986089706420898e+00,3.232082935810679514e-01,0.000000000000000000e+00,0.000000000000000000e+00,1.120000000000000000e+02
0.000000000000000000e+00,0.000000000000000000e+00,1.000000000000000000e+00,0.000000000000000000e+00,6.080000000000000000e+02,2.742371559143066406e-01,1.596595048904418945e+00,3.364566791780888022e-01,0.000000000000000000e+00,0.000000000000000000e+00,1.120000000000000000e+02
0.000000000000000000e+00,1.000000000000000000e+00,0.000000000000000000e+00,1.000000000000000000e+00,6.080000000000000000e+02,3.042218685150146484e-01,1.570299863815307617e+00,2.735230786939991665e-01,0.000000000000000000e+00,1.000000000000000000e+00,1.110000000000000000e+02
0.000000000000000000e+00,0.000000000000000000e+00,1.000000000000000000e+00,0.000000000000000000e+00,6.070000000000000000e+02,2.467119693756103516e-01,1.748642921447753906e+00,5.052708457140095977e-01,1.000000000000000000e+00,0.000000000000000000e+00,1.110000000000000000e+02
0.000000000000000000e+00,0.000000000000000000e+00,1.000000000000000000e+00,0.000000000000000000e+00,6.060000000000000000e+02,3.176901340484619141e-01,1.744584083557128906e+00,4.332968272123767228e-01,0.000000000000000000e+00,0.000000000000000000e+00,1.110000000000000000e+02
1.000000000000000000e+00,0.000000000000000000e+00,0.000000000000000000e+00,0.000000000000000000e+00,6.050000000000000000e+02,2.868039608001708984e-01,1.720452070236206055e+00,4.370961599331460445e-01,0.000000000000000000e+00,0.000000000000000000e+00,1.110000000000000000e+02
1.000000000000000000e+00,1.000000000000000000e+00,1.000000000000000000e+00,2.000000000000000000e+00,6.060000000000000000e+02,2.731368541717529297e-01,1.536403894424438477e+00,2.737103718110995842e-01,0.000000000000000000e+00,1.000000000000000000e+00,1.120000000000000000e+02
1.000000000000000000e+00,0.000000000000000000e+00,0.000000000000000000e+00,0.000000000000000000e+00,6.050000000000000000e+02,3.258969783782958984e-01,1.724408149719238281e+00,4.146731458270546677e-01,0.000000000000000000e+00,1.000000000000000000e+00,1.110000000000000000e+02
0.000000000000000000e+00,0.000000000000000000e+00,1.000000000000000000e+00,0.000000000000000000e+00,6.040000000000000000e+02,2.683079242706298828e-01,1.519206047058105469e+00,2.673797990030377103e-01,0.000000000000000000e+00,0.000000000000000000e+00,1.110000000000000000e+02
0.000000000000000000e+00,1.000000000000000000e+00,0.000000000000000000e+00,2.000000000000000000e+00,6.050000000000000000e+02,2.729640007019042969e-01,1.914234876632690430e+00,6.479131754261524545e-01,0.000000000000000000e+00,0.000000000000000000e+00,1.110000000000000000e+02
1.000000000000000000e+00,1.000000000000000000e+00,1.000000000000000000e+00,3.000000000000000000e+00,6.070000000000000000e+02,2.770729064941406250e-01,1.810001850128173828e+00,5.580624198994335039e-01,0.000000000000000000e+00,0.000000000000000000e+00,1.110000000000000000e+02
1.000000000000000000e+00,1.000000000000000000e+00,1.000000000000000000e+00,4.000000000000000000e+00,6.100000000000000000e+02,2.874069213867187500e-01,1.842408180236816406e+00,5.671693479796764414e-01,0.000000000000000000e+00,0.000000000000000000e+00,1.110000000000000000e+02
0.000000000000000000e+00,1.000000000000000000e+00,0.000000000000000000e+00,2.000000000000000000e+00,6.110000000000000000e+02,2.576079368591308594e-01,1.899250984191894531e+00,6.497021302721445180e-01,0.000000000000000000e+00,0.000000000000000000e+00,1.110000000000000000e+02
1.000000000000000000e+00,1.000000000000000000e+00,1.000000000000000000e+00,2.000000000000000000e+00,6.120000000000000000e+02,2.666058540344238281e-01,1.718966960906982422e+00,4.522241006926108198e-01,0.000000000000000000e+00,0.000000000000000000e+00,1.110000000000000000e+02
0.000000000000000000e+00,0.000000000000000000e+00,1.000000000000000000e+00,0.000000000000000000e+00,6.110000000000000000e+02,2.560517787933349609e-01,1.865431070327758789e+00,6.175021427331395252e-01,1.000000000000000000e+00,1.000000000000000000e+00,1.120000000000000000e+02
0.000000000000000000e+00,1.000000000000000000e+00,0.000000000000000000e+00,2.000000000000000000e+00,6.120000000000000000e+02,2.865109443664550781e-01,2.004462957382202148e+00,7.219192933844784665e-01,0.000000000000000000e+00,1.000000000000000000e+00,1.110000000000000000e+02
0.000000000000000000e+00,0.000000000000000000e+00,1.000000000000000000e+00,0.000000000000000000e+00,6.110000000000000000e+02,2.555401325225830078e-01,1.991192102432250977e+00,7.464683089326415999e-01,0.000000000000000000e+00,1.000000000000000000e+00,1.120000000000000000e+02
1.000000000000000000e+00,1.000000000000000000e+00,1.000000000000000000e+00,1.000000000000000000e+00,6.110000000000000000e+02,1.471540927886962891e-01,1.803742170333862305e+00,6.669895488070949341e-01,0.000000000000000000e+00,0.000000000000000000e+00,1.120000000000000000e+02
0.000000000000000000e+00,1.000000000000000000e+00,0.000000000000000000e+00,0.000000000000000000e+00,6.110000000000000000e+02,7.758808135986328125e-02,5.619881868362426758e+00,4.205380106809864516e-01,-2.000000000000000000e+00,-2.000000000000000000e+00,1.120000000000000000e+02
0.000000000000000000e+00,1.000000000000000000e+00,0.000000000000000000e+00,2.000000000000000000e+00,6.120000000000000000e+02,2.541029453277587891e-01,1.729815006256103516e+00,4.837136001161203569e-01,0.000000000000000000e+00,0.000000000000000000e+00,1.120000000000000000e+02
0.000000000000000000e+00,1.000000000000000000e+00,0.000000000000000000e+00,1.000000000000000000e+00,6.120000000000000000e+02,2.688140869140625000e-01,1.962667226791381836e+00,6.962018368025275628e-01,0.000000000000000000e+00,0.000000000000000000e+00,1.120000000000000000e+02
1.000000000000000000e+00,1.000000000000000000e+00,1.000000000000000000e+00,2.000000000000000000e+00,6.130000000000000000e+02,3.119390010833740234e-01,1.890394926071166992e+00,5.867536537314066436e-01,0.000000000000000000e+00,0.000000000000000000e+00,1.120000000000000000e+02
1.000000000000000000e+00,1.000000000000000000e+00,1.000000000000000000e+00,2.000000000000000000e+00,6.140000000000000000e+02,3.030080795288085938e-01,1.736416101455688477e+00,4.400244979109653176e-01,0.000000000000000000e+00,0.000000000000000000e+00,1.120000000000000000e+02
0.000000000000000000e+00,1.000000000000000000e+00,0.000000000000000000e+00,1.000000000000000000e+00,6.140000000000000000e+02,4.347460269927978516e-01,1.728132009506225586e+00,3.016616749101571626e-01,0.000000000000000000e+00,0.000000000000000000e+00,1.120000000000000000e+02
1.000000000000000000e+00,0.000000000000000000e+00,0.000000000000000000e+00,0.000000000000000000e+00,6.130000000000000000e+02,2.844691276550292969e-01,1.631941080093383789e+00,3.502454788785533957e-01,0.000000000000000000e+00,1.000000000000000000e+00,1.110000000000000000e+02
0.000000000000000000e+00,0.000000000000000000e+00,1.000000000000000000e+00,0.000000000000000000e+00,6.120000000000000000e+02,3.032150268554687500e-01,1.995244979858398438e+00,6.951551979670875792e-01,0.000000000000000000e+00,0.000000000000000000e+00,1.110000000000000000e+02
0.000000000000000000e+00,1.000000000000000000e+00,0.000000000000000000e+00,1.000000000000000000e+00,6.120000000000000000e+02,2.789270877838134766e-01,1.591439008712768555e+00,3.370419865818602978e-01,0.000000000000000000e+00,1.000000000000000000e+00,1.120000000000000000e+02
0.000000000000000000e+00,1.000000000000000000e+00,0.000000000000000000e+00,3.000000000000000000e+00,6.140000000000000000e+02,2.869739532470703125e-01,1.919973850250244141e+00,6.400429333849154689e-01,0.000000000000000000e+00,0.000000000000000000e+00,1.120000000000000000e+02
0.000000000000000000e+00,1.000000000000000000e+00,0.000000000000000000e+00,3.000000000000000000e+00,6.160000000000000000e+02,2.913119792938232422e-01,1.967856168746948242e+00,6.912631687399808378e-01,0.000000000000000000e+00,0.000000000000000000e+00,1.120000000000000000e+02
1.000000000000000000e+00,1.000000000000000000e+00,1.000000000000000000e+00,3.000000000000000000e+00,6.180000000000000000e+02,3.187818527221679688e-01,1.839013099670410156e+00,5.304583043664914399e-01,0.000000000000000000e+00,0.000000000000000000e+00,1.120000000000000000e+02
0.000000000000000000e+00,1.000000000000000000e+00,0.000000000000000000e+00,3.000000000000000000e+00,6.200000000000000000e+02,2.564749717712402344e-01,1.495193958282470703e+00,2.593480655936521995e-01,0.000000000000000000e+00,0.000000000000000000e+00,1.120000000000000000e+02
0.000000000000000000e+00,0.000000000000000000e+00,1.000000000000000000e+00,0.000000000000000000e+00,6.190000000000000000e+02,3.165760040283203125e-01,1.736653089523315430e+00,4.291671903374149610e-01,1.000000000000000000e+00,1.000000000000000000e+00,1.110000000000000000e+02
0.000000000000000000e+00,0.000000000000000000e+00,1.000000000000000000e+00,0.000000000000000000e+00,6.180000000000000000e+02,3.363118171691894531e-01,2.040846824645996094e+00,7.197790422818204359e-01,0.000000000000000000e+00,0.000000000000000000e+00,1.110000000000000000e+02
0.000000000000000000e+00,0.000000000000000000e+00,1.000000000000000000e+00,0.000000000000000000e+00,6.170000000000000000e+02,1.522819995880126953e-01,1.523047208786010742e+00,3.765324761034266055e-01,0.000000000000000000e+00,0.000000000000000000e+00,1.110000000000000000e+02
0.000000000000000000e+00,1.000000000000000000e+00,0.000000000000000000e+00,1.000000000000000000e+00,6.170000000000000000e+02,3.356969356536865234e-01,1.726405858993530273e+00,4.029366415629906384e-01,0.000000000000000000e+00,0.000000000000000000e+00,1.110000000000000000e+02
1.000000000000000000e+00,0.000000000000000000e+00,0.000000000000000000e+00,0.000000000000000000e+00,6.160000000000000000e+02,2.384300231933593750e-01,1.786882877349853516e+00,5.564130338442005996e-01,0.000000000000000000e+00,1.000000000000000000e+00,1.120000000000000000e+02
0.000000000000000000e+00,0.000000000000000000e+00,1.000000000000000000e+00,0.000000000000000000e+00,6.150000000000000000e+02,2.391700744628906250e-01,1.830589056015014648e+00,6.036415336093692297e-01,0.000000000000000000e+00,0.000000000000000000e+00,1.120000000000000000e+02
0.000000000000000000e+00,0.000000000000000000e+00,1.000000000000000000e+00,0.000000000000000000e+00,6.140000000000000000e+02,2.388880252838134766e-01,1.716072082519531250e+00,4.865429133504161618e-01,0.000000000000000000e+00,1.000000000000000000e+00,1.110000000000000000e+02
0.000000000000000000e+00,0.000000000000000000e+00,1.000000000000000000e+00,0.000000000000000000e+00,6.130000000000000000e+02,2.192559242248535156e-01,1.960552930831909180e+00,7.468799632276739153e-01,0.000000000000000000e+00,0.000000000000000000e+00,1.110000000000000000e+02
0.000000000000000000e+00,0.000000000000000000e+00,1.000000000000000000e+00,0.000000000000000000e+00,6.120000000000000000e+02,1.793470382690429688e-01,1.576650142669677734e+00,4.239041944901763004e-01,0.000000000000000000e+00,0.000000000000000000e+00,1.110000000000000000e+02
1.000000000000000000e+00,0.000000000000000000e+00,0.000000000000000000e+00,0.000000000000000000e+00,6.110000000000000000e+02,2.511000633239746094e-01,1.768904924392700195e+00,5.260791126245552007e-01,0.000000000000000000e+00,1.000000000000000000e+00,1.120000000000000000e+02
1.000000000000000000e+00,1.000000000000000000e+00,1.000000000000000000e+00,3.000000000000000000e+00,6.130000000000000000e+02,2.344408035278320312e-01,1.638645172119140625e+00,4.148853714949993221e-01,0.000000000000000000e+00,1.000000000000000000e+00,1.110000000000000000e+02
0.000000000000000000e+00,1.000000000000000000e+00,0.000000000000000000e+00,2.000000000000000000e+00,6.140000000000000000e+02,2.691679000854492188e-01,1.661108016967773438e+00,4.093860529293246731e-01,0.000000000000000000e+00,0.000000000000000000e+00,1.110000000000000000e+02
1.000000000000000000e+00,1.000000000000000000e+00,1.000000000000000000e+00,0.000000000000000000e+00,6.130000000000000000e+02,2.975618839263916016e-01,1.592760086059570312e+00,3.022981865214030561e-01,0.000000000000000000e+00,0.000000000000000000e+00,1.110000000000000000e+02
1.000000000000000000e+00,1.000000000000000000e+00,1.000000000000000000e+00,2.000000000000000000e+00,6.140000000000000000e+02,2.926630973815917969e-01,1.723505020141601562e+00,4.423711123959191971e-01,0.000000000000000000e+00,0.000000000000000000e+00,1.110000000000000000e+02
0.000000000000000000e+00,1.000000000000000000e+00,0.000000000000000000e+00,3.000000000000000000e+00,6.160000000000000000e+02,2.670109272003173828e-01,1.779321908950805664e+00,5.216779754038989303e-01,0.000000000000000000e+00,0.000000000000000000e+00,1.110000000000000000e+02
0.000000000000000000e+00,0.000000000000000000e+00,1.000000000000000000e+00,0.000000000000000000e+00,6.150000000000000000e+02,2.617311477661132812e-01,1.751188993453979492e+00,4.895977155832491046e-01,1.000000000000000000e+00,1.000000000000000000e+00,1.120000000000000000e+02
0.000000000000000000e+00,0.000000000000000000e+00,1.000000000000000000e+00,0.000000000000000000e+00,6.140000000000000000e+02,2.648000717163085938e-01,1.739576101303100586e+00,4.792341077394430826e-01,0.000000000000000000e+00,0.000000000000000000e+00,1.120000000000000000e+02
1.000000000000000000e+00,1.000000000000000000e+00,1.000000000000000000e+00,2.000000000000000000e+00,6.150000000000000000e+02,2.895171642303466797e-01,1.975615978240966797e+00,7.045857927088479133e-01,0.000000000000000000e+00,0.000000000000000000e+00,1.120000000000000000e+02
0.000000000000000000e+00,1.000000000000000000e+00,0.000000000000000000e+00,2.000000000000000000e+00,6.160000000000000000e+02,2.142429351806640625e-01,1.500128030776977539e+00,2.886147149277686341e-01,0.000000000000000000e+00,0.000000000000000000e+00,1.120000000000000000e+02
0.000000000000000000e+00,1.000000000000000000e+00,0.000000000000000000e+00,3.000000000000000000e+00,6.180000000000000000e+02,2.443339824676513672e-01,1.729213953018188477e+00,4.843365829074948725e-01,0.000000000000000000e+00,0.000000000000000000e+00,1.120000000000000000e+02
0.000000000000000000e+00,1.000000000000000000e+00,0.000000000000000000e+00,2.000000000000000000e+00,6.190000000000000000e+02,2.691488265991210938e-01,1.758951902389526367e+00,4.933338400724127659e-01,0.000000000000000000e+00,0.000000000000000000e+00,1.120000000000000000e+02
1.000000000000000000e+00,1.000000000000000000e+00,1.000000000000000000e+00,1.000000000000000000e+00,6.190000000000000000e+02,2.930750846862792969e-01,1.624980926513671875e+00,3.517877245319206425e-01,0.000000000000000000e+00,0.000000000000000000e+00,1.120000000000000000e+02
0.000000000000000000e+00,1.000000000000000000e+00,0.000000000000000000e+00,2.000000000000000000e+00,6.200000000000000000e+02,2.259500026702880859e-01,1.814071178436279297e+00,5.990145192551832309e-01,0.000000000000000000e+00,0.000000000000000000e+00,1.120000000000000000e+02
1.000000000000000000e+00,1.000000000000000000e+00,1.000000000000000000e+00,0.000000000000000000e+00,6.190000000000000000e+02,2.963480949401855469e-01,1.666449069976806641e+00,3.657664136876178640e-01,0.000000000000000000e+00,0.000000000000000000e+00,1.120000000000000000e+02
1.000000000000000000e+00,1.000000000000000000e+00,1.000000000000000000e+00,3.000000000000000000e+00,6.210000000000000000e+02,3.087399005889892578e-01,1.908164024353027344e+00,6.070431980176536069e-01,0.000000000000000000e+00,0.000000000000000000e+00,1.120000000000000000e+02
0.000000000000000000e+00,1.000000000000000000e+00,0.000000000000000000e+00,2.000000000000000000e+00,6.220000000000000000e+02,2.778210639953613281e-01,1.535383939743041992e+00,2.761903247654449722e-01,0.000000000000000000e+00,0.000000000000000000e+00,1.120000000000000000e+02
0.000000000000000000e+00,1.000000000000000000e+00,0.000000000000000000e+00,3.000000000000000000e+00,6.240000000000000000e+02,3.554461002349853516e-01,1.704356193542480469e+00,3.638350303968577171e-01,0.000000000000000000e+00,0.000000000000000000e+00,1.120000000000000000e+02
1.000000000000000000e+00,0.000000000000000000e+00,0.000000000000000000e+00,0.000000000000000000e+00,6.230000000000000000e+02,2.664959430694580078e-01,1.519794940948486328e+00,2.671053253869452582e-01,0.000000000000000000e+00,1.000000000000000000e+00,1.110000000000000000e+02
0.000000000000000000e+00,1.000000000000000000e+00,0.000000000000000000e+00,2.000000000000000000e+00,6.240000000000000000e+02,2.622761726379394531e-01,1.558197021484375000e+00,2.919999367592530093e-01,0.000000000000000000e+00,1.000000000000000000e+00,1.120000000000000000e+02
1.000000000000000000e+00,0.000000000000000000e+00,0.000000000000000000e+00,0.000000000000000000e+00,6.230000000000000000e+02,3.103289604187011719e-01,2.021011114120483398e+00,7.126080126051901331e-01,0.000000000000000000e+00,1.000000000000000000e+00,1.110000000000000000e+02
0.000000000000000000e+00,1.000000000000000000e+00,0.000000000000000000e+00,3.000000000000000000e+00,6.250000000000000000e+02,1.344540119171142578e-01,1.652888059616088867e+00,5.323986411072902936e-01,0.000000000000000000e+00,0.000000000000000000e+00,1.110000000000000000e+02
0.000000000000000000e+00,0.000000000000000000e+00,1.000000000000000000e+00,0.000000000000000000e+00,6.240000000000000000e+02,2.980771064758300781e-01,1.649430990219116211e+00,3.487282012384873564e-01,0.000000000000000000e+00,1.000000000000000000e+00,1.120000000000000000e+02
1.000000000000000000e+00,0.000000000000000000e+00,0.000000000000000000e+00,0.000000000000000000e+00,6.230000000000000000e+02,2.774870395660400391e-01,1.863903045654296875e+00,5.790766747704167994e-01,0.000000000000000000e+00,1.000000000000000000e+00,1.110000000000000000e+02
0.000000000000000000e+00,0.000000000000000000e+00,1.000000000000000000e+00,0.000000000000000000e+00,6.220000000000000000e+02,2.601790428161621094e-01,1.909468889236450195e+00,6.718473550387298321e-01,1.000000000000000000e+00,0.000000000000000000e+00,1.110000000000000000e+02
1.000000000000000000e+00,1.000000000000000000e+00,1.000000000000000000e+00,1.000000000000000000e+00,6.220000000000000000e+02,3.316910266876220703e-01,1.774060010910034180e+00,4.462041468192765592e-01,0.000000000000000000e+00,1.000000000000000000e+00,1.120000000000000000e+02
1.000000000000000000e+00,1.000000000000000000e+00,1.000000000000000000e+00,4.000000000000000000e+00,6.250000000000000000e+02,2.760660648345947266e-01,1.688013076782226562e+00,4.342875494218959020e-01,0.000000000000000000e+00,0.000000000000000000e+00,1.120000000000000000e+02
1.000000000000000000e+00,0.000000000000000000e+00,0.000000000000000000e+00,0.000000000000000000e+00,6.240000000000000000e+02,2.912111282348632812e-01,2.022727012634277344e+00,7.400470344096681252e-01,0.000000000000000000e+00,1.000000000000000000e+00,1.110000000000000000e+02
1.000000000000000000e+00,1.000000000000000000e+00,1.000000000000000000e+00,1.000000000000000000e+00,6.240000000000000000e+02,3.085408210754394531e-01,2.042430162429809570e+00,7.492109807941883526e-01,0.000000000000000000e+00,1.000000000000000000e+00,1.120000000000000000e+02
0.000000000000000000e+00,0.000000000000000000e+00,1.000000000000000000e+00,0.000000000000000000e+00,6.230000000000000000e+02,2.605559825897216797e-01,1.866389036178588867e+00,6.157900045403583711e-01,0.000000000000000000e+00,1.000000000000000000e+00,1.110000000000000000e+02
0.000000000000000000e+00,1.000000000000000000e+00,0.000000000000000000e+00,3.000000000000000000e+00,6.250000000000000000e+02,2.939000129699707031e-01,1.680675983428955078e+00,3.967526043008616221e-01,0.000000000000000000e+00,1.000000000000000000e+00,1.120000000000000000e+02
0.000000000000000000e+00,0.000000000000000000e+00,1.000000000000000000e+00,0.000000000000000000e+00,6.240000000000000000e+02,3.253850936889648438e-01,2.052221059799194336e+00,7.486777302713938376e-01,0.000000000000000000e+00,1.000000000000000000e+00,1.110000000000000000e+02
1.000000000000000000e+00,1.000000000000000000e+00,1.000000000000000000e+00,0.000000000000000000e+00,6.240000000000000000e+02,3.047609329223632812e-02,5.725492000579833984e+00,5.745469703275829509e-01,-2.000000000000000000e+00,-2.000000000000000000e+00,1.120000000000000000e+02
1.000000000000000000e+00,0.000000000000000000e+00,0.000000000000000000e+00,0.000000000000000000e+00,6.230000000000000000e+02,2.504270076751708984e-01,1.496039152145385742e+00,2.542733403246404955e-01,0.000000000000000000e+00,1.000000000000000000e+00,1.110000000000000000e+02
0.000000000000000000e+00,0.000000000000000000e+00,1.000000000000000000e+00,0.000000000000000000e+00,6.220000000000000000e+02,3.855168819427490234e-01,1.631465911865234375e+00,2.524567757644459731e-01,0.000000000000000000e+00,1.000000000000000000e+00,1.120000000000000000e+02
1.000000000000000000e+00,1.000000000000000000e+00,1.000000000000000000e+00,3.000000000000000000e+00,6.240000000000000000e+02,2.871840000152587891e-01,1.883880853652954102e+00,6.027074300110815130e-01,0.000000000000000000e+00,1.000000000000000000e+00,1.110000000000000000e+02
0.000000000000000000e+00,0.000000000000000000e+00,1.000000000000000000e+00,0.000000000000000000e+00,6.230000000000000000e+02,2.738430500030517578e-01,1.985225915908813477e+00,7.211988877515944640e-01,0.000000000000000000e+00,1.000000000000000000e+00,1.120000000000000000e+02
0.000000000000000000e+00,0.000000000000000000e+00,1.000000000000000000e+00,0.000000000000000000e+00,6.220000000000000000e+02,4.325630664825439453e-01,2.051037073135375977e+00,6.224104347871604048e-01,0.000000000000000000e+00,0.000000000000000000e+00,1.120000000000000000e+02
0.000000000000000000e+00,1.000000000000000000e+00,0.000000000000000000e+00,2.000000000000000000e+00,6.230000000000000000e+02,1.955308914184570312e-01,1.599531173706054688e+00,4.055360589741393573e-01,0.000000000000000000e+00,0.000000000000000000e+00,1.120000000000000000e+02
0.000000000000000000e+00,1.000000000000000000e+00,0.000000000000000000e+00,2.000000000000000000e+00,6.240000000000000000e+02,2.947061061859130859e-01,1.560267925262451172e+00,2.826489963491302659e-01,1.000000000000000000e+00,0.000000000000000000e+00,1.120000000000000000e+02
0.000000000000000000e+00,0.000000000000000000e+00,1.000000000000000000e+00,0.000000000000000000e+00,6.230000000000000000e+02,2.981081008911132812e-01,1.815251111984252930e+00,5.143824437737047894e-01,0.000000000000000000e+00,1.000000000000000000e+00,1.110000000000000000e+02
0.000000000000000000e+00,1.000000000000000000e+00,0.000000000000000000e+00,3.000000000000000000e+00,6.250000000000000000e+02,2.020990848541259766e-01,1.757323980331420898e+00,5.716837364825778645e-01,0.000000000000000000e+00,0.000000000000000000e+00,1.110000000000000000e+02
0.000000000000000000e+00,0.000000000000000000e+00,1.000000000000000000e+00,0.000000000000000000e+00,6.240000000000000000e+02,2.505559921264648438e-01,1.675719976425170898e+00,4.309404722351345418e-01,0.000000000000000000e+00,1.000000000000000000e+00,1.120000000000000000e+02
0.000000000000000000e+00,0.000000000000000000e+00,1.000000000000000000e+00,0.000000000000000000e+00,6.230000000000000000e+02,1.838939189910888672e-01,1.640097141265869141e+00,4.710487690322621157e-01,0.000000000000000000e+00,1.000000000000000000e+00,1.110000000000000000e+02
1.000000000000000000e+00,0.000000000000000000e+00,0.000000000000000000e+00,0.000000000000000000e+00,6.220000000000000000e+02,3.610289096832275391e-01,1.756537914276123047e+00,4.110237668608853756e-01,0.000000000000000000e+00,0.000000000000000000e+00,1.110000000000000000e+02
0.000000000000000000e+00,1.000000000000000000e+00,0.000000000000000000e+00,4.000000000000000000e+00,6.250000000000000000e+02,5.701510906219482422e-01,1.842740058898925781e+00,2.872962803833085110e-01,0.000000000000000000e+00,1.000000000000000000e+00,1.120000000000000000e+02
1.000000000000000000e+00,0.000000000000000000e+00,0.000000000000000000e+00,0.000000000000000000e+00,6.240000000000000000e+02,4.921650886535644531e-01,1.760734081268310547e+00,2.814156526465236841e-01,0.000000000000000000e+00,1.000000000000000000e+00,1.110000000000000000e+02
1.000000000000000000e+00,0.000000000000000000e+00,0.000000000000000000e+00,0.000000000000000000e+00,6.230000000000000000e+02,3.672149181365966797e-01,2.008999109268188477e+00,6.567449239883396128e-01,0.000000000000000000e+00,0.000000000000000000e+00,1.110000000000000000e+02
1.000000000000000000e+00,0.000000000000000000e+00,0.000000000000000000e+00,0.000000000000000000e+00,6.220000000000000000e+02,3.576030731201171875e-01,2.030420064926147461e+00,6.871424202371174683e-01,0.000000000000000000e+00,1.000000000000000000e+00,1.120000000000000000e+02
1.000000000000000000e+00,1.000000000000000000e+00,1.000000000000000000e+00,2.000000000000000000e+00,6.230000000000000000e+02,2.972908020019531250e-01,1.931401968002319336e+00,6.353798756983916052e-01,0.000000000000000000e+00,1.000000000000000000e+00,1.110000000000000000e+02
1.000000000000000000e+00,0.000000000000000000e+00,0.000000000000000000e+00,0.000000000000000000e+00,6.220000000000000000e+02,2.811291217803955078e-01,1.992348909378051758e+00,7.110070287587746396e-01,0.000000000000000000e+00,1.000000000000000000e+00,1.120000000000000000e+02
0.000000000000000000e+00,0.000000000000000000e+00,1.000000000000000000e+00,0.000000000000000000e+00,6.210000000000000000e+02,2.468149662017822266e-01,1.644597053527832031e+00,4.060064451949927933e-01,0.000000000000000000e+00,1.000000000000000000e+00,1.110000000000000000e+02
0.000000000000000000e+00,0.000000000000000000e+00,1.000000000000000000e+00,0.000000000000000000e+00,6.200000000000000000e+02,2.297689914703369141e-01,1.704753160476684570e+00,4.773778070856929956e-01,0.000000000000000000e+00,0.000000000000000000e+00,1.110000000000000000e+02
0.000000000000000000e+00,1.000000000000000000e+00,0.000000000000000000e+00,4.000000000000000000e+00,6.230000000000000000e+02,2.299408912658691406e-01,1.513345956802368164e+00,2.909918939327000298e-01,0.000000000000000000e+00,1.000000000000000000e+00,1.120000000000000000e+02
1.000000000000000000e+00,0.000000000000000000e+00,0.000000000000000000e+00,0.000000000000000000e+00,6.220000000000000000e+02,2.853169441223144531e-01,1.998101949691772461e+00,7.220316232886294650e-01,0.000000000000000000e+00,1.000000000000000000e+00,1.110000000000000000e+02
0.000000000000000000e+00,0.000000000000000000e+00,1.000000000000000000e+00,0.000000000000000000e+00,6.210000000000000000e+02,1.903538703918457031e-01,1.898019790649414062e+00,7.201116702128977920e-01,0.000000000000000000e+00,0.000000000000000000e+00,1.110000000000000000e+02
0.000000000000000000e+00,0.000000000000000000e+00,1.000000000000000000e+00,0.000000000000000000e+00,6.210000000000000000e+02,3.508400917053222656e-02,5.646692991256713867e+00,4.838800513545134518e-01,-2.000000000000000000e+00,-2.000000000000000000e+00,1.110000000000000000e+02
0.000000000000000000e+00,0.000000000000000000e+00,1.000000000000000000e+00,0.000000000000000000e+00,6.200000000000000000e+02,3.096911907196044922e-01,1.661490917205810547e+00,3.622293714870901682e-01,0.000000000000000000e+00,0.000000000000000000e+00,1.110000000000000000e+02
0.000000000000000000e+00,0.000000000000000000e+00,1.000000000000000000e+00,0.000000000000000000e+00,6.190000000000000000e+02,2.526769638061523438e-01,1.897296190261840820e+00,6.592961126802541205e-01,0.000000000000000000e+00,0.000000000000000000e+00,1.110000000000000000e+02
0.000000000000000000e+00,0.000000000000000000e+00,1.000000000000000000e+00,0.000000000000000000e+00,6.180000000000000000e+02,1.806771755218505859e-01,1.720620870590209961e+00,5.466717078620937365e-01,0.000000000000000000e+00,0.000000000000000000e+00,1.110000000000000000e+02
1.000000000000000000e+00,0.000000000000000000e+00,0.000000000000000000e+00,0.000000000000000000e+00,6.170000000000000000e+02,2.290599346160888672e-01,1.622388839721679688e+00,4.026379440164984946e-01,1.000000000000000000e+00,1.000000000000000000e+00,1.120000000000000000e+02
1.000000000000000000e+00,1.000000000000000000e+00,1.000000000000000000e+00,3.000000000000000000e+00,6.190000000000000000e+02,2.109770774841308594e-01,1.735634088516235352e+00,5.381722389610145152e-01,0.000000000000000000e+00,1.000000000000000000e+00,1.110000000000000000e+02
0.000000000000000000e+00,1.000000000000000000e+00,0.000000000000000000e+00,3.000000000000000000e+00,6.210000000000000000e+02,2.976839542388916016e-01,1.553285121917724609e+00,2.584759019931178181e-01,0.000000000000000000e+00,1.000000000000000000e+00,1.120000000000000000e+02
1.000000000000000000e+00,0.000000000000000000e+00,0.000000000000000000e+00,0.000000000000000000e+00,6.200000000000000000e+02,2.655680179595947266e-01,1.690488815307617188e+00,4.321622512994811594e-01,0.000000000000000000e+00,0.000000000000000000e+00,1.120000000000000000e+02
0.000000000000000000e+00,0.000000000000000000e+00,1.000000000000000000e+00,0.000000000000000000e+00,6.190000000000000000e+02,2.476711273193359375e-01,1.563702106475830078e+00,3.127001558927882119e-01,0.000000000000000000e+00,0.000000000000000000e+00,1.120000000000000000e+02
1.000000000000000000e+00,1.000000000000000000e+00,1.000000000000000000e+00,2.000000000000000000e+00,6.200000000000000000e+02,2.559039592742919922e-01,1.491115093231201172e+00,2.539442404499830386e-01,0.000000000000000000e+00,0.000000000000000000e+00,1.120000000000000000e+02
1.000000000000000000e+00,0.000000000000000000e+00,0.000000000000000000e+00,0.000000000000000000e+00,6.190000000000000000e+02,2.748918533325195312e-01,1.645695924758911133e+00,3.829023246788492707e-01,0.000000000000000000e+00,1.000000000000000000e+00,1.110000000000000000e+02
1.000000000000000000e+00,1.000000000000000000e+00,1.000000000000000000e+00,3.000000000000000000e+00,6.210000000000000000e+02,3.419549465179443359e-01,1.680087089538574219e+00,3.463889286076995977e-01,0.000000000000000000e+00,1.000000000000000000e+00,1.120000000000000000e+02
0.000000000000000000e+00,1.000000000000000000e+00,0.000000000000000000e+00,0.000000000000000000e+00,6.200000000000000000e+02,4.153180122375488281e-01,2.063703060150146484e+00,6.598077521523875166e-01,0.000000000000000000e+00,0.000000000000000000e+00,1.120000000000000000e+02
0.000000000000000000e+00,1.000000000000000000e+00,0.000000000000000000e+00,3.000000000000000000e+00,6.220000000000000000e+02,2.077708244323730469e-01,1.586012125015258789e+00,3.961449956489406232e-01,0.000000000000000000e+00,0.000000000000000000e+00,1.120000000000000000e+02
0.000000000000000000e+00,1.000000000000000000e+00,0.000000000000000000e+00,4.000000000000000000e+00,6.250000000000000000e+02,3.264780044555664062e-01,1.833036899566650391e+00,5.290853314384216244e-01,0.000000000000000000e+00,1.000000000000000000e+00,1.110000000000000000e+02
1.000000000000000000e+00,0.000000000000000000e+00,0.000000000000000000e+00,0.000000000000000000e+00,6.240000000000000000e+02,4.552540779113769531e-01,2.005464076995849609e+00,5.679247730613636858e-01,0.000000000000000000e+00,1.000000000000000000e+00,1.120000000000000000e+02
0.000000000000000000e+00,1.000000000000000000e+00,0.000000000000000000e+00,2.000000000000000000e+00,6.250000000000000000e+02,2.484569549560546875e-01,1.996335983276367188e+00,7.473861809607185158e-01,0.000000000000000000e+00,0.000000000000000000e+00,1.120000000000000000e+02
1.000000000000000000e+00,0.000000000000000000e+00,0.000000000000000000e+00,0.000000000000000000e+00,6.240000000000000000e+02,2.172009944915771484e-01,1.813267946243286133e+00,6.107802628251985944e-01,0.000000000000000000e+00,1.000000000000000000e+00,1.110000000000000000e+02
0.000000000000000000e+00,1.000000000000000000e+00,0.000000000000000000e+00,2.000000000000000000e+00,6.250000000000000000e+02,2.366189956665039062e-01,1.678823947906494141e+00,4.564976679605108334e-01,0.000000000000000000e+00,1.000000000000000000e+00,1.120000000000000000e+02
0.000000000000000000e+00,0.000000000000000000e+00,1.000000000000000000e+00,0.000000000000000000e+00,6.240000000000000000e+02,3.294758796691894531e-01,1.603992938995361328e+00,2.773468393046923386e-01,0.000000000000000000e+00,0.000000000000000000e+00,1.120000000000000000e+02
0.000000000000000000e+00,1.000000000000000000e+00,0.000000000000000000e+00,4.000000000000000000e+00,6.270000000000000000e+02,3.154280185699462891e-01,1.969083070755004883e+00,6.626497692920947369e-01,0.000000000000000000e+00,0.000000000000000000e+00,1.120000000000000000e+02
1.000000000000000000e+00,0.000000000000000000e+00,0.000000000000000000e+00,0.000000000000000000e+00,6.260000000000000000e+02,2.217791080474853516e-01,1.886954069137573242e+00,6.829727761837771638e-01,0.000000000000000000e+00,0.000000000000000000e+00,1.120000000000000000e+02
0.000000000000000000e+00,1.000000000000000000e+00,0.000000000000000000e+00,2.000000000000000000e+00,6.270000000000000000e+02,2.119109630584716797e-01,1.651294946670532227e+00,4.345279773472162099e-01,0.000000000000000000e+00,0.000000000000000000e+00,1.120000000000000000e+02
0.000000000000000000e+00,1.000000000000000000e+00,0.000000000000000000e+00,1.000000000000000000e+00,6.270000000000000000e+02,2.520527839660644531e-01,1.687124967575073242e+00,4.383192006449659339e-01,1.000000000000000000e+00,0.000000000000000000e+00,1.120000000000000000e+02
0.000000000000000000e+00,0.000000000000000000e+00,1.000000000000000000e+00,0.000000000000000000e+00,6.260000000000000000e+02,2.637021541595458984e-01,1.614563941955566406e+00,3.529665855309734313e-01,0.000000000000000000e+00,1.000000000000000000e+00,1.110000000000000000e+02
0.000000000000000000e+00,1.000000000000000000e+00,0.000000000000000000e+00,2.000000000000000000e+00,6.270000000000000000e+02,2.690680027008056641e-01,1.972321987152099609e+00,7.082543913805643410e-01,0.000000000000000000e+00,1.000000000000000000e+00,1.120000000000000000e+02
0.000000000000000000e+00,0.000000000000000000e+00,1.000000000000000000e+00,0.000000000000000000e+00,6.260000000000000000e+02,2.234199047088623047e-01,1.480316162109375000e+00,2.723606712405921004e-01,0.000000000000000000e+00,1.000000000000000000e+00,1.110000000000000000e+02
0.000000000000000000e+00,0.000000000000000000e+00,1.000000000000000000e+00,0.000000000000000000e+00,6.250000000000000000e+02,2.572500705718994141e-01,1.896559000015258789e+00,6.519692654914439611e-01,0.000000000000000000e+00,0.000000000000000000e+00,1.110000000000000000e+02
1.000000000000000000e+00,0.000000000000000000e+00,0.000000000000000000e+00,0.000000000000000000e+00,6.240000000000000000e+02,3.342599868774414062e-01,1.686335086822509766e+00,3.551996693291443186e-01,0.000000000000000000e+00,1.000000000000000000e+00,1.120000000000000000e+02
1.000000000000000000e+00,1.000000000000000000e+00,1.000000000000000000e+00,1.000000000000000000e+00,6.240000000000000000e+02,4.189789295196533203e-01,2.083346843719482422e+00,6.715082549650484012e-01,0.000000000000000000e+00,1.000000000000000000e+00,1.110000000000000000e+02
1.000000000000000000e+00,1.000000000000000000e+00,1.000000000000000000e+00,3.000000000000000000e+00,6.260000000000000000e+02,2.767279148101806641e-01,1.665675163269042969e+00,4.041606032799727188e-01,0.000000000000000000e+00,0.000000000000000000e+00,1.110000000000000000e+02
0.000000000000000000e+00,1.000000000000000000e+00,0.000000000000000000e+00,3.000000000000000000e+00,6.280000000000000000e+02,3.650970458984375000e-01,2.047389030456542969e+00,6.846135481258970312e-01,0.000000000000000000e+00,0.000000000000000000e+00,1.110000000000000000e+02
1.000000000000000000e+00,1.000000000000000000e+00,1.000000000000000000e+00,3.000000000000000000e+00,6.300000000000000000e+02,2.671818733215332031e-01,1.568131923675537109e+00,3.031414117382628115e-01,0.000000000000000000e+00,0.000000000000000000e+00,1.110000000000000000e+02
0.000000000000000000e+00,1.000000000000000000e+00,0.000000000000000000e+00,1.000000000000000000e+00,6.300000000000000000e+02,3.395800590515136719e-01,1.937836170196533203e+00,6.073697511622571099e-01,0.000000000000000000e+00,0.000000000000000000e+00,1.110000000000000000e+02
0.000000000000000000e+00,0.000000000000000000e+00,1.000000000000000000e+00,0.000000000000000000e+00,6.290000000000000000e+02,3.662769794464111328e-01,2.078913927078247070e+00,7.199569765229150153e-01,0.000000000000000000e+00,1.000000000000000000e+00,1.120000000000000000e+02
1.000000000000000000e+00,0.000000000000000000e+00,0.000000000000000000e+00,0.000000000000000000e+00,6.280000000000000000e+02,5.650649070739746094e-01,2.116317987442016602e+00,5.526775354706088272e-01,0.000000000000000000e+00,1.000000000000000000e+00,1.110000000000000000e+02
1.000000000000000000e+00,0.000000000000000000e+00,0.000000000000000000e+00,0.000000000000000000e+00,6.270000000000000000e+02,3.035378456115722656e-01,2.039605140686035156e+00,7.421129267632644577e-01,0.000000000000000000e+00,0.000000000000000000e+00,1.110000000000000000e+02
0.000000000000000000e+00,0.000000000000000000e+00,1.000000000000000000e+00,0.000000000000000000e+00,6.260000000000000000e+02,2.622218132019042969e-01,1.906674861907958984e+00,6.489016212258509331e-01,0.000000000000000000e+00,1.000000000000000000e+00,1.120000000000000000e+02
1.000000000000000000e+00,1.000000000000000000e+00,1.000000000000000000e+00,2.000000000000000000e+00,6.270000000000000000e+02,2.346160411834716797e-01,1.841781139373779297e+00,6.073947394799041888e-01,1.000000000000000000e+00,0.000000000000000000e+00,1.120000000000000000e+02
1.000000000000000000e+00,1.000000000000000000e+00,1.000000000000000000e+00,4.000000000000000000e+00,6.300000000000000000e+02,2.273299694061279297e-01,1.717666864395141602e+00,5.085197452011154251e-01,0.000000000000000000e+00,1.000000000000000000e+00,1.110000000000000000e+02
1.000000000000000000e+00,0.000000000000000000e+00,0.000000000000000000e+00,0.000000000000000000e+00,6.290000000000000000e+02,5.136339664459228516e-01,2.087433099746704102e+00,5.792177448246944582e-01,0.000000000000000000e+00,1.000000000000000000e+00,1.120000000000000000e+02
1.000000000000000000e+00,1.000000000000000000e+00,1.000000000000000000e+00,2.000000000000000000e+00,6.300000000000000000e+02,2.614638805389404297e-01,1.674658060073852539e+00,4.373809802807237523e-01,0.000000000000000000e+00,0.000000000000000000e+00,1.120000000000000000e+02
1.000000000000000000e+00,0.000000000000000000e+00,0.000000000000000000e+00,0.000000000000000000e+00,6.290000000000000000e+02,2.411899566650390625e-01,1.564429998397827148e+00,3.352640957626307205e-01,0.000000000000000000e+00,0.000000000000000000e+00,1.120000000000000000e+02
1.000000000000000000e+00,1.000000000000000000e+00,1.000000000000000000e+00,2.000000000000000000e+00,6.300000000000000000e+02,2.445549964904785156e-01,1.913928031921386719e+00,6.821926312465108611e-01,0.000000000000000000e+00,1.000000000000000000e+00,1.110000000000000000e+02
0.000000000000000000e+00,1.000000000000000000e+00,0.000000000000000000e+00,2.000000000000000000e+00,6.310000000000000000e+02,2.050080299377441406e-01,1.869165897369384766e+00,6.680505128193872100e-01,0.000000000000000000e+00,1.000000000000000000e+00,1.120000000000000000e+02
0.000000000000000000e+00,1.000000000000000000e+00,0.000000000000000000e+00,2.000000000000000000e+00,6.320000000000000000e+02,2.564089298248291016e-01,1.698119878768920898e+00,4.497412294646941366e-01,0.000000000000000000e+00,1.000000000000000000e+00,1.110000000000000000e+02
0.000000000000000000e+00,0.000000000000000000e+00,1.000000000000000000e+00,0.000000000000000000e+00,6.310000000000000000e+02,2.664678096771240234e-01,1.544270992279052734e+00,2.775536807445104226e-01,0.000000000000000000e+00,1.000000000000000000e+00,1.120000000000000000e+02
0.000000000000000000e+00,0.000000000000000000e+00,1.000000000000000000e+00,0.000000000000000000e+00,6.300000000000000000e+02,3.771510124206542969e-01,1.795494794845581055e+00,4.395413778552140771e-01,0.000000000000000000e+00,1.000000000000000000e+00,1.110000000000000000e+02
0.000000000000000000e+00,0.000000000000000000e+00,1.000000000000000000e+00,0.000000000000000000e+00,6.290000000000000000e+02,2.551939487457275391e-01,1.630679845809936523e+00,3.869601832614464332e-01,0.000000000000000000e+00,1.000000000000000000e+00,1.120000000000000000e+02
1.000000000000000000e+00,1.000000000000000000e+00,1.000000000000000000e+00,2.000000000000000000e+00,6.300000000000000000e+02,3.429298400878906250e-01,1.874610185623168945e+00,5.447948752036433362e-01,1.000000000000000000e+00,1.000000000000000000e+00,1.110000000000000000e+02
1.000000000000000000e+00,0.000000000000000000e+00,0.000000000000000000e+00,0.000000000000000000e+00,6.290000000000000000e+02,3.103680610656738281e-01,1.621140956878662109e+00,3.328196745480371810e-01,0.000000000000000000e+00,1.000000000000000000e+00,1.120000000000000000e+02
0.000000000000000000e+00,1.000000000000000000e+00,0.000000000000000000e+00,4.000000000000000000e+00,6.320000000000000000e+02,2.830929756164550781e-01,1.571302890777587891e+00,2.875263793169653970e-01,0.000000000000000000e+00,0.000000000000000000e+00,1.120000000000000000e+02
0.000000000000000000e+00,0.000000000000000000e+00,1.000000000000000000e+00,0.000000000000000000e+00,6.310000000000000000e+02,4.424369335174560547e-01,1.980701923370361328e+00,5.513196951595512596e-01,0.000000000000000000e+00,0.000000000000000000e+00,1.120000000000000000e+02
1.000000000000000000e+00,0.000000000000000000e+00,0.000000000000000000e+00,0.000000000000000000e+00,6.300000000000000000e+02,5.322260856628417969e-01,2.083405971527099609e+00,5.514203414529014191e-01,0.000000000000000000e+00,0.000000000000000000e+00,1.120000000000000000e+02
0.000000000000000000e+00,0.000000000000000000e+00,1.000000000000000000e+00,0.000000000000000000e+00,6.290000000000000000e+02,4.409558773040771484e-01,1.802545070648193359e+00,3.708214796581537631e-01,0.000000000000000000e+00,1.000000000000000000e+00,1.110000000000000000e+02
0.000000000000000000e+00,0.000000000000000000e+00,1.000000000000000000e+00,0.000000000000000000e+00,6.280000000000000000e+02,2.500030994415283203e-01,1.583266973495483398e+00,3.374783465141582006e-01,0.000000000000000000e+00,0.000000000000000000e+00,1.110000000000000000e+02
0.000000000000000000e+00,1.000000000000000000e+00,0.000000000000000000e+00,3.000000000000000000e+00,6.300000000000000000e+02,3.467271327972412109e-01,1.770009994506835938e+00,4.241416923771172964e-01,0.000000000000000000e+00,0.000000000000000000e+00,1.110000000000000000e+02
0.000000000000000000e+00,0.000000000000000000e+00,1.000000000000000000e+00,0.000000000000000000e+00,6.290000000000000000e+02,2.461078166961669922e-01,1.500642061233520508e+00,2.583080704044193321e-01,0.000000000000000000e+00,0.000000000000000000e+00,1.110000000000000000e+02
1.000000000000000000e+00,0.000000000000000000e+00,0.000000000000000000e+00,0.000000000000000000e+00,6.280000000000000000e+02,2.552549839019775391e-01,1.692270994186401367e+00,4.503373216329102369e-01,0.000000000000000000e+00,1.000000000000000000e+00,1.120000000000000000e+02
1.000000000000000000e+00,1.000000000000000000e+00,1.000000000000000000e+00,3.000000000000000000e+00,6.300000000000000000e+02,2.212150096893310547e-01,1.673568010330200195e+00,4.572714750943175366e-01,0.000000000000000000e+00,0.000000000000000000e+00,1.120000000000000000e+02
1.000000000000000000e+00,1.000000000000000000e+00,1.000000000000000000e+00,3.000000000000000000e+00,6.320000000000000000e+02,2.845480442047119141e-01,1.750211954116821289e+00,4.741736557545142561e-01,0.000000000000000000e+00,0.000000000000000000e+00,1.120000000000000000e+02
0.000000000000000000e+00,1.000000000000000000e+00,0.000000000000000000e+00,3.000000000000000000e+00,6.340000000000000000e+02,2.346580028533935547e-01,1.972929000854492188e+00,7.468284123797922502e-01,0.000000000000000000e+00,0.000000000000000000e+00,1.120000000000000000e+02
0.000000000000000000e+00,0.000000000000000000e+00,1.000000000000000000e+00,0.000000000000000000e+00,6.330000000000000000e+02,2.970640659332275391e-01,1.833956956863403320e+00,5.477020405234692690e-01,0.000000000000000000e+00,1.000000000000000000e+00,1.110000000000000000e+02
0.000000000000000000e+00,1.000000000000000000e+00,0.000000000000000000e+00,3.000000000000000000e+00,6.350000000000000000e+02,2.728700637817382812e-01,1.999737977981567383e+00,7.473458965373556140e-01,1.000000000000000000e+00,1.000000000000000000e+00,1.120000000000000000e+02
1.000000000000000000e+00,0.000000000000000000e+00,0.000000000000000000e+00,0.000000000000000000e+00,6.340000000000000000e+02,2.678170204162597656e-01,1.793950080871582031e+00,5.414650746887925692e-01,0.000000000000000000e+00,1.000000000000000000e+00,1.110000000000000000e+02
1.000000000000000000e+00,1.000000000000000000e+00,1.000000000000000000e+00,3.000000000000000000e+00,6.360000000000000000e+02,3.220191001892089844e-01,1.873454093933105469e+00,5.649456958386089855e-01,0.000000000000000000e+00,1.000000000000000000e+00,1.120000000000000000e+02
1.000000000000000000e+00,1.000000000000000000e+00,1.000000000000000000e+00,1.000000000000000000e+00,6.360000000000000000e+02,3.814060688018798828e-01,2.110375881195068359e+00,7.417928274364692376e-01,0.000000000000000000e+00,0.000000000000000000e+00,1.120000000000000000e+02
1.000000000000000000e+00,0.000000000000000000e+00,0.000000000000000000e+00,0.000000000000000000e+00,6.350000000000000000e+02,2.677171230316162109e-01,1.652353048324584961e+00,3.945587365287083204e-01,0.000000000000000000e+00,1.000000000000000000e+00,1.110000000000000000e+02
0.000000000000000000e+00,1.000000000000000000e+00,0.000000000000000000e+00,3.000000000000000000e+00,6.370000000000000000e+02,2.868378162384033203e-01,1.564460992813110352e+00,2.924776292141449963e-01,0.000000000000000000e+00,1.000000000000000000e+00,1.120000000000000000e+02
1.000000000000000000e+00,1.000000000000000000e+00,1.000000000000000000e+00,2.000000000000000000e+00,6.380000000000000000e+02,4.501209259033203125e-01,1.812278032302856445e+00,3.713455278996081743e-01,0.000000000000000000e+00,0.000000000000000000e+00,1.120000000000000000e+02
1.000000000000000000e+00,1.000000000000000000e+00,1.000000000000000000e+00,3.000000000000000000e+00,6.400000000000000000e+02,4.854960441589355469e-01,1.868394851684570312e+00,3.897540362602931463e-01,0.000000000000000000e+00,0.000000000000000000e+00,1.120000000000000000e+02
0.000000000000000000e+00,0.000000000000000000e+00,1.000000000000000000e+00,0.000000000000000000e+00,6.390000000000000000e+02,2.910079956054687500e-01,1.912256002426147461e+00,6.350958237683452801e-01,0.000000000000000000e+00,1.000000000000000000e+00,1.110000000000000000e+02
0.000000000000000000e+00,1.000000000000000000e+00,0.000000000000000000e+00,1.000000000000000000e+00,6.390000000000000000e+02,3.164849281311035156e-01,1.744277000427246094e+00,4.296295236490395020e-01,0.000000000000000000e+00,1.000000000000000000e+00,1.120000000000000000e+02
0.000000000000000000e+00,1.000000000000000000e+00,0.000000000000000000e+00,2.000000000000000000e+00,6.400000000000000000e+02,3.072059154510498047e-01,2.017661809921264648e+00,7.303434230580065911e-01,0.000000000000000000e+00,0.000000000000000000e+00,1.120000000000000000e+02
1.000000000000000000e+00,1.000000000000000000e+00,1.000000000000000000e+00,2.000000000000000000e+00,6.410000000000000000e+02,2.726390361785888672e-01,1.801637172698974609e+00,5.488774590976577272e-01,1.000000000000000000e+00,0.000000000000000000e+00,1.120000000000000000e+02
1.000000000000000000e+00,0.000000000000000000e+00,0.000000000000000000e+00,0.000000000000000000e+00,6.400000000000000000e+02,2.619731426239013672e-01,1.761602878570556641e+00,4.939163982425747723e-01,0.000000000000000000e+00,1.000000000000000000e+00,1.110000000000000000e+02
1.000000000000000000e+00,0.000000000000000000e+00,0.000000000000000000e+00,0.000000000000000000e+00,6.390000000000000000e+02,4.609880447387695312e-01,1.769322156906127930e+00,3.301031508044087182e-01,0.000000000000000000e+00,0.000000000000000000e+00,1.110000000000000000e+02
1.000000000000000000e+00,0.000000000000000000e+00,0.000000000000000000e+00,0.000000000000000000e+00,6.380000000000000000e+02,5.333988666534423828e-01,1.790488004684448242e+00,2.706882824871420512e-01,0.000000000000000000e+00,0.000000000000000000e+00,1.110000000000000000e+02
1.000000000000000000e+00,1.000000000000000000e+00,1.000000000000000000e+00,2.000000000000000000e+00,6.390000000000000000e+02,4.474189281463623047e-01,1.711158990859985352e+00,2.652297104231636227e-01,0.000000000000000000e+00,0.000000000000000000e+00,1.110000000000000000e+02
1.000000000000000000e+00,1.000000000000000000e+00,1.000000000000000000e+00,2.000000000000000000e+00,6.400000000000000000e+02,3.024539947509765625e-01,1.971801996231079102e+00,6.865990848565209914e-01,0.000000000000000000e+00,0.000000000000000000e+00,1.110000000000000000e+02
0.000000000000000000e+00,1.000000000000000000e+00,0.000000000000000000e+00,2.000000000000000000e+00,6.410000000000000000e+02,3.522639274597167969e-01,1.785579204559326172e+00,4.391529460703532672e-01,0.000000000000000000e+00,0.000000000000000000e+00,1.110000000000000000e+02
1.000000000000000000e+00,1.000000000000000000e+00,1.000000000000000000e+00,0.000000000000000000e+00,6.400000000000000000e+02,2.919430732727050781e-01,1.691457986831665039e+00,4.139894055525708549e-01,0.000000000000000000e+00,0.000000000000000000e+00,1.110000000000000000e+02
1.000000000000000000e+00,1.000000000000000000e+00,1.000000000000000000e+00,2.000000000000000000e+00,6.410000000000000000e+02,2.827320098876953125e-01,1.931347131729125977e+00,6.617654752644883676e-01,0.000000000000000000e+00,0.000000000000000000e+00,1.110000000000000000e+02
0.000000000000000000e+00,1.000000000000000000e+00,0.000000000000000000e+00,0.000000000000000000e+00,6.400000000000000000e+02,2.443590164184570312e-01,1.892755031585693359e+00,6.712435279034609792e-01,0.000000000000000000e+00,0.000000000000000000e+00,1.110000000000000000e+02
0.000000000000000000e+00,1.000000000000000000e+00,0.000000000000000000e+00,1.000000000000000000e+00,6.400000000000000000e+02,2.465460300445556641e-01,1.735903978347778320e+00,4.906786979969782192e-01,0.000000000000000000e+00,0.000000000000000000e+00,1.110000000000000000e+02
1.000000000000000000e+00,1.000000000000000000e+00,1.000000000000000000e+00,3.000000000000000000e+00,6.420000000000000000e+02,2.224099636077880859e-01,1.829840898513793945e+00,6.204232925480056560e-01,0.000000000000000000e+00,0.000000000000000000e+00,1.110000000000000000e+02
0.000000000000000000e+00,1.000000000000000000e+00,0.000000000000000000e+00,2.000000000000000000e+00,6.430000000000000000e+02,2.359571456909179688e-01,1.949880123138427734e+00,7.202503642448875310e-01,0.000000000000000000e+00,0.000000000000000000e+00,1.110000000000000000e+02
1.000000000000000000e+00,1.000000000000000000e+00,1.000000000000000000e+00,1.000000000000000000e+00,6.430000000000000000e+02,2.460281848907470703e-01,1.807087898254394531e+00,5.608317885473321773e-01,0.000000000000000000e+00,0.000000000000000000e+00,1.110000000000000000e+02
1.000000000000000000e+00,1.000000000000000000e+00,1.000000000000000000e+00,4.000000000000000000e+00,6.460000000000000000e+02,2.811789512634277344e-01,1.776760101318359375e+00,5.043559765473382139e-01,1.000000000000000000e+00,0.000000000000000000e+00,1.110000000000000000e+02
0.000000000000000000e+00,0.000000000000000000e+00,1.000000000000000000e+00,0.000000000000000000e+00,6.450000000000000000e+02,2.638227939605712891e-01,1.754075050354003906e+00,4.918399927750627398e-01,0.000000000000000000e+00,1.000000000000000000e+00,1.120000000000000000e+02
0.000000000000000000e+00,0.000000000000000000e+00,1.000000000000000000e+00,0.000000000000000000e+00,6.440000000000000000e+02,3.108320236206054688e-01,1.923982143402099609e+00,6.323503406340107436e-01,0.000000000000000000e+00,0.000000000000000000e+00,1.120000000000000000e+02
1.000000000000000000e+00,1.000000000000000000e+00,1.000000000000000000e+00,2.000000000000000000e+00,6.450000000000000000e+02,2.196969985961914062e-01,1.654507875442504883e+00,4.371098293736603302e-01,0.000000000000000000e+00,1.000000000000000000e+00,1.110000000000000000e+02
1.000000000000000000e+00,0.000000000000000000e+00,0.000000000000000000e+00,0.000000000000000000e+00,6.440000000000000000e+02,2.367820739746093750e-01,1.865468025207519531e+00,6.356998921026144611e-01,0.000000000000000000e+00,1.000000000000000000e+00,1.120000000000000000e+02
1.000000000000000000e+00,0.000000000000000000e+00,0.000000000000000000e+00,0.000000000000000000e+00,6.430000000000000000e+02,2.921159267425537109e-01,2.015787124633789062e+00,7.347455747906512791e-01,0.000000000000000000e+00,0.000000000000000000e+00,1.120000000000000000e+02
1.000000000000000000e+00,1.000000000000000000e+00,1.000000000000000000e+00,4.000000000000000000e+00,6.460000000000000000e+02,1.875131130218505859e-01,1.626209974288940430e+00,4.446711427106014858e-01,0.000000000000000000e+00,1.000000000000000000e+00,1.110000000000000000e+02
1.000000000000000000e+00,0.000000000000000000e+00,0.000000000000000000e+00,0.000000000000000000e+00,6.450000000000000000e+02,3.419759273529052734e-01,1.575531959533691406e+00,2.537588344056589951e-01,0.000000000000000000e+00,1.000000000000000000e+00,1.120000000000000000e+02
1.000000000000000000e+00,0.000000000000000000e+00,0.000000000000000000e+00,0.000000000000000000e+00,6.440000000000000000e+02,2.675189971923828125e-01,1.912226915359497070e+00,6.488595746405738662e-01,0.000000000000000000e+00,0.000000000000000000e+00,1.120000000000000000e+02
0.000000000000000000e+00,0.000000000000000000e+00,1.000000000000000000e+00,0.000000000000000000e+00,6.430000000000000000e+02,3.979191780090332031e-01,1.774830102920532227e+00,3.740820306136897200e-01,0.000000000000000000e+00,0.000000000000000000e+00,1.120000000000000000e+02
0.000000000000000000e+00,1.000000000000000000e+00,0.000000000000000000e+00,5.000000000000000000e+00,6.470000000000000000e+02,3.033339977264404297e-01,1.926816940307617188e+00,6.340184905154494510e-01,0.000000000000000000e+00,1.000000000000000000e+00,1.110000000000000000e+02
1.000000000000000000e+00,0.000000000000000000e+00,0.000000000000000000e+00,0.000000000000000000e+00,6.460000000000000000e+02,2.700438499450683594e-01,1.564949035644531250e+00,2.993525839134514310e-01,0.000000000000000000e+00,1.000000000000000000e+00,1.120000000000000000e+02
1.000000000000000000e+00,0.000000000000000000e+00,0.000000000000000000e+00,0.000000000000000000e+00,6.450000000000000000e+02,3.204739093780517578e-01,1.678682088851928711e+00,3.612985707942406588e-01,0.000000000000000000e+00,0.000000000000000000e+00,1.120000000000000000e+02
0.000000000000000000e+00,1.000000000000000000e+00,0.000000000000000000e+00,2.000000000000000000e+00,6.460000000000000000e+02,2.728948593139648438e-01,1.716959953308105469e+00,4.615548943254761394e-01,0.000000000000000000e+00,1.000000000000000000e+00,1.110000000000000000e+02
1.000000000000000000e+00,0.000000000000000000e+00,0.000000000000000000e+00,0.000000000000000000e+00,6.450000000000000000e+02,2.534170150756835938e-01,1.511055946350097656e+00,2.728236505803000034e-01,0.000000000000000000e+00,1.000000000000000000e+00,1.120000000000000000e+02
0.000000000000000000e+00,0.000000000000000000e+00,1.000000000000000000e+00,0.000000000000000000e+00,6.440000000000000000e+02,4.208080768585205078e-01,1.742888927459716797e+00,3.323336648953728600e-01,0.000000000000000000e+00,0.000000000000000000e+00,1.120000000000000000e+02
1.000000000000000000e+00,0.000000000000000000e+00,0.000000000000000000e+00,0.000000000000000000e+00,6.430000000000000000e+02,2.836530208587646484e-01,1.663179874420166016e+00,3.788395452255098328e-01,1.000000000000000000e+00,1.000000000000000000e+00,1.110000000000000000e+02
0.000000000000000000e+00,0.000000000000000000e+00,1.000000000000000000e+00,0.000000000000000000e+00,6.420000000000000000e+02,2.547130584716796875e-01,1.783143997192382812e+00,5.451959618859023582e-01,0.000000000000000000e+00,0.000000000000000000e+00,1.110000000000000000e+02
1.000000000000000000e+00,0.000000000000000000e+00,0.000000000000000000e+00,0.000000000000000000e+00,6.410000000000000000e+02,1.895070075988769531e-01,1.663303136825561523e+00,4.919313607266369570e-01,0.000000000000000000e+00,0.000000000000000000e+00,1.110000000000000000e+02
1.000000000000000000e+00,0.000000000000000000e+00,0.000000000000000000e+00,0.000000000000000000e+00,6.400000000000000000e+02,2.129721641540527344e-01,1.632013797760009766e+00,4.406930644016818222e-01,0.000000000000000000e+00,0.000000000000000000e+00,1.110000000000000000e+02
0.000000000000000000e+00,1.000000000000000000e+00,0.000000000000000000e+00,3.000000000000000000e+00,6.420000000000000000e+02,3.797290325164794922e-01,2.110890150070190430e+00,7.346392788463839141e-01,0.000000000000000000e+00,0.000000000000000000e+00,1.110000000000000000e+02
1.000000000000000000e+00,1.000000000000000000e+00,1.000000000000000000e+00,3.000000000000000000e+00,6.440000000000000000e+02,2.681682109832763672e-01,1.709387063980102539e+00,4.443672664260097105e-01,0.000000000000000000e+00,0.000000000000000000e+00,1.110000000000000000e+02
1.000000000000000000e+00,0.000000000000000000e+00,0.000000000000000000e+00,0.000000000000000000e+00,6.430000000000000000e+02,2.941989898681640625e-01,1.742693901062011719e+00,4.704027584389936512e-01,0.000000000000000000e+00,1.000000000000000000e+00,1.120000000000000000e+02
1.000000000000000000e+00,1.000000000000000000e+00,1.000000000000000000e+00,2.000000000000000000e+00,6.440000000000000000e+02,2.902619838714599609e-01,1.993320941925048828e+00,7.135124845735534294e-01,0.000000000000000000e+00,1.000000000000000000e+00,1.110000000000000000e+02
1.000000000000000000e+00,1.000000000000000000e+00,1.000000000000000000e+00,2.000000000000000000e+00,6.450000000000000000e+02,2.319459915161132812e-01,1.650449991226196289e+00,4.309586679789958463e-01,0.000000000000000000e+00,0.000000000000000000e+00,1.110000000000000000e+02
1.000000000000000000e+00,1.000000000000000000e+00,1.000000000000000000e+00,2.000000000000000000e+00,6.460000000000000000e+02,2.209930419921875000e-01,1.617843866348266602e+00,4.155332678242833477e-01,0.000000000000000000e+00,1.000000000000000000e+00,1.120000000000000000e+02
1.000000000000000000e+00,1.000000000000000000e+00,1.000000000000000000e+00,1.000000000000000000e+00,6.460000000000000000e+02,2.607569694519042969e-01,1.727605819702148438e+00,4.764394459704490714e-01,0.000000000000000000e+00,1.000000000000000000e+00,1.110000000000000000e+02
0.000000000000000000e+00,1.000000000000000000e+00,0.000000000000000000e+00,1.000000000000000000e+00,6.460000000000000000e+02,2.602331638336181641e-01,1.601742982864379883e+00,3.616716737499334755e-01,0.000000000000000000e+00,0.000000000000000000e+00,1.110000000000000000e+02
0.000000000000000000e+00,0.000000000000000000e+00,1.000000000000000000e+00,0.000000000000000000e+00,6.450000000000000000e+02,2.822380065917968750e-01,1.717417001724243164e+00,4.457251479234839997e-01,1.000000000000000000e+00,1.000000000000000000e+00,1.120000000000000000e+02
0.000000000000000000e+00,1.000000000000000000e+00,0.000000000000000000e+00,2.000000000000000000e+00,6.460000000000000000e+02,2.634518146514892578e-01,1.618371963500976562e+00,3.641661940010776921e-01,0.000000000000000000e+00,1.000000000000000000e+00,1.110000000000000000e+02
1.000000000000000000e+00,0.000000000000000000e+00,0.000000000000000000e+00,0.000000000000000000e+00,6.450000000000000000e+02,3.028371334075927734e-01,1.761257886886596680e+00,4.753439198093208362e-01,0.000000000000000000e+00,1.000000000000000000e+00,1.120000000000000000e+02
0.000000000000000000e+00,0.000000000000000000e+00,1.000000000000000000e+00,0.000000000000000000e+00,6.440000000000000000e+02,2.351939678192138672e-01,1.502651929855346680e+00,2.782434930218428693e-01,0.000000000000000000e+00,0.000000000000000000e+00,1.120000000000000000e+02
1.000000000000000000e+00,1.000000000000000000e+00,1.000000000000000000e+00,5.000000000000000000e+00,6.480000000000000000e+02,2.732820510864257812e-01,1.772376060485839844e+00,5.170663257407739355e-01,0.000000000000000000e+00,1.000000000000000000e+00,1.110000000000000000e+02
1.000000000000000000e+00,0.000000000000000000e+00,0.000000000000000000e+00,0.000000000000000000e+00,6.470000000000000000e+02,2.721278667449951172e-01,1.780421018600463867e+00,5.142118794953961514e-01,0.000000000000000000e+00,1.000000000000000000e+00,1.120000000000000000e+02
1.000000000000000000e+00,1.000000000000000000e+00,1.000000000000000000e+00,4.000000000000000000e+00,6.500000000000000000e+02,2.775139808654785156e-01,1.927381038665771484e+00,6.747992875345490971e-01,0.000000000000000000e+00,1.000000000000000000e+00,1.110000000000000000e+02
1.000000000000000000e+00,1.000000000000000000e+00,1.000000000000000000e+00,1.000000000000000000e+00,6.500000000000000000e+02,2.232608795166015625e-01,1.865363836288452148e+00,6.568513565507504426e-01,0.000000000000000000e+00,0.000000000000000000e+00,1.110000000000000000e+02
1.000000000000000000e+00,0.000000000000000000e+00,0.000000000000000000e+00,0.000000000000000000e+00,6.490000000000000000e+02,2.446191310882568359e-01,1.787446022033691406e+00,5.611359680867440414e-01,0.000000000000000000e+00,1.000000000000000000e+00,1.120000000000000000e+02
1.000000000000000000e+00,0.000000000000000000e+00,0.000000000000000000e+00,0.000000000000000000e+00,6.480000000000000000e+02,2.534780502319335938e-01,1.920989990234375000e+00,6.820144256297288043e-01,0.000000000000000000e+00,0.000000000000000000e+00,1.120000000000000000e+02
0.000000000000000000e+00,0.000000000000000000e+00,1.000000000000000000e+00,0.000000000000000000e+00,6.470000000000000000e+02,2.841558456420898438e-01,1.756675004959106445e+00,4.722923071726687905e-01,0.000000000000000000e+00,0.000000000000000000e+00,1.120000000000000000e+02
1.000000000000000000e+00,1.000000000000000000e+00,1.000000000000000000e+00,2.000000000000000000e+00,6.480000000000000000e+02,2.902140617370605469e-01,1.825361967086791992e+00,5.476394957129359087e-01,0.000000000000000000e+00,1.000000000000000000e+00,1.110000000000000000e+02
0.000000000000000000e+00,1.000000000000000000e+00,0.000000000000000000e+00,2.000000000000000000e+00,6.490000000000000000e+02,3.386108875274658203e-01,1.763523101806640625e+00,4.446345730421869535e-01,0.000000000000000000e+00,1.000000000000000000e+00,1.120000000000000000e+02
0.000000000000000000e+00,0.000000000000000000e+00,1.000000000000000000e+00,0.000000000000000000e+00,6.480000000000000000e+02,3.049559593200683594e-01,1.624418020248413086e+00,3.358854518833744307e-01,0.000000000000000000e+00,0.000000000000000000e+00,1.120000000000000000e+02
1.000000000000000000e+00,0.000000000000000000e+00,0.000000000000000000e+00,0.000000000000000000e+00,6.470000000000000000e+02,5.286519527435302734e-01,2.002679109573364258e+00,4.718090257764935291e-01,0.000000000000000000e+00,0.000000000000000000e+00,1.120000000000000000e+02
0.000000000000000000e+00,1.000000000000000000e+00,0.000000000000000000e+00,1.000000000000000000e+00,6.470000000000000000e+02,2.777209281921386719e-01,2.006183862686157227e+00,7.443845006675912090e-01,0.000000000000000000e+00,0.000000000000000000e+00,1.120000000000000000e+02
0.000000000000000000e+00,1.000000000000000000e+00,0.000000000000000000e+00,2.000000000000000000e+00,6.480000000000000000e+02,2.757058143615722656e-01,1.846925020217895508e+00,5.915191571017082151e-01,0.000000000000000000e+00,0.000000000000000000e+00,1.120000000000000000e+02
1.000000000000000000e+00,1.000000000000000000e+00,1.000000000000000000e+00,3.000000000000000000e+00,6.500000000000000000e+02,2.418510913848876953e-01,1.828115940093994141e+00,6.030149936889501738e-01,0.000000000000000000e+00,0.000000000000000000e+00,1.120000000000000000e+02
0.000000000000000000e+00,0.000000000000000000e+00,1.000000000000000000e+00,0.000000000000000000e+00,6.490000000000000000e+02,2.756230831146240234e-01,1.936622858047485352e+00,6.729827271577923931e-01,0.000000000000000000e+00,1.000000000000000000e+00,1.110000000000000000e+02
1.000000000000000000e+00,0.000000000000000000e+00,0.000000000000000000e+00,0.000000000000000000e+00,6.480000000000000000e+02,2.684321403503417969e-01,1.523578882217407227e+00,2.636606841057538841e-01,0.000000000000000000e+00,0.000000000000000000e+00,1.110000000000000000e+02
0.000000000000000000e+00,0.000000000000000000e+00,1.000000000000000000e+00,0.000000000000000000e+00,6.470000000000000000e+02,3.117790222167968750e-01,1.781809091567993164e+00,4.955095033162855711e-01,0.000000000000000000e+00,0.000000000000000000e+00,1.110000000000000000e+02
1.000000000000000000e+00,0.000000000000000000e+00,0.000000000000000000e+00,0.000000000000000000e+00,6.460000000000000000e+02,2.294812202453613281e-01,1.616237878799438477e+00,3.949929596941726961e-01,1.000000000000000000e+00,0.000000000000000000e+00,1.110000000000000000e+02
1.000000000000000000e+00,0.000000000000000000e+00,0.000000000000000000e+00,0.000000000000000000e+00,6.450000000000000000e+02,2.218980789184570312e-01,1.466634988784790039e+00,2.617538513427462021e-01,0.000000000000000000e+00,0.000000000000000000e+00,1.110000000000000000e+02
1.000000000000000000e+00,1.000000000000000000e+00,1.000000000000000000e+00,3.000000000000000000e+00,6.470000000000000000e+02,3.532738685607910156e-01,1.884868860244750977e+00,5.463849970417775648e-01,0.000000000000000000e+00,0.000000000000000000e+00,1.110000000000000000e+02
0.000000000000000000e+00,1.000000000000000000e+00,0.000000000000000000e+00,4.000000000000000000e+00,6.500000000000000000e+02,2.690529823303222656e-01,1.600228071212768555e+00,3.468646585331237042e-01,0.000000000000000000e+00,0.000000000000000000e+00,1.110000000000000000e+02
0.000000000000000000e+00,1.000000000000000000e+00,0.000000000000000000e+00,4.000000000000000000e+00,6.530000000000000000e+02,4.700651168823242188e-01,2.144022941589355469e+00,6.906045384590095981e-01,0.000000000000000000e+00,0.000000000000000000e+00,1.110000000000000000e+02
1.000000000000000000e+00,1.000000000000000000e+00,1.000000000000000000e+00,3.000000000000000000e+00,6.550000000000000000e+02,2.251257896423339844e-01,1.858619928359985352e+00,6.492837920624431325e-01,0.000000000000000000e+00,0.000000000000000000e+00,1.110000000000000000e+02
1.000000000000000000e+00,1.000000000000000000e+00,1.000000000000000000e+00,1.000000000000000000e+00,6.550000000000000000e+02,2.635319232940673828e-01,1.566936016082763672e+00,2.999663906572266336e-01,0.000000000000000000e+00,0.000000000000000000e+00,1.110000000000000000e+02
1.000000000000000000e+00,1.000000000000000000e+00,1.000000000000000000e+00,3.000000000000000000e+00,6.570000000000000000e+02,4.099130630493164062e-01,1.894886016845703125e+00,4.946802520983053508e-01,0.000000000000000000e+00,0.000000000000000000e+00,1.110000000000000000e+02
1.000000000000000000e+00,0.000000000000000000e+00,0.000000000000000000e+00,0.000000000000000000e+00,6.560000000000000000e+02,2.696421146392822266e-01,1.576113939285278320e+00,3.210285235600962572e-01,0.000000000000000000e+00,1.000000000000000000e+00,1.120000000000000000e+02
0.000000000000000000e+00,1.000000000000000000e+00,0.000000000000000000e+00,1.000000000000000000e+00,6.560000000000000000e+02,2.515108585357666016e-01,1.879575967788696289e+00,6.336205992704582179e-01,0.000000000000000000e+00,1.000000000000000000e+00,1.110000000000000000e+02
1.000000000000000000e+00,0.000000000000000000e+00,0.000000000000000000e+00,0.000000000000000000e+00,6.550000000000000000e+02,2.940289974212646484e-01,1.820127010345458984e+00,5.039296772395249757e-01,0.000000000000000000e+00,1.000000000000000000e+00,1.120000000000000000e+02
0.000000000000000000e+00,0.000000000000000000e+00,1.000000000000000000e+00,0.000000000000000000e+00,6.540000000000000000e+02,2.594399452209472656e-01,1.548901081085205078e+00,3.030777432767225443e-01,0.000000000000000000e+00,0.000000000000000000e+00,1.120000000000000000e+02
1.000000000000000000e+00,1.000000000000000000e+00,1.000000000000000000e+00,3.000000000000000000e+00,6.560000000000000000e+02,3.535201549530029297e-01,1.899734020233154297e+00,5.526067096366533704e-01,0.000000000000000000e+00,1.000000000000000000e+00,1.110000000000000000e+02
0.000000000000000000e+00,1.000000000000000000e+00,0.000000000000000000e+00,4.000000000000000000e+00,6.590000000000000000e+02,2.765970230102539062e-01,1.969235897064208984e+00,7.050472920197561333e-01,0.000000000000000000e+00,0.000000000000000000e+00,1.110000000000000000e+02
1.000000000000000000e+00,1.000000000000000000e+00,1.000000000000000000e+00,4.000000000000000000e+00,6.620000000000000000e+02,2.349009513854980469e-01,1.684252977371215820e+00,4.562747506478384563e-01,0.000000000000000000e+00,0.000000000000000000e+00,1.110000000000000000e+02
0.000000000000000000e+00,1.000000000000000000e+00,0.000000000000000000e+00,3.000000000000000000e+00,6.640000000000000000e+02,5.119040012359619141e-01,5.587444806098937988e+01,6.984890660230198556e-01,1.000000000000000000e+00,1.000000000000000000e+00,1.120000000000000000e+02
1.000000000000000000e+00,1.000000000000000000e+00,1.000000000000000000e+00,1.000000000000000000e+00,6.640000000000000000e+02,3.290870189666748047e-01,1.702069044113159180e+00,3.842244107272511644e-01,0.000000000000000000e+00,0.000000000000000000e+00,1.120000000000000000e+02
0.000000000000000000e+00,1.000000000000000000e+00,0.000000000000000000e+00,1.000000000000000000e+00,6.640000000000000000e+02,2.503769397735595703e-01,1.632658004760742188e+00,3.836103453202037161e-01,0.000000000000000000e+00,0.000000000000000000e+00,1.120000000000000000e+02
1.000000000000000000e+00,1.000000000000000000e+00,1.000000000000000000e+00,3.000000000000000000e+00,6.660000000000000000e+02,2.621819972991943359e-01,1.924434900283813477e+00,6.578036844169994346e-01,0.000000000000000000e+00,0.000000000000000000e+00,1.120000000000000000e+02
1.000000000000000000e+00,0.000000000000000000e+00,0.000000000000000000e+00,0.000000000000000000e+00,6.650000000000000000e+02,3.285629749298095703e-01,2.007049798965454102e+00,6.815209412824911883e-01,0.000000000000000000e+00,1.000000000000000000e+00,1.110000000000000000e+02
1.000000000000000000e+00,1.000000000000000000e+00,1.000000000000000000e+00,2.000000000000000000e+00,6.660000000000000000e+02,2.544879913330078125e-01,1.693262100219726562e+00,4.584350515480343224e-01,0.000000000000000000e+00,1.000000000000000000e+00,1.120000000000000000e+02
0.000000000000000000e+00,0.000000000000000000e+00,1.000000000000000000e+00,0.000000000000000000e+00,6.650000000000000000e+02,2.526631355285644531e-01,1.915280103683471680e+00,6.735268711793773733e-01,0.000000000000000000e+00,1.000000000000000000e+00,1.110000000000000000e+02
1.000000000000000000e+00,1.000000000000000000e+00,1.000000000000000000e+00,5.000000000000000000e+00,6.690000000000000000e+02,2.140278816223144531e-01,1.958519935607910156e+00,7.487153326472146819e-01,0.000000000000000000e+00,1.000000000000000000e+00,1.120000000000000000e+02
0.000000000000000000e+00,1.000000000000000000e+00,0.000000000000000000e+00,4.000000000000000000e+00,6.720000000000000000e+02,3.495352268218994141e-01,2.013174057006835938e+00,6.620030081118986054e-01,0.000000000000000000e+00,0.000000000000000000e+00,1.120000000000000000e+02
1.000000000000000000e+00,1.000000000000000000e+00,1.000000000000000000e+00,1.000000000000000000e+00,6.720000000000000000e+02,2.156591415405273438e-01,1.746185064315795898e+00,5.416954476080750869e-01,0.000000000000000000e+00,0.000000000000000000e+00,1.120000000000000000e+02
1.000000000000000000e+00,0.000000000000000000e+00,0.000000000000000000e+00,0.000000000000000000e+00,6.710000000000000000e+02,2.525441646575927734e-01,1.941009044647216797e+00,6.992554109448094746e-01,0.000000000000000000e+00,1.000000000000000000e+00,1.110000000000000000e+02
0.000000000000000000e+00,1.000000000000000000e+00,0.000000000000000000e+00,0.000000000000000000e+00,6.710000000000000000e+02,8.266186714172363281e-02,5.927561998367309570e+00,7.102740765888300167e-01,-2.000000000000000000e+00,-2.000000000000000000e+00,1.120000000000000000e+02
0.000000000000000000e+00,0.000000000000000000e+00,1.000000000000000000e+00,0.000000000000000000e+00,6.700000000000000000e+02,3.892340660095214844e-01,1.971356153488159180e+00,5.984630009080063040e-01,0.000000000000000000e+00,1.000000000000000000e+00,1.110000000000000000e+02
0.000000000000000000e+00,1.000000000000000000e+00,0.000000000000000000e+00,3.000000000000000000e+00,6.720000000000000000e+02,2.765331268310546875e-01,1.767386913299560547e+00,5.159698574059282672e-01,0.000000000000000000e+00,1.000000000000000000e+00,1.120000000000000000e+02
1.000000000000000000e+00,0.000000000000000000e+00,0.000000000000000000e+00,0.000000000000000000e+00,6.710000000000000000e+02,4.642469882965087891e-01,2.083961963653564453e+00,6.165250256799381656e-01,0.000000000000000000e+00,1.000000000000000000e+00,1.110000000000000000e+02
1.000000000000000000e+00,0.000000000000000000e+00,0.000000000000000000e+00,0.000000000000000000e+00,6.700000000000000000e+02,3.149669170379638672e-01,1.972926139831542969e+00,6.561326118385395478e-01,1.000000000000000000e+00,0.000000000000000000e+00,1.110000000000000000e+02
1.000000000000000000e+00,0.000000000000000000e+00,0.000000000000000000e+00,0.000000000000000000e+00,6.690000000000000000e+02,2.123830318450927734e-01,1.806099891662597656e+00,5.956735999294181516e-01,0.000000000000000000e+00,0.000000000000000000e+00,1.110000000000000000e+02
1.000000000000000000e+00,0.000000000000000000e+00,0.000000000000000000e+00,0.000000000000000000e+00,6.680000000000000000e+02,2.715671062469482422e-01,1.590073108673095703e+00,3.361253539209572705e-01,0.000000000000000000e+00,1.000000000000000000e+00,1.120000000000000000e+02
0.000000000000000000e+00,0.000000000000000000e+00,1.000000000000000000e+00,0.000000000000000000e+00,6.670000000000000000e+02,2.766718864440917969e-01,1.659564971923828125e+00,3.956385006289242501e-01,0.000000000000000000e+00,0.000000000000000000e+00,1.120000000000000000e+02
1.000000000000000000e+00,1.000000000000000000e+00,1.000000000000000000e+00,2.000000000000000000e+00,6.680000000000000000e+02,3.076591491699218750e-01,1.680052995681762695e+00,3.923806380548842676e-01,0.000000000000000000e+00,0.000000000000000000e+00,1.120000000000000000e+02
0.000000000000000000e+00,0.000000000000000000e+00,1.000000000000000000e+00,0.000000000000000000e+00,6.670000000000000000e+02,2.674119472503662109e-01,1.749074220657348633e+00,4.914112372259585859e-01,0.000000000000000000e+00,1.000000000000000000e+00,1.110000000000000000e+02
0.000000000000000000e+00,1.000000000000000000e+00,0.000000000000000000e+00,3.000000000000000000e+00,6.690000000000000000e+02,3.075070381164550781e-01,1.880162954330444336e+00,5.881784016723348163e-01,0.000000000000000000e+00,1.000000000000000000e+00,1.120000000000000000e+02
1.000000000000000000e+00,1.000000000000000000e+00,1.000000000000000000e+00,4.000000000000000000e+00,6.720000000000000000e+02,2.821848392486572266e-01,1.865744829177856445e+00,5.873205689935017126e-01,0.000000000000000000e+00,0.000000000000000000e+00,1.120000000000000000e+02
0.000000000000000000e+00,1.000000000000000000e+00,0.000000000000000000e+00,4.000000000000000000e+00,6.750000000000000000e+02,2.345449924468994141e-01,1.816699028015136719e+00,5.873962731836577245e-01,0.000000000000000000e+00,0.000000000000000000e+00,1.120000000000000000e+02
1.000000000000000000e+00,1.000000000000000000e+00,1.000000000000000000e+00,5.000000000000000000e+00,6.790000000000000000e+02,2.970249652862548828e-01,2.011213064193725586e+00,7.151764219257974453e-01,0.000000000000000000e+00,0.000000000000000000e+00,1.120000000000000000e+02
1.000000000000000000e+00,1.000000000000000000e+00,1.000000000000000000e+00,3.000000000000000000e+00,6.810000000000000000e+02,2.873990535736083984e-01,1.656498193740844727e+00,3.721298437541911142e-01,0.000000000000000000e+00,0.000000000000000000e+00,1.120000000000000000e+02
0.000000000000000000e+00,1.000000000000000000e+00,0.000000000000000000e+00,2.000000000000000000e+00,6.820000000000000000e+02,3.764660358428955078e-01,1.641773939132690430e+00,2.806820584698268561e-01,0.000000000000000000e+00,0.000000000000000000e+00,1.120000000000000000e+02
0.000000000000000000e+00,1.000000000000000000e+00,0.000000000000000000e+00,1.000000000000000000e+00,6.820000000000000000e+02,4.111790657043457031e-01,1.997356176376342773e+00,6.110974571556904156e-01,0.000000000000000000e+00,0.000000000000000000e+00,1.120000000000000000e+02
1.000000000000000000e+00,1.000000000000000000e+00,1.000000000000000000e+00,2.000000000000000000e+00,6.830000000000000000e+02,3.082389831542968750e-01,1.766855955123901367e+00,4.781290760852831001e-01,0.000000000000000000e+00,0.000000000000000000e+00,1.120000000000000000e+02
0.000000000000000000e+00,1.000000000000000000e+00,0.000000000000000000e+00,3.000000000000000000e+00,6.850000000000000000e+02,2.746160030364990234e-01,1.781605005264282227e+00,5.263655626865513248e-01,0.000000000000000000e+00,0.000000000000000000e+00,1.120000000000000000e+02
0.000000000000000000e+00,0.000000000000000000e+00,1.000000000000000000e+00,0.000000000000000000e+00,6.840000000000000000e+02,4.543769359588623047e-01,2.157005071640014648e+00,7.165376272091827925e-01,0.000000000000000000e+00,1.000000000000000000e+00,1.110000000000000000e+02
1.000000000000000000e+00,0.000000000000000000e+00,0.000000000000000000e+00,0.000000000000000000e+00,6.830000000000000000e+02,2.897968292236328125e-01,1.805989027023315430e+00,5.227722388995268421e-01,1.000000000000000000e+00,0.000000000000000000e+00,1.110000000000000000e+02
0.000000000000000000e+00,1.000000000000000000e+00,0.000000000000000000e+00,4.000000000000000000e+00,6.860000000000000000e+02,3.598859310150146484e-01,2.081634044647216797e+00,7.376008626731138662e-01,0.000000000000000000e+00,0.000000000000000000e+00,1.110000000000000000e+02
0.000000000000000000e+00,1.000000000000000000e+00,0.000000000000000000e+00,3.000000000000000000e+00,6.880000000000000000e+02,3.056161403656005859e-01,1.695085048675537109e+00,3.997258786429122579e-01,0.000000000000000000e+00,0.000000000000000000e+00,1.110000000000000000e+02
1.000000000000000000e+00,1.000000000000000000e+00,1.000000000000000000e+00,2.000000000000000000e+00,6.890000000000000000e+02,3.726751804351806641e-01,1.739294052124023438e+00,3.724505620028016328e-01,0.000000000000000000e+00,0.000000000000000000e+00,1.110000000000000000e+02
1.000000000000000000e+00,1.000000000000000000e+00,1.000000000000000000e+00,3.000000000000000000e+00,6.910000000000000000e+02,3.654139041900634766e-01,2.045620918273925781e+00,6.844719128771481476e-01,0.000000000000000000e+00,0.000000000000000000e+00,1.110000000000000000e+02
1.000000000000000000e+00,1.000000000000000000e+00,1.000000000000000000e+00,3.000000000000000000e+00,6.930000000000000000e+02,3.863909244537353516e-01,1.719047784805297852e+00,3.372908614438760999e-01,0.000000000000000000e+00,0.000000000000000000e+00,1.110000000000000000e+02
1.000000000000000000e+00,1.000000000000000000e+00,1.000000000000000000e+00,2.000000000000000000e+00,6.940000000000000000e+02,5.897560119628906250e-01,1.943149089813232422e+00,3.637657333908455026e-01,0.000000000000000000e+00,1.000000000000000000e+00,1.120000000000000000e+02
1.000000000000000000e+00,1.000000000000000000e+00,1.000000000000000000e+00,3.000000000000000000e+00,6.960000000000000000e+02,4.935231208801269531e-01,1.942450046539306641e+00,4.728248556923670409e-01,0.000000000000000000e+00,1.000000000000000000e+00,1.110000000000000000e+02
1.000000000000000000e+00,1.000000000000000000e+00,1.000000000000000000e+00,3.000000000000000000e+00,6.980000000000000000e+02,3.016650676727294922e-01,1.827850103378295898e+00,5.339946838467620749e-01,0.000000000000000000e+00,0.000000000000000000e+00,1.110000000000000000e+02
1.000000000000000000e+00,0.000000000000000000e+00,0.000000000000000000e+00,0.000000000000000000e+00,6.970000000000000000e+02,4.763998985290527344e-01,1.976042985916137695e+00,5.101274091029670554e-01,0.000000000000000000e+00,0.000000000000000000e+00,1.110000000000000000e+02
1.000000000000000000e+00,1.000000000000000000e+00,1.000000000000000000e+00,3.000000000000000000e+00,6.990000000000000000e+02,2.767329216003417969e-01,1.857784986495971680e+00,6.012127155495629038e-01,0.000000000000000000e+00,0.000000000000000000e+00,1.110000000000000000e+02
1.000000000000000000e+00,1.000000000000000000e+00,1.000000000000000000e+00,2.000000000000000000e+00,7.000000000000000000e+02,2.791471481323242188e-01,1.982710123062133789e+00,7.004886207227387640e-01,0.000000000000000000e+00,0.000000000000000000e+00,1.110000000000000000e+02
1.000000000000000000e+00,0.000000000000000000e+00,0.000000000000000000e+00,0.000000000000000000e+00,6.990000000000000000e+02,2.818279266357421875e-01,1.780781030654907227e+00,4.982202428392015214e-01,0.000000000000000000e+00,1.000000000000000000e+00,1.120000000000000000e+02
0.000000000000000000e+00,1.000000000000000000e+00,0.000000000000000000e+00,1.000000000000000000e+00,6.990000000000000000e+02,3.202280998229980469e-01,1.848150014877319336e+00,5.463714966103891957e-01,1.000000000000000000e+00,1.000000000000000000e+00,1.110000000000000000e+02
1.000000000000000000e+00,0.000000000000000000e+00,0.000000000000000000e+00,0.000000000000000000e+00,6.980000000000000000e+02,3.062589168548583984e-01,1.924179077148437500e+00,6.371730090601861463e-01,0.000000000000000000e+00,1.000000000000000000e+00,1.120000000000000000e+02
1.000000000000000000e+00,1.000000000000000000e+00,1.000000000000000000e+00,2.000000000000000000e+00,6.990000000000000000e+02,3.870241641998291016e-01,1.785293102264404297e+00,4.060587952799520894e-01,0.000000000000000000e+00,0.000000000000000000e+00,1.120000000000000000e+02
1.000000000000000000e+00,0.000000000000000000e+00,0.000000000000000000e+00,0.000000000000000000e+00,6.980000000000000000e+02,4.847519397735595703e-01,1.807512998580932617e+00,3.303796413316154590e-01,0.000000000000000000e+00,1.000000000000000000e+00,1.110000000000000000e+02
1.000000000000000000e+00,0.000000000000000000e+00,0.000000000000000000e+00,0.000000000000000000e+00,6.970000000000000000e+02,5.838241577148437500e-01,1.936239004135131836e+00,3.666275911839639301e-01,0.000000000000000000e+00,1.000000000000000000e+00,1.120000000000000000e+02
0.000000000000000000e+00,0.000000000000000000e+00,1.000000000000000000e+00,0.000000000000000000e+00,6.960000000000000000e+02,2.470049858093261719e-01,1.597463130950927734e+00,3.474912561821070223e-01,0.000000000000000000e+00,0.000000000000000000e+00,1.120000000000000000e+02
0.000000000000000000e+00,1.000000000000000000e+00,0.000000000000000000e+00,3.000000000000000000e+00,6.980000000000000000e+02,2.956509590148925781e-01,1.885569810867309570e+00,5.995293574390827551e-01,0.000000000000000000e+00,1.000000000000000000e+00,1.110000000000000000e+02
0.000000000000000000e+00,1.000000000000000000e+00,0.000000000000000000e+00,4.000000000000000000e+00,7.010000000000000000e+02,2.677588462829589844e-01,1.913555860519409180e+00,6.464181104155848345e-01,0.000000000000000000e+00,0.000000000000000000e+00,1.110000000000000000e+02
0.000000000000000000e+00,0.000000000000000000e+00,1.000000000000000000e+00,0.000000000000000000e+00,7.000000000000000000e+02,2.298769950866699219e-01,1.944834947586059570e+00,7.245740283874801957e-01,0.000000000000000000e+00,1.000000000000000000e+00,1.120000000000000000e+02
1.000000000000000000e+00,0.000000000000000000e+00,0.000000000000000000e+00,0.000000000000000000e+00,6.990000000000000000e+02,2.680048942565917969e-01,1.622848987579345703e+00,3.645353703035607573e-01,0.000000000000000000e+00,0.000000000000000000e+00,1.120000000000000000e+02
1.000000000000000000e+00,1.000000000000000000e+00,1.000000000000000000e+00,3.000000000000000000e+00,7.010000000000000000e+02,3.913309574127197266e-01,2.051388978958129883e+00,6.822574029999768364e-01,0.000000000000000000e+00,0.000000000000000000e+00,1.120000000000000000e+02
1.000000000000000000e+00,1.000000000000000000e+00,1.000000000000000000e+00,3.000000000000000000e+00,7.030000000000000000e+02,2.437880039215087891e-01,1.783124208450317383e+00,5.489277907019352032e-01,0.000000000000000000e+00,0.000000000000000000e+00,1.120000000000000000e+02
0.000000000000000000e+00,1.000000000000000000e+00,0.000000000000000000e+00,1.000000000000000000e+00,7.030000000000000000e+02,2.855060100555419922e-01,1.685946941375732422e+00,4.017598282305306356e-01,0.000000000000000000e+00,0.000000000000000000e+00,1.120000000000000000e+02
0.000000000000000000e+00,0.000000000000000000e+00,1.000000000000000000e+00,0.000000000000000000e+00,7.020000000000000000e+02,2.541918754577636719e-01,1.622829914093017578e+00,3.746360100905327672e-01,1.000000000000000000e+00,1.000000000000000000e+00,1.110000000000000000e+02
0.000000000000000000e+00,1.000000000000000000e+00,0.000000000000000000e+00,2.000000000000000000e+00,7.030000000000000000e+02,3.194749355316162109e-01,1.599594831466674805e+00,2.910105883882639355e-01,0.000000000000000000e+00,1.000000000000000000e+00,1.120000000000000000e+02
