choice, accuracy, solution,  reward, cumulative_reward, rt,  total_trial_time, iti, cp_with_slow_fast, obs_cp_with_slow_fast, high_val_cue
0.000000000000000000e+00,0.000000000000000000e+00,1.000000000000000000e+00,0.000000000000000000e+00,5.990000000000000000e+02,4.002459049224853516e-01,2.037914991378784180e+00,6.392868623522001137e-01,0.000000000000000000e+00,0.000000000000000000e+00,1.120000000000000000e+02
1.000000000000000000e+00,0.000000000000000000e+00,0.000000000000000000e+00,0.000000000000000000e+00,5.980000000000000000e+02,1.879339218139648438e-01,1.598666906356811523e+00,4.215622519082696251e-01,0.000000000000000000e+00,0.000000000000000000e+00,1.120000000000000000e+02
0.000000000000000000e+00,0.000000000000000000e+00,1.000000000000000000e+00,0.000000000000000000e+00,5.970000000000000000e+02,2.800629138946533203e-01,1.619184017181396484e+00,3.408898703911006911e-01,0.000000000000000000e+00,0.000000000000000000e+00,1.120000000000000000e+02
1.000000000000000000e+00,0.000000000000000000e+00,0.000000000000000000e+00,0.000000000000000000e+00,5.960000000000000000e+02,4.584820270538330078e-01,1.931848049163818359e+00,4.893472284048981935e-01,0.000000000000000000e+00,0.000000000000000000e+00,1.120000000000000000e+02
0.000000000000000000e+00,1.000000000000000000e+00,0.000000000000000000e+00,3.000000000000000000e+00,5.980000000000000000e+02,3.352260589599609375e-01,1.614552974700927734e+00,2.875214935956248996e-01,0.000000000000000000e+00,1.000000000000000000e+00,1.110000000000000000e+02
1.000000000000000000e+00,1.000000000000000000e+00,1.000000000000000000e+00,3.000000000000000000e+00,6.000000000000000000e+02,3.295869827270507812e-01,1.857334852218627930e+00,5.279963776572951240e-01,0.000000000000000000e+00,1.000000000000000000e+00,1.120000000000000000e+02
1.000000000000000000e+00,1.000000000000000000e+00,1.000000000000000000e+00,3.000000000000000000e+00,6.020000000000000000e+02,2.976441383361816406e-01,1.847954034805297852e+00,5.593426182936822588e-01,0.000000000000000000e+00,1.000000000000000000e+00,1.110000000000000000e+02
1.000000000000000000e+00,0.000000000000000000e+00,0.000000000000000000e+00,0.000000000000000000e+00,6.010000000000000000e+02,2.907171249389648438e-01,1.709204196929931641e+00,4.353681136414233044e-01,0.000000000000000000e+00,1.000000000000000000e+00,1.120000000000000000e+02
0.000000000000000000e+00,1.000000000000000000e+00,0.000000000000000000e+00,1.000000000000000000e+00,6.010000000000000000e+02,2.341020107269287109e-01,1.844132900238037109e+00,6.126849731494958817e-01,0.000000000000000000e+00,0.000000000000000000e+00,1.120000000000000000e+02
0.000000000000000000e+00,1.000000000000000000e+00,0.000000000000000000e+00,3.000000000000000000e+00,6.030000000000000000e+02,3.656868934631347656e-01,1.955562114715576172e+00,6.016552276997499948e-01,0.000000000000000000e+00,1.000000000000000000e+00,1.110000000000000000e+02
0.000000000000000000e+00,1.000000000000000000e+00,0.000000000000000000e+00,3.000000000000000000e+00,6.050000000000000000e+02,6.891520023345947266e-01,1.960660934448242188e+00,2.793650302199190971e-01,0.000000000000000000e+00,0.000000000000000000e+00,1.110000000000000000e+02
1.000000000000000000e+00,0.000000000000000000e+00,0.000000000000000000e+00,0.000000000000000000e+00,6.040000000000000000e+02,2.571580410003662109e-01,1.668060064315795898e+00,4.306846490059444421e-01,0.000000000000000000e+00,0.000000000000000000e+00,1.110000000000000000e+02
0.000000000000000000e+00,0.000000000000000000e+00,1.000000000000000000e+00,0.000000000000000000e+00,6.030000000000000000e+02,2.514970302581787109e-01,1.704118013381958008e+00,4.681198142568159248e-01,0.000000000000000000e+00,0.000000000000000000e+00,1.110000000000000000e+02
1.000000000000000000e+00,0.000000000000000000e+00,0.000000000000000000e+00,0.000000000000000000e+00,6.020000000000000000e+02,1.858580112457275391e-01,1.687817096710205078e+00,5.058644406014122241e-01,0.000000000000000000e+00,1.000000000000000000e+00,1.120000000000000000e+02
0.000000000000000000e+00,1.000000000000000000e+00,0.000000000000000000e+00,4.000000000000000000e+00,6.050000000000000000e+02,2.594788074493408203e-01,1.542252063751220703e+00,2.984027966533262521e-01,0.000000000000000000e+00,0.000000000000000000e+00,1.120000000000000000e+02
0.000000000000000000e+00,1.000000000000000000e+00,0.000000000000000000e+00,3.000000000000000000e+00,6.070000000000000000e+02,5.262901782989501953e-01,1.906433820724487305e+00,4.047907119321693670e-01,0.000000000000000000e+00,0.000000000000000000e+00,1.120000000000000000e+02
0.000000000000000000e+00,0.000000000000000000e+00,1.000000000000000000e+00,0.000000000000000000e+00,6.060000000000000000e+02,2.366211414337158203e-01,1.882027864456176758e+00,6.533205742977992170e-01,0.000000000000000000e+00,1.000000000000000000e+00,1.110000000000000000e+02
1.000000000000000000e+00,0.000000000000000000e+00,0.000000000000000000e+00,0.000000000000000000e+00,6.050000000000000000e+02,2.583310604095458984e-01,1.586040973663330078e+00,3.397447871146403453e-01,0.000000000000000000e+00,1.000000000000000000e+00,1.120000000000000000e+02
0.000000000000000000e+00,0.000000000000000000e+00,1.000000000000000000e+00,0.000000000000000000e+00,6.040000000000000000e+02,2.681341171264648438e-01,1.645937204360961914e+00,3.857089913073330489e-01,0.000000000000000000e+00,0.000000000000000000e+00,1.120000000000000000e+02
1.000000000000000000e+00,1.000000000000000000e+00,1.000000000000000000e+00,1.000000000000000000e+00,6.040000000000000000e+02,3.841550350189208984e-01,1.696117877960205078e+00,3.153268538137055654e-01,0.000000000000000000e+00,0.000000000000000000e+00,1.120000000000000000e+02
0.000000000000000000e+00,1.000000000000000000e+00,0.000000000000000000e+00,3.000000000000000000e+00,6.060000000000000000e+02,2.870039939880371094e-01,2.013350963592529297e+00,7.449605446530322972e-01,0.000000000000000000e+00,0.000000000000000000e+00,1.120000000000000000e+02
1.000000000000000000e+00,1.000000000000000000e+00,1.000000000000000000e+00,2.000000000000000000e+00,6.070000000000000000e+02,1.190280914306640625e-01,1.415095090866088867e+00,3.105831428710424946e-01,0.000000000000000000e+00,1.000000000000000000e+00,1.110000000000000000e+02
1.000000000000000000e+00,1.000000000000000000e+00,1.000000000000000000e+00,2.000000000000000000e+00,6.080000000000000000e+02,4.586560726165771484e-01,1.732439041137695312e+00,2.930937536258536036e-01,0.000000000000000000e+00,1.000000000000000000e+00,1.120000000000000000e+02
1.000000000000000000e+00,0.000000000000000000e+00,0.000000000000000000e+00,0.000000000000000000e+00,6.070000000000000000e+02,4.375500679016113281e-01,1.769068002700805664e+00,3.455168669936517500e-01,0.000000000000000000e+00,1.000000000000000000e+00,1.110000000000000000e+02
1.000000000000000000e+00,0.000000000000000000e+00,0.000000000000000000e+00,0.000000000000000000e+00,6.060000000000000000e+02,2.997040748596191406e-01,1.643819093704223633e+00,3.560510400847416435e-01,0.000000000000000000e+00,1.000000000000000000e+00,1.120000000000000000e+02
1.000000000000000000e+00,0.000000000000000000e+00,0.000000000000000000e+00,0.000000000000000000e+00,6.050000000000000000e+02,1.415810585021972656e-01,1.589375019073486328e+00,4.617589053953775613e-01,0.000000000000000000e+00,0.000000000000000000e+00,1.120000000000000000e+02
0.000000000000000000e+00,0.000000000000000000e+00,1.000000000000000000e+00,0.000000000000000000e+00,6.040000000000000000e+02,1.965420246124267578e-01,1.900779962539672852e+00,7.292620924454157327e-01,0.000000000000000000e+00,0.000000000000000000e+00,1.120000000000000000e+02
1.000000000000000000e+00,0.000000000000000000e+00,0.000000000000000000e+00,0.000000000000000000e+00,6.030000000000000000e+02,2.619981765747070312e-01,1.644878149032592773e+00,3.912292096019212018e-01,0.000000000000000000e+00,1.000000000000000000e+00,1.110000000000000000e+02
1.000000000000000000e+00,0.000000000000000000e+00,0.000000000000000000e+00,0.000000000000000000e+00,6.020000000000000000e+02,3.606479167938232422e-01,1.836190938949584961e+00,4.940719447689801980e-01,0.000000000000000000e+00,0.000000000000000000e+00,1.110000000000000000e+02
0.000000000000000000e+00,1.000000000000000000e+00,0.000000000000000000e+00,3.000000000000000000e+00,6.040000000000000000e+02,2.094030380249023438e-01,1.601044893264770508e+00,3.953048744488414923e-01,0.000000000000000000e+00,1.000000000000000000e+00,1.120000000000000000e+02
0.000000000000000000e+00,1.000000000000000000e+00,0.000000000000000000e+00,1.000000000000000000e+00,6.040000000000000000e+02,3.234930038452148438e-01,1.958524942398071289e+00,6.535625269387401737e-01,0.000000000000000000e+00,0.000000000000000000e+00,1.120000000000000000e+02
0.000000000000000000e+00,0.000000000000000000e+00,1.000000000000000000e+00,0.000000000000000000e+00,6.030000000000000000e+02,6.549539566040039062e-01,2.133767127990722656e+00,4.875918659844149516e-01,0.000000000000000000e+00,0.000000000000000000e+00,1.120000000000000000e+02
1.000000000000000000e+00,1.000000000000000000e+00,1.000000000000000000e+00,1.000000000000000000e+00,6.030000000000000000e+02,2.327401638031005859e-01,1.865691900253295898e+00,6.365452133463891382e-01,0.000000000000000000e+00,0.000000000000000000e+00,1.120000000000000000e+02
1.000000000000000000e+00,0.000000000000000000e+00,0.000000000000000000e+00,0.000000000000000000e+00,6.020000000000000000e+02,2.759947776794433594e-01,1.575747966766357422e+00,3.127194153337526927e-01,0.000000000000000000e+00,1.000000000000000000e+00,1.110000000000000000e+02
0.000000000000000000e+00,1.000000000000000000e+00,0.000000000000000000e+00,3.000000000000000000e+00,6.040000000000000000e+02,3.844430446624755859e-01,1.848489046096801758e+00,4.777883885344249015e-01,1.000000000000000000e+00,0.000000000000000000e+00,1.110000000000000000e+02
0.000000000000000000e+00,1.000000000000000000e+00,0.000000000000000000e+00,3.000000000000000000e+00,6.060000000000000000e+02,5.085759162902832031e-01,1.907222986221313477e+00,4.184827607496680590e-01,0.000000000000000000e+00,0.000000000000000000e+00,1.110000000000000000e+02
0.000000000000000000e+00,0.000000000000000000e+00,1.000000000000000000e+00,0.000000000000000000e+00,6.050000000000000000e+02,8.409938812255859375e-01,2.421765089035034180e+00,5.901419698960018723e-01,0.000000000000000000e+00,0.000000000000000000e+00,1.110000000000000000e+02
1.000000000000000000e+00,1.000000000000000000e+00,1.000000000000000000e+00,0.000000000000000000e+00,6.050000000000000000e+02,7.129287719726562500e-02,5.932831048965454102e+00,7.397393270730776571e-01,-2.000000000000000000e+00,-2.000000000000000000e+00,1.110000000000000000e+02
1.000000000000000000e+00,1.000000000000000000e+00,1.000000000000000000e+00,3.000000000000000000e+00,6.070000000000000000e+02,2.759919166564941406e-01,1.825031042098999023e+00,5.650128913294332200e-01,0.000000000000000000e+00,0.000000000000000000e+00,1.110000000000000000e+02
1.000000000000000000e+00,1.000000000000000000e+00,1.000000000000000000e+00,3.000000000000000000e+00,6.090000000000000000e+02,5.236120223999023438e-01,2.130536079406738281e+00,6.288652788517261616e-01,0.000000000000000000e+00,1.000000000000000000e+00,1.120000000000000000e+02
1.000000000000000000e+00,1.000000000000000000e+00,1.000000000000000000e+00,2.000000000000000000e+00,6.100000000000000000e+02,3.512599468231201172e-01,1.711982011795043945e+00,3.745546364436577180e-01,0.000000000000000000e+00,1.000000000000000000e+00,1.110000000000000000e+02
0.000000000000000000e+00,1.000000000000000000e+00,0.000000000000000000e+00,3.000000000000000000e+00,6.120000000000000000e+02,8.714320659637451172e-01,2.521764039993286133e+00,6.627673271749718875e-01,0.000000000000000000e+00,1.000000000000000000e+00,1.120000000000000000e+02
0.000000000000000000e+00,0.000000000000000000e+00,1.000000000000000000e+00,0.000000000000000000e+00,6.110000000000000000e+02,2.970740795135498047e-01,1.732112884521484375e+00,4.451602602747419812e-01,0.000000000000000000e+00,1.000000000000000000e+00,1.110000000000000000e+02
1.000000000000000000e+00,1.000000000000000000e+00,1.000000000000000000e+00,4.000000000000000000e+00,6.140000000000000000e+02,3.148019313812255859e-01,1.638936996459960938e+00,3.342891046568456925e-01,0.000000000000000000e+00,1.000000000000000000e+00,1.120000000000000000e+02
1.000000000000000000e+00,1.000000000000000000e+00,1.000000000000000000e+00,2.000000000000000000e+00,6.150000000000000000e+02,3.888380527496337891e-01,1.938052892684936523e+00,5.554918008259481788e-01,0.000000000000000000e+00,0.000000000000000000e+00,1.120000000000000000e+02
0.000000000000000000e+00,1.000000000000000000e+00,0.000000000000000000e+00,4.000000000000000000e+00,6.180000000000000000e+02,2.575709819793701172e-01,1.715326070785522461e+00,4.709753461488005444e-01,0.000000000000000000e+00,1.000000000000000000e+00,1.110000000000000000e+02
0.000000000000000000e+00,1.000000000000000000e+00,0.000000000000000000e+00,4.000000000000000000e+00,6.210000000000000000e+02,2.989461421966552734e-01,1.809210062026977539e+00,5.135228045940718467e-01,0.000000000000000000e+00,0.000000000000000000e+00,1.110000000000000000e+02
1.000000000000000000e+00,1.000000000000000000e+00,1.000000000000000000e+00,2.000000000000000000e+00,6.220000000000000000e+02,2.739400863647460938e-01,1.601567029953002930e+00,3.487041364340081606e-01,0.000000000000000000e+00,1.000000000000000000e+00,1.120000000000000000e+02
0.000000000000000000e+00,1.000000000000000000e+00,0.000000000000000000e+00,2.000000000000000000e+00,6.230000000000000000e+02,2.730770111083984375e-01,1.937855958938598633e+00,6.862597224181077316e-01,0.000000000000000000e+00,1.000000000000000000e+00,1.110000000000000000e+02
0.000000000000000000e+00,0.000000000000000000e+00,1.000000000000000000e+00,0.000000000000000000e+00,6.220000000000000000e+02,3.972260951995849609e-01,1.975476980209350586e+00,5.785823003383101515e-01,0.000000000000000000e+00,0.000000000000000000e+00,1.110000000000000000e+02
1.000000000000000000e+00,1.000000000000000000e+00,1.000000000000000000e+00,0.000000000000000000e+00,6.210000000000000000e+02,3.025288581848144531e-01,1.630321025848388672e+00,3.425625424635241334e-01,0.000000000000000000e+00,0.000000000000000000e+00,1.110000000000000000e+02
1.000000000000000000e+00,1.000000000000000000e+00,1.000000000000000000e+00,3.000000000000000000e+00,6.230000000000000000e+02,3.602819442749023438e-01,1.892917156219482422e+00,5.519611944782154556e-01,0.000000000000000000e+00,0.000000000000000000e+00,1.110000000000000000e+02
1.000000000000000000e+00,1.000000000000000000e+00,1.000000000000000000e+00,1.000000000000000000e+00,6.230000000000000000e+02,3.093781471252441406e-01,1.670557022094726562e+00,3.728045997284746282e-01,0.000000000000000000e+00,0.000000000000000000e+00,1.110000000000000000e+02
1.000000000000000000e+00,0.000000000000000000e+00,0.000000000000000000e+00,0.000000000000000000e+00,6.220000000000000000e+02,2.226071357727050781e-01,1.739924907684326172e+00,5.293014208675808074e-01,0.000000000000000000e+00,0.000000000000000000e+00,1.110000000000000000e+02
0.000000000000000000e+00,0.000000000000000000e+00,1.000000000000000000e+00,0.000000000000000000e+00,6.210000000000000000e+02,4.951870441436767578e-01,2.167190790176391602e+00,6.797585189239829795e-01,0.000000000000000000e+00,1.000000000000000000e+00,1.120000000000000000e+02
1.000000000000000000e+00,0.000000000000000000e+00,0.000000000000000000e+00,0.000000000000000000e+00,6.200000000000000000e+02,1.569621562957763672e-01,1.612953901290893555e+00,4.763285229025274181e-01,0.000000000000000000e+00,0.000000000000000000e+00,1.120000000000000000e+02
1.000000000000000000e+00,1.000000000000000000e+00,1.000000000000000000e+00,4.000000000000000000e+00,6.230000000000000000e+02,2.713010311126708984e-01,1.849159002304077148e+00,5.920968619673815381e-01,0.000000000000000000e+00,0.000000000000000000e+00,1.120000000000000000e+02
1.000000000000000000e+00,1.000000000000000000e+00,1.000000000000000000e+00,2.000000000000000000e+00,6.240000000000000000e+02,2.253870964050292969e-01,1.679305076599121094e+00,4.715900622575682766e-01,0.000000000000000000e+00,0.000000000000000000e+00,1.120000000000000000e+02
1.000000000000000000e+00,0.000000000000000000e+00,0.000000000000000000e+00,0.000000000000000000e+00,6.230000000000000000e+02,2.590720653533935547e-01,1.990737915039062500e+00,7.454618944111524037e-01,0.000000000000000000e+00,1.000000000000000000e+00,1.110000000000000000e+02
0.000000000000000000e+00,1.000000000000000000e+00,0.000000000000000000e+00,3.000000000000000000e+00,6.250000000000000000e+02,1.917700767517089844e-01,1.708419799804687500e+00,5.374787788003045907e-01,0.000000000000000000e+00,0.000000000000000000e+00,1.110000000000000000e+02
1.000000000000000000e+00,0.000000000000000000e+00,0.000000000000000000e+00,0.000000000000000000e+00,6.240000000000000000e+02,4.822309017181396484e-01,2.051041126251220703e+00,5.718877837368591122e-01,0.000000000000000000e+00,1.000000000000000000e+00,1.120000000000000000e+02
0.000000000000000000e+00,1.000000000000000000e+00,0.000000000000000000e+00,3.000000000000000000e+00,6.260000000000000000e+02,1.389870643615722656e-01,1.475085973739624023e+00,3.472955284794323472e-01,0.000000000000000000e+00,0.000000000000000000e+00,1.120000000000000000e+02
0.000000000000000000e+00,0.000000000000000000e+00,1.000000000000000000e+00,0.000000000000000000e+00,6.250000000000000000e+02,2.066488265991210938e-01,1.795087099075317383e+00,6.088249449093631194e-01,0.000000000000000000e+00,1.000000000000000000e+00,1.110000000000000000e+02
1.000000000000000000e+00,1.000000000000000000e+00,1.000000000000000000e+00,2.000000000000000000e+00,6.260000000000000000e+02,2.387011051177978516e-01,1.940757036209106445e+00,7.162259647269444418e-01,0.000000000000000000e+00,1.000000000000000000e+00,1.120000000000000000e+02
1.000000000000000000e+00,1.000000000000000000e+00,1.000000000000000000e+00,4.000000000000000000e+00,6.290000000000000000e+02,3.588278293609619141e-01,1.871427059173583984e+00,5.212879524639262296e-01,0.000000000000000000e+00,0.000000000000000000e+00,1.120000000000000000e+02
1.000000000000000000e+00,1.000000000000000000e+00,1.000000000000000000e+00,3.000000000000000000e+00,6.310000000000000000e+02,3.129670619964599609e-01,1.784725904464721680e+00,4.727632639317561059e-01,0.000000000000000000e+00,1.000000000000000000e+00,1.110000000000000000e+02
1.000000000000000000e+00,1.000000000000000000e+00,1.000000000000000000e+00,2.000000000000000000e+00,6.320000000000000000e+02,9.346017837524414062e-01,2.266366958618164062e+00,3.393862993350766355e-01,1.000000000000000000e+00,0.000000000000000000e+00,1.110000000000000000e+02
1.000000000000000000e+00,1.000000000000000000e+00,1.000000000000000000e+00,1.000000000000000000e+00,6.320000000000000000e+02,4.172279834747314453e-01,1.937922000885009766e+00,5.271604878578767250e-01,0.000000000000000000e+00,1.000000000000000000e+00,1.120000000000000000e+02
0.000000000000000000e+00,0.000000000000000000e+00,1.000000000000000000e+00,0.000000000000000000e+00,6.310000000000000000e+02,4.517250061035156250e-01,1.849267959594726562e+00,4.100697088528107437e-01,0.000000000000000000e+00,1.000000000000000000e+00,1.110000000000000000e+02
1.000000000000000000e+00,0.000000000000000000e+00,0.000000000000000000e+00,0.000000000000000000e+00,6.300000000000000000e+02,2.219719886779785156e-01,1.545422077178955078e+00,3.388778933564416396e-01,0.000000000000000000e+00,1.000000000000000000e+00,1.120000000000000000e+02
0.000000000000000000e+00,0.000000000000000000e+00,1.000000000000000000e+00,0.000000000000000000e+00,6.290000000000000000e+02,5.168449878692626953e-01,1.854607820510864258e+00,3.435022964158635506e-01,0.000000000000000000e+00,0.000000000000000000e+00,1.120000000000000000e+02
1.000000000000000000e+00,1.000000000000000000e+00,1.000000000000000000e+00,2.000000000000000000e+00,6.300000000000000000e+02,4.429099559783935547e-01,1.829476118087768555e+00,4.063467565624667710e-01,0.000000000000000000e+00,0.000000000000000000e+00,1.120000000000000000e+02
1.000000000000000000e+00,1.000000000000000000e+00,1.000000000000000000e+00,2.000000000000000000e+00,6.310000000000000000e+02,3.667700290679931641e-01,1.756089925765991211e+00,3.958665594572692292e-01,0.000000000000000000e+00,1.000000000000000000e+00,1.110000000000000000e+02
1.000000000000000000e+00,0.000000000000000000e+00,0.000000000000000000e+00,0.000000000000000000e+00,6.300000000000000000e+02,4.729671478271484375e-01,1.810474872589111328e+00,3.564390041998566350e-01,0.000000000000000000e+00,0.000000000000000000e+00,1.110000000000000000e+02
0.000000000000000000e+00,1.000000000000000000e+00,0.000000000000000000e+00,2.000000000000000000e+00,6.310000000000000000e+02,7.921319007873535156e-01,2.196169137954711914e+00,4.193184745259712076e-01,0.000000000000000000e+00,0.000000000000000000e+00,1.110000000000000000e+02
1.000000000000000000e+00,0.000000000000000000e+00,0.000000000000000000e+00,0.000000000000000000e+00,6.300000000000000000e+02,3.974897861480712891e-01,1.670255899429321289e+00,2.731149083203789907e-01,0.000000000000000000e+00,1.000000000000000000e+00,1.120000000000000000e+02
0.000000000000000000e+00,1.000000000000000000e+00,0.000000000000000000e+00,3.000000000000000000e+00,6.320000000000000000e+02,7.738840579986572266e-01,2.229283809661865234e+00,4.689312781306618216e-01,0.000000000000000000e+00,0.000000000000000000e+00,1.120000000000000000e+02
0.000000000000000000e+00,0.000000000000000000e+00,1.000000000000000000e+00,0.000000000000000000e+00,6.310000000000000000e+02,3.495500087738037109e-01,1.730427026748657227e+00,3.828653078440668600e-01,0.000000000000000000e+00,0.000000000000000000e+00,1.120000000000000000e+02
1.000000000000000000e+00,0.000000000000000000e+00,0.000000000000000000e+00,0.000000000000000000e+00,6.300000000000000000e+02,2.542648315429687500e-01,1.728259086608886719e+00,4.777631128796909210e-01,0.000000000000000000e+00,1.000000000000000000e+00,1.110000000000000000e+02
1.000000000000000000e+00,0.000000000000000000e+00,0.000000000000000000e+00,0.000000000000000000e+00,6.290000000000000000e+02,2.326059341430664062e-01,1.950463056564331055e+00,7.280584143699022626e-01,0.000000000000000000e+00,0.000000000000000000e+00,1.110000000000000000e+02
0.000000000000000000e+00,1.000000000000000000e+00,0.000000000000000000e+00,3.000000000000000000e+00,6.310000000000000000e+02,2.277159690856933594e-01,1.956259965896606445e+00,7.343676639850280630e-01,0.000000000000000000e+00,0.000000000000000000e+00,1.110000000000000000e+02
0.000000000000000000e+00,1.000000000000000000e+00,0.000000000000000000e+00,3.000000000000000000e+00,6.330000000000000000e+02,3.671581745147705078e-01,1.752768993377685547e+00,3.875854797732712353e-01,0.000000000000000000e+00,0.000000000000000000e+00,1.110000000000000000e+02
0.000000000000000000e+00,1.000000000000000000e+00,0.000000000000000000e+00,3.000000000000000000e+00,6.350000000000000000e+02,5.532531738281250000e-01,2.282609224319458008e+00,7.365826562183159787e-01,0.000000000000000000e+00,1.000000000000000000e+00,1.120000000000000000e+02
0.000000000000000000e+00,0.000000000000000000e+00,1.000000000000000000e+00,0.000000000000000000e+00,6.340000000000000000e+02,5.850210189819335938e-01,2.247026920318603516e+00,6.671009193473714793e-01,0.000000000000000000e+00,1.000000000000000000e+00,1.110000000000000000e+02
1.000000000000000000e+00,1.000000000000000000e+00,1.000000000000000000e+00,4.000000000000000000e+00,6.370000000000000000e+02,2.740979194641113281e-01,1.621984958648681641e+00,3.561269873693698185e-01,1.000000000000000000e+00,1.000000000000000000e+00,1.120000000000000000e+02
1.000000000000000000e+00,0.000000000000000000e+00,0.000000000000000000e+00,0.000000000000000000e+00,6.360000000000000000e+02,3.054819107055664062e-01,1.906580209732055664e+00,6.125179383474536055e-01,0.000000000000000000e+00,1.000000000000000000e+00,1.110000000000000000e+02
0.000000000000000000e+00,0.000000000000000000e+00,1.000000000000000000e+00,0.000000000000000000e+00,6.350000000000000000e+02,1.855487823486328125e-01,1.838695049285888672e+00,6.678716870485721380e-01,0.000000000000000000e+00,1.000000000000000000e+00,1.120000000000000000e+02
1.000000000000000000e+00,0.000000000000000000e+00,0.000000000000000000e+00,0.000000000000000000e+00,6.340000000000000000e+02,1.376159191131591797e-01,1.861942768096923828e+00,7.298688579534704512e-01,0.000000000000000000e+00,0.000000000000000000e+00,1.120000000000000000e+02
1.000000000000000000e+00,1.000000000000000000e+00,1.000000000000000000e+00,0.000000000000000000e+00,6.340000000000000000e+02,1.249807119369506836e+00,2.944330930709838867e+00,6.743771332857788625e-01,-1.000000000000000000e+00,-1.000000000000000000e+00,1.120000000000000000e+02
1.000000000000000000e+00,1.000000000000000000e+00,1.000000000000000000e+00,2.000000000000000000e+00,6.350000000000000000e+02,2.818939685821533203e-01,1.526160001754760742e+00,2.509907329067047055e-01,0.000000000000000000e+00,0.000000000000000000e+00,1.120000000000000000e+02
1.000000000000000000e+00,0.000000000000000000e+00,0.000000000000000000e+00,0.000000000000000000e+00,6.340000000000000000e+02,6.464488506317138672e-01,2.056033134460449219e+00,4.070181937068067524e-01,0.000000000000000000e+00,1.000000000000000000e+00,1.110000000000000000e+02
1.000000000000000000e+00,0.000000000000000000e+00,0.000000000000000000e+00,0.000000000000000000e+00,6.330000000000000000e+02,5.805950164794921875e-01,2.099744081497192383e+00,5.233550031026897864e-01,0.000000000000000000e+00,1.000000000000000000e+00,1.120000000000000000e+02
0.000000000000000000e+00,1.000000000000000000e+00,0.000000000000000000e+00,0.000000000000000000e+00,6.330000000000000000e+02,1.480631113052368164e+00,2.906473875045776367e+00,4.134070275147261331e-01,-1.000000000000000000e+00,-1.000000000000000000e+00,1.110000000000000000e+02
1.000000000000000000e+00,1.000000000000000000e+00,1.000000000000000000e+00,1.000000000000000000e+00,6.330000000000000000e+02,4.587109088897705078e-01,1.975248098373413086e+00,5.385948933739097555e-01,0.000000000000000000e+00,1.000000000000000000e+00,1.120000000000000000e+02
1.000000000000000000e+00,1.000000000000000000e+00,1.000000000000000000e+00,3.000000000000000000e+00,6.350000000000000000e+02,2.604651451110839844e-01,1.928545951843261719e+00,6.837227497572562207e-01,0.000000000000000000e+00,0.000000000000000000e+00,1.120000000000000000e+02
1.000000000000000000e+00,0.000000000000000000e+00,0.000000000000000000e+00,0.000000000000000000e+00,6.340000000000000000e+02,2.552189826965332031e-01,1.767354011535644531e+00,5.179575609330213659e-01,0.000000000000000000e+00,1.000000000000000000e+00,1.110000000000000000e+02
0.000000000000000000e+00,0.000000000000000000e+00,1.000000000000000000e+00,0.000000000000000000e+00,6.330000000000000000e+02,1.066129207611083984e-01,1.713965177536010742e+00,6.152387793319913367e-01,0.000000000000000000e+00,0.000000000000000000e+00,1.110000000000000000e+02
0.000000000000000000e+00,0.000000000000000000e+00,1.000000000000000000e+00,0.000000000000000000e+00,6.320000000000000000e+02,2.349920272827148438e-01,1.674875974655151367e+00,4.403783734804218586e-01,0.000000000000000000e+00,0.000000000000000000e+00,1.110000000000000000e+02
1.000000000000000000e+00,1.000000000000000000e+00,1.000000000000000000e+00,2.000000000000000000e+00,6.330000000000000000e+02,1.923739910125732422e-01,1.854668855667114258e+00,6.782471114962633774e-01,0.000000000000000000e+00,1.000000000000000000e+00,1.120000000000000000e+02
0.000000000000000000e+00,1.000000000000000000e+00,0.000000000000000000e+00,0.000000000000000000e+00,6.330000000000000000e+02,2.510547637939453125e-04,5.739293813705444336e+00,6.177878592252781242e-01,-2.000000000000000000e+00,-2.000000000000000000e+00,1.120000000000000000e+02
1.000000000000000000e+00,0.000000000000000000e+00,0.000000000000000000e+00,0.000000000000000000e+00,6.320000000000000000e+02,4.676489830017089844e-01,1.978919982910156250e+00,5.135247493804351304e-01,0.000000000000000000e+00,0.000000000000000000e+00,1.120000000000000000e+02
0.000000000000000000e+00,1.000000000000000000e+00,0.000000000000000000e+00,3.000000000000000000e+00,6.340000000000000000e+02,4.610300064086914062e-01,2.056879043579101562e+00,6.037636520046096855e-01,0.000000000000000000e+00,0.000000000000000000e+00,1.120000000000000000e+02
1.000000000000000000e+00,1.000000000000000000e+00,1.000000000000000000e+00,1.000000000000000000e+00,6.340000000000000000e+02,7.174401283264160156e-01,2.263236045837402344e+00,5.504756296721352582e-01,0.000000000000000000e+00,0.000000000000000000e+00,1.120000000000000000e+02
0.000000000000000000e+00,1.000000000000000000e+00,0.000000000000000000e+00,2.000000000000000000e+00,6.350000000000000000e+02,8.558530807495117188e-01,2.372831821441650391e+00,5.234198307144918294e-01,0.000000000000000000e+00,0.000000000000000000e+00,1.120000000000000000e+02
1.000000000000000000e+00,0.000000000000000000e+00,0.000000000000000000e+00,0.000000000000000000e+00,6.350000000000000000e+02,1.070253133773803711e+00,2.517413854598999023e+00,4.243724795379922865e-01,-1.000000000000000000e+00,-1.000000000000000000e+00,1.110000000000000000e+02
0.000000000000000000e+00,0.000000000000000000e+00,1.000000000000000000e+00,0.000000000000000000e+00,6.350000000000000000e+02,1.559793949127197266e+00,3.265592098236083984e+00,6.898086924600457248e-01,-1.000000000000000000e+00,-1.000000000000000000e+00,1.120000000000000000e+02
1.000000000000000000e+00,0.000000000000000000e+00,0.000000000000000000e+00,0.000000000000000000e+00,6.340000000000000000e+02,6.181619167327880859e-01,2.255355119705200195e+00,6.452960842757692328e-01,0.000000000000000000e+00,1.000000000000000000e+00,1.110000000000000000e+02
0.000000000000000000e+00,1.000000000000000000e+00,0.000000000000000000e+00,3.000000000000000000e+00,6.360000000000000000e+02,3.792240619659423828e-01,1.953733921051025391e+00,5.825176083667104043e-01,0.000000000000000000e+00,1.000000000000000000e+00,1.120000000000000000e+02
0.000000000000000000e+00,0.000000000000000000e+00,1.000000000000000000e+00,0.000000000000000000e+00,6.350000000000000000e+02,3.836119174957275391e-01,2.018878221511840820e+00,6.347664098441558878e-01,0.000000000000000000e+00,1.000000000000000000e+00,1.110000000000000000e+02
1.000000000000000000e+00,0.000000000000000000e+00,0.000000000000000000e+00,0.000000000000000000e+00,6.340000000000000000e+02,3.600318431854248047e-01,2.029170989990234375e+00,6.806770992206723214e-01,0.000000000000000000e+00,1.000000000000000000e+00,1.120000000000000000e+02
0.000000000000000000e+00,1.000000000000000000e+00,0.000000000000000000e+00,2.000000000000000000e+00,6.350000000000000000e+02,4.694371223449707031e-01,2.004087924957275391e+00,5.516323054858224273e-01,0.000000000000000000e+00,0.000000000000000000e+00,1.120000000000000000e+02
1.000000000000000000e+00,0.000000000000000000e+00,0.000000000000000000e+00,0.000000000000000000e+00,6.340000000000000000e+02,4.128439426422119141e-01,2.149765968322753906e+00,7.345931253064432731e-01,0.000000000000000000e+00,0.000000000000000000e+00,1.120000000000000000e+02
0.000000000000000000e+00,1.000000000000000000e+00,0.000000000000000000e+00,2.000000000000000000e+00,6.350000000000000000e+02,6.328699588775634766e-01,2.378309965133666992e+00,7.460612009860105864e-01,0.000000000000000000e+00,0.000000000000000000e+00,1.120000000000000000e+02
0.000000000000000000e+00,0.000000000000000000e+00,1.000000000000000000e+00,0.000000000000000000e+00,6.350000000000000000e+02,5.533695220947265625e-02,5.614665985107421875e+00,4.448306817348701703e-01,-2.000000000000000000e+00,-2.000000000000000000e+00,1.120000000000000000e+02
0.000000000000000000e+00,0.000000000000000000e+00,1.000000000000000000e+00,0.000000000000000000e+00,6.350000000000000000e+02,6.053590774536132812e-02,5.532289028167724609e+00,3.607794922024022966e-01,-2.000000000000000000e+00,-2.000000000000000000e+00,1.120000000000000000e+02
0.000000000000000000e+00,0.000000000000000000e+00,1.000000000000000000e+00,0.000000000000000000e+00,6.340000000000000000e+02,3.957901000976562500e-01,1.986598014831542969e+00,5.972138738653105516e-01,0.000000000000000000e+00,0.000000000000000000e+00,1.120000000000000000e+02
0.000000000000000000e+00,1.000000000000000000e+00,0.000000000000000000e+00,1.000000000000000000e+00,6.340000000000000000e+02,3.024210929870605469e-01,1.905210018157958984e+00,6.191334726459252202e-01,0.000000000000000000e+00,0.000000000000000000e+00,1.120000000000000000e+02
0.000000000000000000e+00,0.000000000000000000e+00,1.000000000000000000e+00,0.000000000000000000e+00,6.340000000000000000e+02,1.079885959625244141e+00,2.431209087371826172e+00,3.340618839952636532e-01,-1.000000000000000000e+00,-1.000000000000000000e+00,1.120000000000000000e+02
1.000000000000000000e+00,1.000000000000000000e+00,1.000000000000000000e+00,3.000000000000000000e+00,6.360000000000000000e+02,2.575829029083251953e-01,1.574684858322143555e+00,3.255256686646781916e-01,0.000000000000000000e+00,0.000000000000000000e+00,1.120000000000000000e+02
0.000000000000000000e+00,0.000000000000000000e+00,1.000000000000000000e+00,0.000000000000000000e+00,6.350000000000000000e+02,2.240788936614990234e-01,1.947209835052490234e+00,7.390212236571467308e-01,0.000000000000000000e+00,0.000000000000000000e+00,1.120000000000000000e+02
1.000000000000000000e+00,1.000000000000000000e+00,1.000000000000000000e+00,2.000000000000000000e+00,6.360000000000000000e+02,4.390180110931396484e-01,1.766054153442382812e+00,3.389049393259264686e-01,0.000000000000000000e+00,1.000000000000000000e+00,1.110000000000000000e+02
1.000000000000000000e+00,0.000000000000000000e+00,0.000000000000000000e+00,0.000000000000000000e+00,6.350000000000000000e+02,5.494399070739746094e-01,2.191073894500732422e+00,6.463933925929368218e-01,1.000000000000000000e+00,0.000000000000000000e+00,1.110000000000000000e+02
0.000000000000000000e+00,0.000000000000000000e+00,1.000000000000000000e+00,0.000000000000000000e+00,6.340000000000000000e+02,8.141751289367675781e-01,2.298223018646240234e+00,4.948675326366136495e-01,0.000000000000000000e+00,1.000000000000000000e+00,1.120000000000000000e+02
1.000000000000000000e+00,1.000000000000000000e+00,1.000000000000000000e+00,2.000000000000000000e+00,6.350000000000000000e+02,2.172539234161376953e-01,1.897747993469238281e+00,6.924970878685867692e-01,0.000000000000000000e+00,0.000000000000000000e+00,1.120000000000000000e+02
1.000000000000000000e+00,0.000000000000000000e+00,0.000000000000000000e+00,0.000000000000000000e+00,6.340000000000000000e+02,3.393440246582031250e-01,1.902353048324584961e+00,5.783802470618353286e-01,0.000000000000000000e+00,0.000000000000000000e+00,1.120000000000000000e+02
1.000000000000000000e+00,1.000000000000000000e+00,1.000000000000000000e+00,2.000000000000000000e+00,6.350000000000000000e+02,2.173368930816650391e-01,1.896408081054687500e+00,6.914095527895696147e-01,0.000000000000000000e+00,1.000000000000000000e+00,1.110000000000000000e+02
0.000000000000000000e+00,1.000000000000000000e+00,0.000000000000000000e+00,2.000000000000000000e+00,6.360000000000000000e+02,5.484509468078613281e-01,1.823534965515136719e+00,2.821042712595876467e-01,0.000000000000000000e+00,0.000000000000000000e+00,1.110000000000000000e+02
0.000000000000000000e+00,0.000000000000000000e+00,1.000000000000000000e+00,0.000000000000000000e+00,6.350000000000000000e+02,4.688229560852050781e-01,2.081326007843017578e+00,6.297880482669993008e-01,0.000000000000000000e+00,0.000000000000000000e+00,1.110000000000000000e+02
1.000000000000000000e+00,0.000000000000000000e+00,0.000000000000000000e+00,0.000000000000000000e+00,6.340000000000000000e+02,2.395579814910888672e-01,1.653959989547729492e+00,4.340176428874297221e-01,0.000000000000000000e+00,0.000000000000000000e+00,1.110000000000000000e+02
0.000000000000000000e+00,1.000000000000000000e+00,0.000000000000000000e+00,2.000000000000000000e+00,6.350000000000000000e+02,4.369401931762695312e-01,2.173192024230957031e+00,7.403112170668920688e-01,0.000000000000000000e+00,0.000000000000000000e+00,1.110000000000000000e+02
1.000000000000000000e+00,0.000000000000000000e+00,0.000000000000000000e+00,0.000000000000000000e+00,6.340000000000000000e+02,3.644731044769287109e-01,1.912760019302368164e+00,5.533507687719669832e-01,0.000000000000000000e+00,1.000000000000000000e+00,1.120000000000000000e+02
0.000000000000000000e+00,1.000000000000000000e+00,0.000000000000000000e+00,2.000000000000000000e+00,6.350000000000000000e+02,2.736899852752685547e-01,1.557147979736328125e+00,2.941857372476988086e-01,0.000000000000000000e+00,1.000000000000000000e+00,1.110000000000000000e+02
0.000000000000000000e+00,1.000000000000000000e+00,0.000000000000000000e+00,1.000000000000000000e+00,6.350000000000000000e+02,3.347799777984619141e-01,2.063012123107910156e+00,7.400972036288413491e-01,0.000000000000000000e+00,1.000000000000000000e+00,1.120000000000000000e+02
1.000000000000000000e+00,0.000000000000000000e+00,0.000000000000000000e+00,0.000000000000000000e+00,6.340000000000000000e+02,4.221839904785156250e-01,1.825068950653076172e+00,4.156110068700228366e-01,0.000000000000000000e+00,0.000000000000000000e+00,1.120000000000000000e+02
0.000000000000000000e+00,0.000000000000000000e+00,1.000000000000000000e+00,0.000000000000000000e+00,6.330000000000000000e+02,6.079719066619873047e-01,2.259824991226196289e+00,6.586008709874417999e-01,0.000000000000000000e+00,1.000000000000000000e+00,1.110000000000000000e+02
1.000000000000000000e+00,0.000000000000000000e+00,0.000000000000000000e+00,0.000000000000000000e+00,6.320000000000000000e+02,2.189569473266601562e-01,1.680047035217285156e+00,4.722619887096574098e-01,0.000000000000000000e+00,0.000000000000000000e+00,1.110000000000000000e+02
1.000000000000000000e+00,0.000000000000000000e+00,0.000000000000000000e+00,0.000000000000000000e+00,6.310000000000000000e+02,4.866600036621093750e-01,1.916435003280639648e+00,4.388177319183146907e-01,0.000000000000000000e+00,0.000000000000000000e+00,1.110000000000000000e+02
0.000000000000000000e+00,0.000000000000000000e+00,1.000000000000000000e+00,0.000000000000000000e+00,6.300000000000000000e+02,6.621649265289306641e-01,2.211082935333251953e+00,5.665038262346322462e-01,0.000000000000000000e+00,0.000000000000000000e+00,1.110000000000000000e+02
1.000000000000000000e+00,1.000000000000000000e+00,1.000000000000000000e+00,2.000000000000000000e+00,6.310000000000000000e+02,1.706118583679199219e-01,1.726512908935546875e+00,5.597532731789870430e-01,0.000000000000000000e+00,0.000000000000000000e+00,1.110000000000000000e+02
1.000000000000000000e+00,1.000000000000000000e+00,1.000000000000000000e+00,4.000000000000000000e+00,6.340000000000000000e+02,2.549481391906738281e-01,1.824211835861206055e+00,5.840197589822073709e-01,0.000000000000000000e+00,0.000000000000000000e+00,1.110000000000000000e+02
1.000000000000000000e+00,0.000000000000000000e+00,0.000000000000000000e+00,0.000000000000000000e+00,6.330000000000000000e+02,3.666357994079589844e-01,2.013054132461547852e+00,6.470762678857577832e-01,0.000000000000000000e+00,1.000000000000000000e+00,1.120000000000000000e+02
0.000000000000000000e+00,0.000000000000000000e+00,1.000000000000000000e+00,0.000000000000000000e+00,6.320000000000000000e+02,1.116929054260253906e-01,1.550180912017822266e+00,4.641958114896826970e-01,0.000000000000000000e+00,1.000000000000000000e+00,1.110000000000000000e+02
1.000000000000000000e+00,0.000000000000000000e+00,0.000000000000000000e+00,0.000000000000000000e+00,6.310000000000000000e+02,2.708277702331542969e-01,1.876789808273315430e+00,6.242310550484924114e-01,0.000000000000000000e+00,0.000000000000000000e+00,1.110000000000000000e+02
1.000000000000000000e+00,1.000000000000000000e+00,1.000000000000000000e+00,2.000000000000000000e+00,6.320000000000000000e+02,1.965198516845703125e-01,1.626618862152099609e+00,4.344375003147082359e-01,0.000000000000000000e+00,1.000000000000000000e+00,1.120000000000000000e+02
0.000000000000000000e+00,0.000000000000000000e+00,1.000000000000000000e+00,0.000000000000000000e+00,6.310000000000000000e+02,1.181788444519042969e-01,1.465346097946166992e+00,3.499303875241801531e-01,0.000000000000000000e+00,1.000000000000000000e+00,1.110000000000000000e+02
1.000000000000000000e+00,1.000000000000000000e+00,1.000000000000000000e+00,3.000000000000000000e+00,6.330000000000000000e+02,3.165690898895263672e-01,1.714869976043701172e+00,3.981460148648114372e-01,0.000000000000000000e+00,1.000000000000000000e+00,1.120000000000000000e+02
1.000000000000000000e+00,0.000000000000000000e+00,0.000000000000000000e+00,0.000000000000000000e+00,6.320000000000000000e+02,8.006420135498046875e-01,2.327538013458251953e+00,5.422753538831851516e-01,0.000000000000000000e+00,1.000000000000000000e+00,1.110000000000000000e+02
0.000000000000000000e+00,0.000000000000000000e+00,1.000000000000000000e+00,0.000000000000000000e+00,6.310000000000000000e+02,2.030839920043945312e-01,1.487591981887817383e+00,2.968554917153152783e-01,0.000000000000000000e+00,1.000000000000000000e+00,1.120000000000000000e+02
1.000000000000000000e+00,0.000000000000000000e+00,0.000000000000000000e+00,0.000000000000000000e+00,6.300000000000000000e+02,3.981869220733642578e-01,2.109136104583740234e+00,7.222631471444120876e-01,0.000000000000000000e+00,1.000000000000000000e+00,1.110000000000000000e+02
1.000000000000000000e+00,1.000000000000000000e+00,1.000000000000000000e+00,1.000000000000000000e+00,6.300000000000000000e+02,4.535942077636718750e-01,2.148159980773925781e+00,7.038689026934121795e-01,0.000000000000000000e+00,0.000000000000000000e+00,1.110000000000000000e+02
1.000000000000000000e+00,0.000000000000000000e+00,0.000000000000000000e+00,0.000000000000000000e+00,6.300000000000000000e+02,4.331684112548828125e-02,5.874788045883178711e+00,7.122486540605321714e-01,-2.000000000000000000e+00,-2.000000000000000000e+00,1.110000000000000000e+02
0.000000000000000000e+00,1.000000000000000000e+00,0.000000000000000000e+00,5.000000000000000000e+00,6.340000000000000000e+02,2.950859069824218750e-01,1.920805215835571289e+00,6.332317497588590971e-01,0.000000000000000000e+00,0.000000000000000000e+00,1.110000000000000000e+02
0.000000000000000000e+00,0.000000000000000000e+00,1.000000000000000000e+00,0.000000000000000000e+00,6.330000000000000000e+02,1.969349384307861328e-01,1.869172811508178711e+00,6.691020608040043616e-01,0.000000000000000000e+00,1.000000000000000000e+00,1.120000000000000000e+02
1.000000000000000000e+00,1.000000000000000000e+00,1.000000000000000000e+00,1.000000000000000000e+00,6.330000000000000000e+02,8.973281383514404297e-01,2.598457098007202148e+00,7.009637165568221029e-01,0.000000000000000000e+00,1.000000000000000000e+00,1.110000000000000000e+02
1.000000000000000000e+00,1.000000000000000000e+00,1.000000000000000000e+00,4.000000000000000000e+00,6.360000000000000000e+02,6.184399127960205078e-01,2.101255893707275391e+00,4.858459581830081864e-01,0.000000000000000000e+00,1.000000000000000000e+00,1.120000000000000000e+02
1.000000000000000000e+00,0.000000000000000000e+00,0.000000000000000000e+00,0.000000000000000000e+00,6.350000000000000000e+02,2.574861049652099609e-01,1.732765197753906250e+00,4.853575874005309210e-01,1.000000000000000000e+00,1.000000000000000000e+00,1.110000000000000000e+02
0.000000000000000000e+00,1.000000000000000000e+00,0.000000000000000000e+00,2.000000000000000000e+00,6.360000000000000000e+02,7.202138900756835938e-01,2.142452001571655273e+00,4.278650272364544205e-01,0.000000000000000000e+00,0.000000000000000000e+00,1.110000000000000000e+02
1.000000000000000000e+00,1.000000000000000000e+00,1.000000000000000000e+00,1.000000000000000000e+00,6.360000000000000000e+02,3.089468479156494141e-01,1.647796869277954102e+00,3.592250332117679634e-01,0.000000000000000000e+00,0.000000000000000000e+00,1.110000000000000000e+02
0.000000000000000000e+00,1.000000000000000000e+00,0.000000000000000000e+00,4.000000000000000000e+00,6.390000000000000000e+02,2.309961318969726562e-01,1.915974140167236328e+00,6.915920173911709323e-01,0.000000000000000000e+00,1.000000000000000000e+00,1.120000000000000000e+02
0.000000000000000000e+00,0.000000000000000000e+00,1.000000000000000000e+00,0.000000000000000000e+00,6.380000000000000000e+02,4.360961914062500000e-01,1.865071058273315430e+00,4.403245208544673828e-01,0.000000000000000000e+00,0.000000000000000000e+00,1.120000000000000000e+02
1.000000000000000000e+00,0.000000000000000000e+00,0.000000000000000000e+00,0.000000000000000000e+00,6.370000000000000000e+02,2.578210830688476562e-01,1.749540805816650391e+00,5.065259034192448606e-01,0.000000000000000000e+00,0.000000000000000000e+00,1.120000000000000000e+02
0.000000000000000000e+00,1.000000000000000000e+00,0.000000000000000000e+00,0.000000000000000000e+00,6.370000000000000000e+02,9.676909446716308594e-02,5.803877115249633789e+00,5.938827662669360352e-01,-2.000000000000000000e+00,-2.000000000000000000e+00,1.120000000000000000e+02
1.000000000000000000e+00,0.000000000000000000e+00,0.000000000000000000e+00,0.000000000000000000e+00,6.360000000000000000e+02,1.400728225708007812e-01,1.423015117645263672e+00,3.006015170968608374e-01,0.000000000000000000e+00,0.000000000000000000e+00,1.120000000000000000e+02
0.000000000000000000e+00,0.000000000000000000e+00,1.000000000000000000e+00,0.000000000000000000e+00,6.350000000000000000e+02,3.287858963012695312e-01,1.734097003936767578e+00,4.013188513903310217e-01,0.000000000000000000e+00,0.000000000000000000e+00,1.120000000000000000e+02
1.000000000000000000e+00,1.000000000000000000e+00,1.000000000000000000e+00,1.000000000000000000e+00,6.350000000000000000e+02,6.064031124114990234e-01,2.164370059967041016e+00,5.655783807121178564e-01,0.000000000000000000e+00,0.000000000000000000e+00,1.120000000000000000e+02
1.000000000000000000e+00,0.000000000000000000e+00,0.000000000000000000e+00,0.000000000000000000e+00,6.340000000000000000e+02,5.208549499511718750e-01,2.144516944885253906e+00,6.269752582063932156e-01,0.000000000000000000e+00,1.000000000000000000e+00,1.110000000000000000e+02
1.000000000000000000e+00,1.000000000000000000e+00,1.000000000000000000e+00,2.000000000000000000e+00,6.350000000000000000e+02,2.296028137207031250e-01,1.758041143417358398e+00,5.349921962648537255e-01,0.000000000000000000e+00,1.000000000000000000e+00,1.120000000000000000e+02
1.000000000000000000e+00,0.000000000000000000e+00,0.000000000000000000e+00,0.000000000000000000e+00,6.350000000000000000e+02,2.694201469421386719e-02,5.656847953796386719e+00,5.088271889108177959e-01,-2.000000000000000000e+00,-2.000000000000000000e+00,1.120000000000000000e+02
1.000000000000000000e+00,0.000000000000000000e+00,0.000000000000000000e+00,0.000000000000000000e+00,6.340000000000000000e+02,2.311289310455322266e-01,1.880087137222290039e+00,6.554701854685351936e-01,0.000000000000000000e+00,0.000000000000000000e+00,1.120000000000000000e+02
0.000000000000000000e+00,0.000000000000000000e+00,1.000000000000000000e+00,0.000000000000000000e+00,6.330000000000000000e+02,2.986660003662109375e-01,1.895457029342651367e+00,6.010344523696171670e-01,0.000000000000000000e+00,1.000000000000000000e+00,1.110000000000000000e+02
1.000000000000000000e+00,0.000000000000000000e+00,0.000000000000000000e+00,0.000000000000000000e+00,6.320000000000000000e+02,5.620269775390625000e-01,2.129997968673706055e+00,5.811561759530488036e-01,0.000000000000000000e+00,0.000000000000000000e+00,1.110000000000000000e+02
0.000000000000000000e+00,1.000000000000000000e+00,0.000000000000000000e+00,0.000000000000000000e+00,6.320000000000000000e+02,2.818291902542114258e+00,4.568392992019653320e+00,7.328544216664327760e-01,-1.000000000000000000e+00,-1.000000000000000000e+00,1.120000000000000000e+02
1.000000000000000000e+00,1.000000000000000000e+00,1.000000000000000000e+00,0.000000000000000000e+00,6.320000000000000000e+02,1.287002801895141602e+00,2.782338142395019531e+00,4.656298093849995934e-01,-1.000000000000000000e+00,-1.000000000000000000e+00,1.110000000000000000e+02
0.000000000000000000e+00,1.000000000000000000e+00,0.000000000000000000e+00,1.000000000000000000e+00,6.320000000000000000e+02,5.640130043029785156e-01,2.005908966064453125e+00,4.383110029096561333e-01,0.000000000000000000e+00,1.000000000000000000e+00,1.120000000000000000e+02
1.000000000000000000e+00,1.000000000000000000e+00,1.000000000000000000e+00,3.000000000000000000e+00,6.340000000000000000e+02,3.651180267333984375e-01,2.109652042388916016e+00,7.477441386365104581e-01,0.000000000000000000e+00,0.000000000000000000e+00,1.120000000000000000e+02
1.000000000000000000e+00,1.000000000000000000e+00,1.000000000000000000e+00,2.000000000000000000e+00,6.350000000000000000e+02,4.071450233459472656e-01,1.689682006835937500e+00,3.046078762217628300e-01,0.000000000000000000e+00,0.000000000000000000e+00,1.120000000000000000e+02
1.000000000000000000e+00,0.000000000000000000e+00,0.000000000000000000e+00,0.000000000000000000e+00,6.340000000000000000e+02,3.700959682464599609e-01,1.755198001861572266e+00,3.931370826521312090e-01,0.000000000000000000e+00,0.000000000000000000e+00,1.120000000000000000e+02
0.000000000000000000e+00,0.000000000000000000e+00,1.000000000000000000e+00,0.000000000000000000e+00,6.330000000000000000e+02,1.241509914398193359e-01,1.475720167160034180e+00,3.688948733467663499e-01,0.000000000000000000e+00,0.000000000000000000e+00,1.120000000000000000e+02
1.000000000000000000e+00,0.000000000000000000e+00,0.000000000000000000e+00,0.000000000000000000e+00,6.320000000000000000e+02,8.429460525512695312e-01,2.276536941528320312e+00,4.454567356684031032e-01,1.000000000000000000e+00,0.000000000000000000e+00,1.120000000000000000e+02
0.000000000000000000e+00,0.000000000000000000e+00,1.000000000000000000e+00,0.000000000000000000e+00,6.310000000000000000e+02,3.103721141815185547e-01,1.637812137603759766e+00,3.500925832405895055e-01,0.000000000000000000e+00,0.000000000000000000e+00,1.120000000000000000e+02
1.000000000000000000e+00,1.000000000000000000e+00,1.000000000000000000e+00,4.000000000000000000e+00,6.340000000000000000e+02,5.424928665161132812e-01,1.784626960754394531e+00,2.515862994707410150e-01,0.000000000000000000e+00,0.000000000000000000e+00,1.120000000000000000e+02
1.000000000000000000e+00,0.000000000000000000e+00,0.000000000000000000e+00,0.000000000000000000e+00,6.330000000000000000e+02,1.831610202789306641e-01,1.535110950469970703e+00,3.533246090152533103e-01,0.000000000000000000e+00,1.000000000000000000e+00,1.110000000000000000e+02
0.000000000000000000e+00,1.000000000000000000e+00,0.000000000000000000e+00,3.000000000000000000e+00,6.350000000000000000e+02,2.037799358367919922e-01,1.712741136550903320e+00,5.159555945821854284e-01,0.000000000000000000e+00,0.000000000000000000e+00,1.110000000000000000e+02
0.000000000000000000e+00,1.000000000000000000e+00,0.000000000000000000e+00,2.000000000000000000e+00,6.360000000000000000e+02,1.583011150360107422e-01,1.718625068664550781e+00,5.679090741549988053e-01,0.000000000000000000e+00,0.000000000000000000e+00,1.110000000000000000e+02
1.000000000000000000e+00,1.000000000000000000e+00,1.000000000000000000e+00,1.000000000000000000e+00,6.360000000000000000e+02,4.776539802551269531e-01,1.740768909454345703e+00,2.757477728908570569e-01,0.000000000000000000e+00,0.000000000000000000e+00,1.110000000000000000e+02
0.000000000000000000e+00,1.000000000000000000e+00,0.000000000000000000e+00,0.000000000000000000e+00,6.360000000000000000e+02,1.764456033706665039e+00,3.163591146469116211e+00,3.726853018790616812e-01,-1.000000000000000000e+00,-1.000000000000000000e+00,1.120000000000000000e+02
1.000000000000000000e+00,1.000000000000000000e+00,1.000000000000000000e+00,0.000000000000000000e+00,6.360000000000000000e+02,1.707797050476074219e+00,3.253160953521728516e+00,5.258250778648300150e-01,-1.000000000000000000e+00,-1.000000000000000000e+00,1.110000000000000000e+02
0.000000000000000000e+00,1.000000000000000000e+00,0.000000000000000000e+00,2.000000000000000000e+00,6.370000000000000000e+02,6.248688697814941406e-01,2.071738004684448242e+00,4.643320673100219675e-01,0.000000000000000000e+00,1.000000000000000000e+00,1.120000000000000000e+02
1.000000000000000000e+00,1.000000000000000000e+00,1.000000000000000000e+00,0.000000000000000000e+00,6.370000000000000000e+02,1.624301195144653320e+00,3.200749158859252930e+00,5.651467874506244105e-01,-1.000000000000000000e+00,-1.000000000000000000e+00,1.110000000000000000e+02
1.000000000000000000e+00,0.000000000000000000e+00,0.000000000000000000e+00,0.000000000000000000e+00,6.360000000000000000e+02,2.483990192413330078e-01,1.764890909194946289e+00,5.301275003055643253e-01,0.000000000000000000e+00,1.000000000000000000e+00,1.120000000000000000e+02
0.000000000000000000e+00,0.000000000000000000e+00,1.000000000000000000e+00,0.000000000000000000e+00,6.350000000000000000e+02,2.709009647369384766e-01,1.880164146423339844e+00,6.269434832075422293e-01,0.000000000000000000e+00,1.000000000000000000e+00,1.110000000000000000e+02
1.000000000000000000e+00,1.000000000000000000e+00,1.000000000000000000e+00,1.000000000000000000e+00,6.350000000000000000e+02,3.876440525054931641e-01,2.008487939834594727e+00,6.355039765430487986e-01,0.000000000000000000e+00,1.000000000000000000e+00,1.120000000000000000e+02
0.000000000000000000e+00,1.000000000000000000e+00,0.000000000000000000e+00,0.000000000000000000e+00,6.350000000000000000e+02,3.417001008987426758e+00,5.196891069412231445e+00,7.491671401511601491e-01,-1.000000000000000000e+00,-1.000000000000000000e+00,1.120000000000000000e+02
1.000000000000000000e+00,0.000000000000000000e+00,0.000000000000000000e+00,0.000000000000000000e+00,6.340000000000000000e+02,2.041549682617187500e-01,1.600968122482299805e+00,4.005432965569672987e-01,0.000000000000000000e+00,0.000000000000000000e+00,1.120000000000000000e+02
0.000000000000000000e+00,1.000000000000000000e+00,0.000000000000000000e+00,2.000000000000000000e+00,6.350000000000000000e+02,5.033030509948730469e-01,1.772831916809082031e+00,2.735823287374075652e-01,0.000000000000000000e+00,0.000000000000000000e+00,1.120000000000000000e+02
0.000000000000000000e+00,0.000000000000000000e+00,1.000000000000000000e+00,0.000000000000000000e+00,6.340000000000000000e+02,2.907190322875976562e-01,1.825106143951416016e+00,5.484846647698546906e-01,0.000000000000000000e+00,0.000000000000000000e+00,1.120000000000000000e+02
0.000000000000000000e+00,1.000000000000000000e+00,0.000000000000000000e+00,3.000000000000000000e+00,6.360000000000000000e+02,1.010208129882812500e-01,1.557892799377441406e+00,4.731937932071840769e-01,0.000000000000000000e+00,0.000000000000000000e+00,1.120000000000000000e+02
0.000000000000000000e+00,1.000000000000000000e+00,0.000000000000000000e+00,2.000000000000000000e+00,6.370000000000000000e+02,2.614390850067138672e-01,1.813709974288940430e+00,5.535553905002053021e-01,0.000000000000000000e+00,0.000000000000000000e+00,1.120000000000000000e+02
0.000000000000000000e+00,0.000000000000000000e+00,1.000000000000000000e+00,0.000000000000000000e+00,6.360000000000000000e+02,3.228919506072998047e-01,1.733638048171997070e+00,4.207030972238716693e-01,0.000000000000000000e+00,1.000000000000000000e+00,1.110000000000000000e+02
1.000000000000000000e+00,0.000000000000000000e+00,0.000000000000000000e+00,0.000000000000000000e+00,6.350000000000000000e+02,3.636798858642578125e-01,1.825916051864624023e+00,4.633325685076900013e-01,0.000000000000000000e+00,0.000000000000000000e+00,1.110000000000000000e+02
0.000000000000000000e+00,0.000000000000000000e+00,1.000000000000000000e+00,0.000000000000000000e+00,6.340000000000000000e+02,1.939790248870849609e-01,1.735923051834106445e+00,5.658520736931844652e-01,0.000000000000000000e+00,1.000000000000000000e+00,1.120000000000000000e+02
0.000000000000000000e+00,1.000000000000000000e+00,0.000000000000000000e+00,0.000000000000000000e+00,6.340000000000000000e+02,9.881806373596191406e-02,5.782046079635620117e+00,5.481617098702168400e-01,-2.000000000000000000e+00,-2.000000000000000000e+00,1.120000000000000000e+02
1.000000000000000000e+00,0.000000000000000000e+00,0.000000000000000000e+00,0.000000000000000000e+00,6.330000000000000000e+02,2.555828094482421875e-01,1.746170997619628906e+00,5.111162043188217652e-01,0.000000000000000000e+00,0.000000000000000000e+00,1.120000000000000000e+02
1.000000000000000000e+00,0.000000000000000000e+00,0.000000000000000000e+00,0.000000000000000000e+00,6.320000000000000000e+02,3.086349964141845703e-01,1.875302791595458984e+00,5.864197543224480835e-01,1.000000000000000000e+00,1.000000000000000000e+00,1.110000000000000000e+02
1.000000000000000000e+00,1.000000000000000000e+00,1.000000000000000000e+00,2.000000000000000000e+00,6.330000000000000000e+02,3.023178577423095703e-01,1.877928972244262695e+00,5.811048608152766803e-01,0.000000000000000000e+00,1.000000000000000000e+00,1.120000000000000000e+02
1.000000000000000000e+00,1.000000000000000000e+00,1.000000000000000000e+00,0.000000000000000000e+00,6.330000000000000000e+02,1.412768125534057617e+00,3.012193918228149414e+00,5.934149452046975082e-01,-1.000000000000000000e+00,-1.000000000000000000e+00,1.110000000000000000e+02
1.000000000000000000e+00,0.000000000000000000e+00,0.000000000000000000e+00,0.000000000000000000e+00,6.320000000000000000e+02,2.902190685272216797e-01,1.869019031524658203e+00,5.958069370480236771e-01,0.000000000000000000e+00,1.000000000000000000e+00,1.120000000000000000e+02
0.000000000000000000e+00,0.000000000000000000e+00,1.000000000000000000e+00,0.000000000000000000e+00,6.310000000000000000e+02,3.695700168609619141e-01,1.711768150329589844e+00,3.579355582544845316e-01,0.000000000000000000e+00,1.000000000000000000e+00,1.110000000000000000e+02
0.000000000000000000e+00,1.000000000000000000e+00,0.000000000000000000e+00,3.000000000000000000e+00,6.330000000000000000e+02,4.029130935668945312e-01,1.818409919738769531e+00,4.263265076327465986e-01,0.000000000000000000e+00,1.000000000000000000e+00,1.120000000000000000e+02
0.000000000000000000e+00,0.000000000000000000e+00,1.000000000000000000e+00,0.000000000000000000e+00,6.320000000000000000e+02,3.113739490509033203e-01,1.896631002426147461e+00,5.895429182198982376e-01,0.000000000000000000e+00,0.000000000000000000e+00,1.120000000000000000e+02
0.000000000000000000e+00,0.000000000000000000e+00,1.000000000000000000e+00,0.000000000000000000e+00,6.310000000000000000e+02,3.354020118713378906e-01,1.702420949935913086e+00,3.755870931084889230e-01,0.000000000000000000e+00,1.000000000000000000e+00,1.110000000000000000e+02
1.000000000000000000e+00,1.000000000000000000e+00,1.000000000000000000e+00,4.000000000000000000e+00,6.340000000000000000e+02,3.494539260864257812e-01,1.695330858230590820e+00,3.543123699900976309e-01,0.000000000000000000e+00,1.000000000000000000e+00,1.120000000000000000e+02
1.000000000000000000e+00,1.000000000000000000e+00,1.000000000000000000e+00,3.000000000000000000e+00,6.360000000000000000e+02,3.545629978179931641e-01,1.932229995727539062e+00,5.864005072835722920e-01,0.000000000000000000e+00,1.000000000000000000e+00,1.110000000000000000e+02
1.000000000000000000e+00,1.000000000000000000e+00,1.000000000000000000e+00,0.000000000000000000e+00,6.360000000000000000e+02,1.007367134094238281e+00,2.712505102157592773e+00,6.821980391430240154e-01,-1.000000000000000000e+00,-1.000000000000000000e+00,1.110000000000000000e+02
1.000000000000000000e+00,1.000000000000000000e+00,1.000000000000000000e+00,3.000000000000000000e+00,6.380000000000000000e+02,1.173980236053466797e-01,1.843436002731323242e+00,7.257068815450478105e-01,0.000000000000000000e+00,0.000000000000000000e+00,1.110000000000000000e+02
1.000000000000000000e+00,0.000000000000000000e+00,0.000000000000000000e+00,0.000000000000000000e+00,6.370000000000000000e+02,5.234658718109130859e-01,2.012129068374633789e+00,5.047942110738750099e-01,0.000000000000000000e+00,0.000000000000000000e+00,1.110000000000000000e+02
1.000000000000000000e+00,1.000000000000000000e+00,1.000000000000000000e+00,0.000000000000000000e+00,6.370000000000000000e+02,7.488584518432617188e-02,5.720859050750732422e+00,5.258396297958676247e-01,-2.000000000000000000e+00,-2.000000000000000000e+00,1.120000000000000000e+02
0.000000000000000000e+00,1.000000000000000000e+00,0.000000000000000000e+00,4.000000000000000000e+00,6.400000000000000000e+02,3.863518238067626953e-01,1.871431112289428711e+00,4.974279035082342926e-01,0.000000000000000000e+00,1.000000000000000000e+00,1.110000000000000000e+02
0.000000000000000000e+00,0.000000000000000000e+00,1.000000000000000000e+00,0.000000000000000000e+00,6.390000000000000000e+02,4.677708148956298828e-01,1.933225870132446289e+00,4.807359937410303763e-01,0.000000000000000000e+00,0.000000000000000000e+00,1.110000000000000000e+02
1.000000000000000000e+00,0.000000000000000000e+00,0.000000000000000000e+00,0.000000000000000000e+00,6.380000000000000000e+02,3.475639820098876953e-01,1.674116134643554688e+00,3.383938600031100585e-01,0.000000000000000000e+00,0.000000000000000000e+00,1.110000000000000000e+02
0.000000000000000000e+00,0.000000000000000000e+00,1.000000000000000000e+00,0.000000000000000000e+00,6.370000000000000000e+02,3.942611217498779297e-01,1.988522052764892578e+00,6.100334638790323449e-01,0.000000000000000000e+00,1.000000000000000000e+00,1.120000000000000000e+02
1.000000000000000000e+00,0.000000000000000000e+00,0.000000000000000000e+00,0.000000000000000000e+00,6.360000000000000000e+02,1.870229244232177734e-01,1.826461076736450195e+00,6.532006947581270317e-01,0.000000000000000000e+00,0.000000000000000000e+00,1.120000000000000000e+02
0.000000000000000000e+00,1.000000000000000000e+00,0.000000000000000000e+00,2.000000000000000000e+00,6.370000000000000000e+02,2.507200241088867188e-01,1.521219015121459961e+00,2.748814707989369888e-01,0.000000000000000000e+00,1.000000000000000000e+00,1.110000000000000000e+02
1.000000000000000000e+00,1.000000000000000000e+00,1.000000000000000000e+00,2.000000000000000000e+00,6.380000000000000000e+02,4.839830398559570312e-01,2.107557058334350586e+00,6.321788534545014215e-01,0.000000000000000000e+00,0.000000000000000000e+00,1.110000000000000000e+02
0.000000000000000000e+00,0.000000000000000000e+00,1.000000000000000000e+00,0.000000000000000000e+00,6.370000000000000000e+02,4.025299549102783203e-01,1.968949079513549805e+00,5.678876294489658694e-01,0.000000000000000000e+00,0.000000000000000000e+00,1.110000000000000000e+02
1.000000000000000000e+00,1.000000000000000000e+00,1.000000000000000000e+00,4.000000000000000000e+00,6.400000000000000000e+02,2.328569889068603516e-01,1.540745973587036133e+00,3.089852837200579017e-01,0.000000000000000000e+00,0.000000000000000000e+00,1.110000000000000000e+02
1.000000000000000000e+00,1.000000000000000000e+00,1.000000000000000000e+00,0.000000000000000000e+00,6.400000000000000000e+02,1.377238035202026367e+00,2.927980899810791016e+00,5.368216016290352499e-01,-1.000000000000000000e+00,-1.000000000000000000e+00,1.110000000000000000e+02
0.000000000000000000e+00,0.000000000000000000e+00,1.000000000000000000e+00,0.000000000000000000e+00,6.390000000000000000e+02,3.314080238342285156e-01,2.008256912231445312e+00,6.783333570013284630e-01,0.000000000000000000e+00,0.000000000000000000e+00,1.110000000000000000e+02
1.000000000000000000e+00,1.000000000000000000e+00,1.000000000000000000e+00,3.000000000000000000e+00,6.410000000000000000e+02,2.254080772399902344e-01,1.734338998794555664e+00,5.296074050976486980e-01,0.000000000000000000e+00,1.000000000000000000e+00,1.120000000000000000e+02
1.000000000000000000e+00,0.000000000000000000e+00,0.000000000000000000e+00,0.000000000000000000e+00,6.400000000000000000e+02,5.961210727691650391e-01,1.863240003585815430e+00,2.764990277108597128e-01,0.000000000000000000e+00,0.000000000000000000e+00,1.120000000000000000e+02
1.000000000000000000e+00,0.000000000000000000e+00,0.000000000000000000e+00,0.000000000000000000e+00,6.390000000000000000e+02,6.425399780273437500e-01,2.265418052673339844e+00,6.416400653343803384e-01,1.000000000000000000e+00,0.000000000000000000e+00,1.120000000000000000e+02
0.000000000000000000e+00,1.000000000000000000e+00,0.000000000000000000e+00,3.000000000000000000e+00,6.410000000000000000e+02,2.636518478393554688e-01,1.619455099105834961e+00,3.614418063802521952e-01,0.000000000000000000e+00,0.000000000000000000e+00,1.120000000000000000e+02
1.000000000000000000e+00,0.000000000000000000e+00,0.000000000000000000e+00,0.000000000000000000e+00,6.400000000000000000e+02,4.323649406433105469e-01,1.969400882720947266e+00,5.473943543957926483e-01,0.000000000000000000e+00,1.000000000000000000e+00,1.110000000000000000e+02
1.000000000000000000e+00,0.000000000000000000e+00,0.000000000000000000e+00,0.000000000000000000e+00,6.390000000000000000e+02,2.877309322357177734e-01,1.724007844924926758e+00,4.549055155371153347e-01,0.000000000000000000e+00,1.000000000000000000e+00,1.120000000000000000e+02
1.000000000000000000e+00,0.000000000000000000e+00,0.000000000000000000e+00,0.000000000000000000e+00,6.380000000000000000e+02,3.784449100494384766e-01,1.734882116317749023e+00,3.566179305719184844e-01,0.000000000000000000e+00,1.000000000000000000e+00,1.110000000000000000e+02
1.000000000000000000e+00,1.000000000000000000e+00,1.000000000000000000e+00,0.000000000000000000e+00,6.380000000000000000e+02,1.005200862884521484e+00,2.518183946609497070e+00,4.914093233980372788e-01,-1.000000000000000000e+00,-1.000000000000000000e+00,1.120000000000000000e+02
0.000000000000000000e+00,1.000000000000000000e+00,0.000000000000000000e+00,2.000000000000000000e+00,6.390000000000000000e+02,4.045989513397216797e-01,2.110112190246582031e+00,7.180422268437480771e-01,0.000000000000000000e+00,1.000000000000000000e+00,1.110000000000000000e+02
0.000000000000000000e+00,0.000000000000000000e+00,1.000000000000000000e+00,0.000000000000000000e+00,6.380000000000000000e+02,1.659810543060302734e-01,1.704234838485717773e+00,5.392137848371212350e-01,0.000000000000000000e+00,0.000000000000000000e+00,1.110000000000000000e+02
0.000000000000000000e+00,1.000000000000000000e+00,0.000000000000000000e+00,0.000000000000000000e+00,6.380000000000000000e+02,3.082105159759521484e+00,4.660623073577880859e+00,5.500318537197608215e-01,-1.000000000000000000e+00,-1.000000000000000000e+00,1.110000000000000000e+02
1.000000000000000000e+00,0.000000000000000000e+00,0.000000000000000000e+00,0.000000000000000000e+00,6.370000000000000000e+02,1.986660957336425781e-01,1.765969038009643555e+00,5.660555908943141201e-01,0.000000000000000000e+00,0.000000000000000000e+00,1.110000000000000000e+02
0.000000000000000000e+00,0.000000000000000000e+00,1.000000000000000000e+00,0.000000000000000000e+00,6.360000000000000000e+02,2.090101242065429688e-01,1.736253023147583008e+00,5.357665287699655554e-01,0.000000000000000000e+00,1.000000000000000000e+00,1.120000000000000000e+02
1.000000000000000000e+00,0.000000000000000000e+00,0.000000000000000000e+00,0.000000000000000000e+00,6.350000000000000000e+02,5.518140792846679688e-01,2.060952901840209961e+00,5.134798206280746236e-01,0.000000000000000000e+00,1.000000000000000000e+00,1.110000000000000000e+02
1.000000000000000000e+00,0.000000000000000000e+00,0.000000000000000000e+00,0.000000000000000000e+00,6.340000000000000000e+02,1.997759342193603516e-01,1.728427886962890625e+00,5.419340029369170697e-01,0.000000000000000000e+00,1.000000000000000000e+00,1.120000000000000000e+02
0.000000000000000000e+00,1.000000000000000000e+00,0.000000000000000000e+00,4.000000000000000000e+00,6.370000000000000000e+02,1.875700950622558594e-01,1.713067054748535156e+00,5.384124312981251048e-01,0.000000000000000000e+00,1.000000000000000000e+00,1.110000000000000000e+02
1.000000000000000000e+00,0.000000000000000000e+00,0.000000000000000000e+00,0.000000000000000000e+00,6.360000000000000000e+02,4.799208641052246094e-01,1.961937904357910156e+00,4.838229085804901519e-01,0.000000000000000000e+00,0.000000000000000000e+00,1.110000000000000000e+02
0.000000000000000000e+00,1.000000000000000000e+00,0.000000000000000000e+00,2.000000000000000000e+00,6.370000000000000000e+02,4.463620185852050781e-01,1.980156898498535156e+00,5.306760792688314243e-01,0.000000000000000000e+00,1.000000000000000000e+00,1.120000000000000000e+02
0.000000000000000000e+00,1.000000000000000000e+00,0.000000000000000000e+00,3.000000000000000000e+00,6.390000000000000000e+02,6.837830543518066406e-01,2.000041007995605469e+00,3.309969923045138485e-01,0.000000000000000000e+00,0.000000000000000000e+00,1.120000000000000000e+02
0.000000000000000000e+00,0.000000000000000000e+00,1.000000000000000000e+00,0.000000000000000000e+00,6.380000000000000000e+02,4.447040557861328125e-01,1.873866081237792969e+00,4.381747963086154440e-01,0.000000000000000000e+00,1.000000000000000000e+00,1.110000000000000000e+02
1.000000000000000000e+00,1.000000000000000000e+00,1.000000000000000000e+00,0.000000000000000000e+00,6.380000000000000000e+02,1.135291099548339844e+00,2.899677991867065430e+00,7.376294017285192073e-01,-1.000000000000000000e+00,-1.000000000000000000e+00,1.110000000000000000e+02
1.000000000000000000e+00,1.000000000000000000e+00,1.000000000000000000e+00,4.000000000000000000e+00,6.410000000000000000e+02,3.106539249420166016e-01,1.822572946548461914e+00,5.271820154696686966e-01,0.000000000000000000e+00,0.000000000000000000e+00,1.110000000000000000e+02
1.000000000000000000e+00,0.000000000000000000e+00,0.000000000000000000e+00,0.000000000000000000e+00,6.400000000000000000e+02,6.990320682525634766e-01,2.096710920333862305e+00,4.074365112932542554e-01,0.000000000000000000e+00,0.000000000000000000e+00,1.110000000000000000e+02
0.000000000000000000e+00,0.000000000000000000e+00,1.000000000000000000e+00,0.000000000000000000e+00,6.390000000000000000e+02,3.110561370849609375e-01,1.598027944564819336e+00,3.056106462221932496e-01,0.000000000000000000e+00,1.000000000000000000e+00,1.120000000000000000e+02
1.000000000000000000e+00,0.000000000000000000e+00,0.000000000000000000e+00,0.000000000000000000e+00,6.380000000000000000e+02,2.290649414062500000e-01,1.669636011123657227e+00,4.418522776100781702e-01,0.000000000000000000e+00,0.000000000000000000e+00,1.120000000000000000e+02
0.000000000000000000e+00,0.000000000000000000e+00,1.000000000000000000e+00,0.000000000000000000e+00,6.370000000000000000e+02,2.253940105438232422e-01,1.583253145217895508e+00,3.752180884085808410e-01,0.000000000000000000e+00,1.000000000000000000e+00,1.110000000000000000e+02
1.000000000000000000e+00,0.000000000000000000e+00,0.000000000000000000e+00,0.000000000000000000e+00,6.360000000000000000e+02,6.382889747619628906e-01,2.270210027694702148e+00,6.452383585981820158e-01,0.000000000000000000e+00,0.000000000000000000e+00,1.110000000000000000e+02
0.000000000000000000e+00,0.000000000000000000e+00,1.000000000000000000e+00,0.000000000000000000e+00,6.350000000000000000e+02,1.856758594512939453e-01,1.780457973480224609e+00,6.091453135422857379e-01,0.000000000000000000e+00,0.000000000000000000e+00,1.110000000000000000e+02
1.000000000000000000e+00,1.000000000000000000e+00,1.000000000000000000e+00,3.000000000000000000e+00,6.370000000000000000e+02,2.324340343475341797e-01,1.973050832748413086e+00,7.487805749788087883e-01,0.000000000000000000e+00,0.000000000000000000e+00,1.110000000000000000e+02
1.000000000000000000e+00,0.000000000000000000e+00,0.000000000000000000e+00,0.000000000000000000e+00,6.360000000000000000e+02,2.110691070556640625e-01,1.678086042404174805e+00,4.772257192906372292e-01,0.000000000000000000e+00,1.000000000000000000e+00,1.120000000000000000e+02
0.000000000000000000e+00,0.000000000000000000e+00,1.000000000000000000e+00,0.000000000000000000e+00,6.350000000000000000e+02,3.805420398712158203e-01,1.631919145584106445e+00,2.594358811690543054e-01,1.000000000000000000e+00,0.000000000000000000e+00,1.120000000000000000e+02
1.000000000000000000e+00,1.000000000000000000e+00,1.000000000000000000e+00,3.000000000000000000e+00,6.370000000000000000e+02,3.261921405792236328e-01,1.785823106765747070e+00,4.784140797198000450e-01,0.000000000000000000e+00,0.000000000000000000e+00,1.120000000000000000e+02
1.000000000000000000e+00,0.000000000000000000e+00,0.000000000000000000e+00,0.000000000000000000e+00,6.360000000000000000e+02,2.429151535034179688e-01,1.513862848281860352e+00,2.925879132401268401e-01,0.000000000000000000e+00,1.000000000000000000e+00,1.110000000000000000e+02
0.000000000000000000e+00,1.000000000000000000e+00,0.000000000000000000e+00,4.000000000000000000e+00,6.390000000000000000e+02,2.982428073883056641e-01,1.660887956619262695e+00,3.700870751902360367e-01,0.000000000000000000e+00,0.000000000000000000e+00,1.110000000000000000e+02
0.000000000000000000e+00,0.000000000000000000e+00,1.000000000000000000e+00,0.000000000000000000e+00,6.380000000000000000e+02,3.425650596618652344e-01,1.937439918518066406e+00,6.073737522707349790e-01,0.000000000000000000e+00,1.000000000000000000e+00,1.120000000000000000e+02
1.000000000000000000e+00,1.000000000000000000e+00,1.000000000000000000e+00,0.000000000000000000e+00,6.370000000000000000e+02,4.672069549560546875e-01,1.892596960067749023e+00,4.335559324209236620e-01,0.000000000000000000e+00,0.000000000000000000e+00,1.120000000000000000e+02
0.000000000000000000e+00,0.000000000000000000e+00,1.000000000000000000e+00,0.000000000000000000e+00,6.360000000000000000e+02,2.605149745941162109e-01,1.638179063796997070e+00,3.885000472538540084e-01,0.000000000000000000e+00,0.000000000000000000e+00,1.120000000000000000e+02
1.000000000000000000e+00,0.000000000000000000e+00,0.000000000000000000e+00,0.000000000000000000e+00,6.350000000000000000e+02,4.033551216125488281e-01,2.119855880737304688e+00,7.247748653926056051e-01,0.000000000000000000e+00,1.000000000000000000e+00,1.110000000000000000e+02
0.000000000000000000e+00,1.000000000000000000e+00,0.000000000000000000e+00,2.000000000000000000e+00,6.360000000000000000e+02,1.174499988555908203e-01,1.462240934371948242e+00,3.541255719498617727e-01,0.000000000000000000e+00,1.000000000000000000e+00,1.120000000000000000e+02
0.000000000000000000e+00,0.000000000000000000e+00,1.000000000000000000e+00,0.000000000000000000e+00,6.350000000000000000e+02,1.087350845336914062e-01,1.361562013626098633e+00,2.658431537294335678e-01,0.000000000000000000e+00,0.000000000000000000e+00,1.120000000000000000e+02
1.000000000000000000e+00,1.000000000000000000e+00,1.000000000000000000e+00,3.000000000000000000e+00,6.370000000000000000e+02,3.984389305114746094e-01,1.852247953414916992e+00,4.512580819991962033e-01,0.000000000000000000e+00,0.000000000000000000e+00,1.120000000000000000e+02
1.000000000000000000e+00,0.000000000000000000e+00,0.000000000000000000e+00,0.000000000000000000e+00,6.360000000000000000e+02,2.845799922943115234e-01,1.692466974258422852e+00,4.105367266046208163e-01,0.000000000000000000e+00,0.000000000000000000e+00,1.120000000000000000e+02
1.000000000000000000e+00,1.000000000000000000e+00,1.000000000000000000e+00,2.000000000000000000e+00,6.370000000000000000e+02,3.322150707244873047e-01,2.024439811706542969e+00,7.014072276868967837e-01,0.000000000000000000e+00,0.000000000000000000e+00,1.120000000000000000e+02
0.000000000000000000e+00,0.000000000000000000e+00,1.000000000000000000e+00,0.000000000000000000e+00,6.360000000000000000e+02,2.659769058227539062e-01,1.741564035415649414e+00,4.766165665083694214e-01,0.000000000000000000e+00,0.000000000000000000e+00,1.120000000000000000e+02
1.000000000000000000e+00,0.000000000000000000e+00,0.000000000000000000e+00,0.000000000000000000e+00,6.350000000000000000e+02,5.386788845062255859e-01,1.850478887557983398e+00,3.273404622278436316e-01,0.000000000000000000e+00,1.000000000000000000e+00,1.110000000000000000e+02
1.000000000000000000e+00,0.000000000000000000e+00,0.000000000000000000e+00,0.000000000000000000e+00,6.340000000000000000e+02,5.758109092712402344e-01,1.931251049041748047e+00,3.752652390142062755e-01,0.000000000000000000e+00,0.000000000000000000e+00,1.110000000000000000e+02
0.000000000000000000e+00,0.000000000000000000e+00,1.000000000000000000e+00,0.000000000000000000e+00,6.330000000000000000e+02,2.625181674957275391e-01,1.980551958084106445e+00,7.221952992443458896e-01,0.000000000000000000e+00,0.000000000000000000e+00,1.110000000000000000e+02
1.000000000000000000e+00,0.000000000000000000e+00,0.000000000000000000e+00,0.000000000000000000e+00,6.320000000000000000e+02,1.803109645843505859e-01,1.771839141845703125e+00,5.942570669935129946e-01,0.000000000000000000e+00,1.000000000000000000e+00,1.120000000000000000e+02
0.000000000000000000e+00,0.000000000000000000e+00,1.000000000000000000e+00,0.000000000000000000e+00,6.310000000000000000e+02,6.256120204925537109e-01,2.064955949783325195e+00,4.594231002823103704e-01,0.000000000000000000e+00,0.000000000000000000e+00,1.120000000000000000e+02
1.000000000000000000e+00,0.000000000000000000e+00,0.000000000000000000e+00,0.000000000000000000e+00,6.300000000000000000e+02,3.560619354248046875e-01,1.598294973373413086e+00,2.579930926392223767e-01,0.000000000000000000e+00,0.000000000000000000e+00,1.120000000000000000e+02
0.000000000000000000e+00,1.000000000000000000e+00,0.000000000000000000e+00,3.000000000000000000e+00,6.320000000000000000e+02,6.310901641845703125e-01,2.094105005264282227e+00,4.686545712316215750e-01,0.000000000000000000e+00,0.000000000000000000e+00,1.120000000000000000e+02
1.000000000000000000e+00,1.000000000000000000e+00,1.000000000000000000e+00,3.000000000000000000e+00,6.340000000000000000e+02,3.601109981536865234e-01,1.663870811462402344e+00,3.160765338178117556e-01,0.000000000000000000e+00,0.000000000000000000e+00,1.120000000000000000e+02
1.000000000000000000e+00,1.000000000000000000e+00,1.000000000000000000e+00,4.000000000000000000e+00,6.370000000000000000e+02,7.015540599822998047e-01,2.433714866638183594e+00,7.327886369911369435e-01,0.000000000000000000e+00,1.000000000000000000e+00,1.110000000000000000e+02
1.000000000000000000e+00,1.000000000000000000e+00,1.000000000000000000e+00,0.000000000000000000e+00,6.360000000000000000e+02,2.703001499176025391e-01,1.785487174987792969e+00,5.185306777984834969e-01,0.000000000000000000e+00,0.000000000000000000e+00,1.110000000000000000e+02
0.000000000000000000e+00,1.000000000000000000e+00,0.000000000000000000e+00,0.000000000000000000e+00,6.360000000000000000e+02,2.560081958770751953e+00,4.256999015808105469e+00,6.755421429790251509e-01,-1.000000000000000000e+00,-1.000000000000000000e+00,1.110000000000000000e+02
1.000000000000000000e+00,0.000000000000000000e+00,0.000000000000000000e+00,0.000000000000000000e+00,6.350000000000000000e+02,2.241570949554443359e-01,1.489983081817626953e+00,2.826853744782297784e-01,1.000000000000000000e+00,0.000000000000000000e+00,1.110000000000000000e+02
1.000000000000000000e+00,0.000000000000000000e+00,0.000000000000000000e+00,0.000000000000000000e+00,6.340000000000000000e+02,6.322159767150878906e-01,2.054023027420043945e+00,4.199640013586386500e-01,0.000000000000000000e+00,0.000000000000000000e+00,1.110000000000000000e+02
0.000000000000000000e+00,1.000000000000000000e+00,0.000000000000000000e+00,1.000000000000000000e+00,6.340000000000000000e+02,3.863120079040527344e-01,1.944412946701049805e+00,5.643304170335217140e-01,0.000000000000000000e+00,0.000000000000000000e+00,1.110000000000000000e+02
0.000000000000000000e+00,0.000000000000000000e+00,1.000000000000000000e+00,0.000000000000000000e+00,6.330000000000000000e+02,4.870250225067138672e-01,1.755846977233886719e+00,2.871956577161504653e-01,0.000000000000000000e+00,0.000000000000000000e+00,1.110000000000000000e+02
1.000000000000000000e+00,0.000000000000000000e+00,0.000000000000000000e+00,0.000000000000000000e+00,6.320000000000000000e+02,3.405020236968994141e-01,1.606028079986572266e+00,2.766871378863354769e-01,0.000000000000000000e+00,0.000000000000000000e+00,1.110000000000000000e+02
1.000000000000000000e+00,1.000000000000000000e+00,1.000000000000000000e+00,2.000000000000000000e+00,6.330000000000000000e+02,6.234481334686279297e-01,2.116882085800170898e+00,5.100372561114518977e-01,0.000000000000000000e+00,1.000000000000000000e+00,1.120000000000000000e+02
0.000000000000000000e+00,1.000000000000000000e+00,0.000000000000000000e+00,3.000000000000000000e+00,6.350000000000000000e+02,3.209080696105957031e-01,1.877178907394409180e+00,5.705541994375120662e-01,0.000000000000000000e+00,0.000000000000000000e+00,1.120000000000000000e+02
1.000000000000000000e+00,1.000000000000000000e+00,1.000000000000000000e+00,3.000000000000000000e+00,6.370000000000000000e+02,3.215851783752441406e-01,2.036621093750000000e+00,7.237433739590617421e-01,0.000000000000000000e+00,0.000000000000000000e+00,1.120000000000000000e+02
1.000000000000000000e+00,1.000000000000000000e+00,1.000000000000000000e+00,1.000000000000000000e+00,6.370000000000000000e+02,2.344348430633544922e-01,1.783951997756958008e+00,5.579894579176021274e-01,0.000000000000000000e+00,1.000000000000000000e+00,1.110000000000000000e+02
1.000000000000000000e+00,1.000000000000000000e+00,1.000000000000000000e+00,1.000000000000000000e+00,6.370000000000000000e+02,1.000552177429199219e-01,1.525584220886230469e+00,4.337128984394884590e-01,0.000000000000000000e+00,0.000000000000000000e+00,1.110000000000000000e+02
0.000000000000000000e+00,1.000000000000000000e+00,0.000000000000000000e+00,3.000000000000000000e+00,6.390000000000000000e+02,2.904899120330810547e-01,1.638618946075439453e+00,3.558408027194430168e-01,0.000000000000000000e+00,0.000000000000000000e+00,1.110000000000000000e+02
1.000000000000000000e+00,1.000000000000000000e+00,1.000000000000000000e+00,2.000000000000000000e+00,6.400000000000000000e+02,7.165169715881347656e-01,2.125177145004272461e+00,4.143980941059648981e-01,0.000000000000000000e+00,1.000000000000000000e+00,1.120000000000000000e+02
1.000000000000000000e+00,0.000000000000000000e+00,0.000000000000000000e+00,0.000000000000000000e+00,6.390000000000000000e+02,3.069391250610351562e-01,1.878504037857055664e+00,5.927681107446606257e-01,0.000000000000000000e+00,0.000000000000000000e+00,1.120000000000000000e+02
0.000000000000000000e+00,0.000000000000000000e+00,1.000000000000000000e+00,0.000000000000000000e+00,6.380000000000000000e+02,2.726840972900390625e-01,1.805235862731933594e+00,5.480992570908758132e-01,0.000000000000000000e+00,0.000000000000000000e+00,1.120000000000000000e+02
1.000000000000000000e+00,0.000000000000000000e+00,0.000000000000000000e+00,0.000000000000000000e+00,6.370000000000000000e+02,3.076910972595214844e-01,1.926558971405029297e+00,6.415190003252084772e-01,0.000000000000000000e+00,1.000000000000000000e+00,1.110000000000000000e+02
0.000000000000000000e+00,0.000000000000000000e+00,1.000000000000000000e+00,0.000000000000000000e+00,6.360000000000000000e+02,3.044400215148925781e-01,1.961719989776611328e+00,6.697434533649784250e-01,0.000000000000000000e+00,0.000000000000000000e+00,1.110000000000000000e+02
1.000000000000000000e+00,0.000000000000000000e+00,0.000000000000000000e+00,0.000000000000000000e+00,6.350000000000000000e+02,4.378662109375000000e-01,1.725785017013549805e+00,2.960042480632622541e-01,0.000000000000000000e+00,0.000000000000000000e+00,1.110000000000000000e+02
1.000000000000000000e+00,0.000000000000000000e+00,0.000000000000000000e+00,0.000000000000000000e+00,6.340000000000000000e+02,8.032450675964355469e-01,2.511130094528198242e+00,7.234506019905833085e-01,0.000000000000000000e+00,0.000000000000000000e+00,1.110000000000000000e+02
0.000000000000000000e+00,1.000000000000000000e+00,0.000000000000000000e+00,5.000000000000000000e+00,6.380000000000000000e+02,3.806250095367431641e-01,1.948713064193725586e+00,5.723493109928738942e-01,0.000000000000000000e+00,1.000000000000000000e+00,1.120000000000000000e+02
0.000000000000000000e+00,1.000000000000000000e+00,0.000000000000000000e+00,1.000000000000000000e+00,6.380000000000000000e+02,2.137141227722167969e-01,1.575023889541625977e+00,3.643227655777134255e-01,0.000000000000000000e+00,1.000000000000000000e+00,1.110000000000000000e+02
1.000000000000000000e+00,0.000000000000000000e+00,0.000000000000000000e+00,0.000000000000000000e+00,6.370000000000000000e+02,2.190690040588378906e-01,1.646636009216308594e+00,4.443110224708526901e-01,0.000000000000000000e+00,1.000000000000000000e+00,1.120000000000000000e+02
0.000000000000000000e+00,1.000000000000000000e+00,0.000000000000000000e+00,4.000000000000000000e+00,6.400000000000000000e+02,1.938369274139404297e-01,1.899699211120605469e+00,7.271403500885493809e-01,1.000000000000000000e+00,1.000000000000000000e+00,1.110000000000000000e+02
1.000000000000000000e+00,1.000000000000000000e+00,1.000000000000000000e+00,3.000000000000000000e+00,6.420000000000000000e+02,2.442390918731689453e-01,1.735703945159912109e+00,5.131289281854864992e-01,0.000000000000000000e+00,0.000000000000000000e+00,1.110000000000000000e+02
0.000000000000000000e+00,1.000000000000000000e+00,0.000000000000000000e+00,2.000000000000000000e+00,6.430000000000000000e+02,2.099740505218505859e-01,1.808165073394775391e+00,6.212550599581057043e-01,0.000000000000000000e+00,0.000000000000000000e+00,1.110000000000000000e+02
1.000000000000000000e+00,1.000000000000000000e+00,1.000000000000000000e+00,1.000000000000000000e+00,6.430000000000000000e+02,3.231570720672607422e-01,1.652818918228149414e+00,3.411090437708428347e-01,0.000000000000000000e+00,0.000000000000000000e+00,1.110000000000000000e+02
0.000000000000000000e+00,1.000000000000000000e+00,0.000000000000000000e+00,0.000000000000000000e+00,6.430000000000000000e+02,1.230311393737792969e-02,5.727012157440185547e+00,6.013715105631451951e-01,-2.000000000000000000e+00,-2.000000000000000000e+00,1.110000000000000000e+02
1.000000000000000000e+00,0.000000000000000000e+00,0.000000000000000000e+00,0.000000000000000000e+00,6.420000000000000000e+02,2.201709747314453125e-01,1.763968944549560547e+00,5.488417888357837171e-01,0.000000000000000000e+00,0.000000000000000000e+00,1.110000000000000000e+02
0.000000000000000000e+00,1.000000000000000000e+00,0.000000000000000000e+00,3.000000000000000000e+00,6.440000000000000000e+02,1.705789566040039062e-01,1.771878004074096680e+00,6.040713737745426748e-01,0.000000000000000000e+00,1.000000000000000000e+00,1.120000000000000000e+02
0.000000000000000000e+00,0.000000000000000000e+00,1.000000000000000000e+00,0.000000000000000000e+00,6.430000000000000000e+02,2.980008125305175781e-01,1.762856006622314453e+00,4.670709235708634388e-01,0.000000000000000000e+00,0.000000000000000000e+00,1.120000000000000000e+02
0.000000000000000000e+00,0.000000000000000000e+00,1.000000000000000000e+00,0.000000000000000000e+00,6.430000000000000000e+02,1.345515251159667969e-02,5.709950923919677734e+00,5.771785651019905039e-01,-2.000000000000000000e+00,-2.000000000000000000e+00,1.110000000000000000e+02
1.000000000000000000e+00,0.000000000000000000e+00,0.000000000000000000e+00,0.000000000000000000e+00,6.420000000000000000e+02,3.917651176452636719e-01,2.055181026458740234e+00,6.823441469998035025e-01,0.000000000000000000e+00,1.000000000000000000e+00,1.120000000000000000e+02
0.000000000000000000e+00,0.000000000000000000e+00,1.000000000000000000e+00,0.000000000000000000e+00,6.410000000000000000e+02,4.427280426025390625e-01,1.799925088882446289e+00,3.661298890242726811e-01,0.000000000000000000e+00,1.000000000000000000e+00,1.110000000000000000e+02
1.000000000000000000e+00,0.000000000000000000e+00,0.000000000000000000e+00,0.000000000000000000e+00,6.400000000000000000e+02,4.521458148956298828e-01,1.978967905044555664e+00,5.282165318575412494e-01,0.000000000000000000e+00,1.000000000000000000e+00,1.120000000000000000e+02
1.000000000000000000e+00,1.000000000000000000e+00,1.000000000000000000e+00,3.000000000000000000e+00,6.420000000000000000e+02,3.115170001983642578e-01,1.955901145935058594e+00,6.673527130252937534e-01,0.000000000000000000e+00,1.000000000000000000e+00,1.110000000000000000e+02
1.000000000000000000e+00,0.000000000000000000e+00,0.000000000000000000e+00,0.000000000000000000e+00,6.410000000000000000e+02,3.659038543701171875e-01,2.095268011093139648e+00,7.293258310480992268e-01,0.000000000000000000e+00,1.000000000000000000e+00,1.120000000000000000e+02
1.000000000000000000e+00,1.000000000000000000e+00,1.000000000000000000e+00,0.000000000000000000e+00,6.410000000000000000e+02,9.266400337219238281e-02,5.836209058761596680e+00,6.325500584805285875e-01,-2.000000000000000000e+00,-2.000000000000000000e+00,1.110000000000000000e+02
1.000000000000000000e+00,0.000000000000000000e+00,0.000000000000000000e+00,0.000000000000000000e+00,6.410000000000000000e+02,3.557515144348144531e-02,5.548889875411987305e+00,3.819064424917368861e-01,-2.000000000000000000e+00,-2.000000000000000000e+00,1.120000000000000000e+02
0.000000000000000000e+00,0.000000000000000000e+00,1.000000000000000000e+00,0.000000000000000000e+00,6.410000000000000000e+02,1.115705966949462891e+00,2.629670143127441406e+00,4.949027473100092167e-01,-1.000000000000000000e+00,-1.000000000000000000e+00,1.110000000000000000e+02
0.000000000000000000e+00,1.000000000000000000e+00,0.000000000000000000e+00,0.000000000000000000e+00,6.410000000000000000e+02,1.034092903137207031e-02,5.750478982925415039e+00,6.287627746447392862e-01,-2.000000000000000000e+00,-2.000000000000000000e+00,1.120000000000000000e+02
1.000000000000000000e+00,1.000000000000000000e+00,1.000000000000000000e+00,0.000000000000000000e+00,6.400000000000000000e+02,2.408130168914794922e-01,1.497548103332519531e+00,2.767882358254110109e-01,0.000000000000000000e+00,1.000000000000000000e+00,1.110000000000000000e+02
0.000000000000000000e+00,0.000000000000000000e+00,1.000000000000000000e+00,0.000000000000000000e+00,6.390000000000000000e+02,2.837061882019042969e-01,1.803941011428833008e+00,5.305231124326101888e-01,0.000000000000000000e+00,0.000000000000000000e+00,1.110000000000000000e+02
1.000000000000000000e+00,0.000000000000000000e+00,0.000000000000000000e+00,0.000000000000000000e+00,6.380000000000000000e+02,3.697710037231445312e-01,1.793756961822509766e+00,4.411148767371350088e-01,0.000000000000000000e+00,1.000000000000000000e+00,1.120000000000000000e+02
1.000000000000000000e+00,1.000000000000000000e+00,1.000000000000000000e+00,3.000000000000000000e+00,6.400000000000000000e+02,5.798158645629882812e-01,2.268602132797241211e+00,6.928854941194966255e-01,0.000000000000000000e+00,0.000000000000000000e+00,1.120000000000000000e+02
1.000000000000000000e+00,1.000000000000000000e+00,1.000000000000000000e+00,2.000000000000000000e+00,6.410000000000000000e+02,3.022549152374267578e-01,1.915094852447509766e+00,6.247795370202834375e-01,0.000000000000000000e+00,1.000000000000000000e+00,1.110000000000000000e+02
1.000000000000000000e+00,0.000000000000000000e+00,0.000000000000000000e+00,0.000000000000000000e+00,6.400000000000000000e+02,2.816619873046875000e-01,1.643341779708862305e+00,3.684703374035199208e-01,0.000000000000000000e+00,0.000000000000000000e+00,1.110000000000000000e+02
0.000000000000000000e+00,0.000000000000000000e+00,1.000000000000000000e+00,0.000000000000000000e+00,6.390000000000000000e+02,2.968180179595947266e-01,1.614162921905517578e+00,3.160765170253518885e-01,0.000000000000000000e+00,1.000000000000000000e+00,1.120000000000000000e+02
1.000000000000000000e+00,1.000000000000000000e+00,1.000000000000000000e+00,3.000000000000000000e+00,6.410000000000000000e+02,3.140900135040283203e-01,1.976654052734375000e+00,6.591220800361450305e-01,0.000000000000000000e+00,1.000000000000000000e+00,1.110000000000000000e+02
1.000000000000000000e+00,0.000000000000000000e+00,0.000000000000000000e+00,0.000000000000000000e+00,6.400000000000000000e+02,3.225071430206298828e-01,1.967610120773315430e+00,6.601808150623582616e-01,0.000000000000000000e+00,1.000000000000000000e+00,1.120000000000000000e+02
0.000000000000000000e+00,0.000000000000000000e+00,1.000000000000000000e+00,0.000000000000000000e+00,6.390000000000000000e+02,2.729310989379882812e-01,1.949245929718017578e+00,6.927682408262643143e-01,0.000000000000000000e+00,1.000000000000000000e+00,1.110000000000000000e+02
1.000000000000000000e+00,0.000000000000000000e+00,0.000000000000000000e+00,0.000000000000000000e+00,6.380000000000000000e+02,4.070019721984863281e-01,2.111286163330078125e+00,7.208574426440332861e-01,0.000000000000000000e+00,1.000000000000000000e+00,1.120000000000000000e+02
0.000000000000000000e+00,1.000000000000000000e+00,0.000000000000000000e+00,2.000000000000000000e+00,6.390000000000000000e+02,8.866350650787353516e-01,7.152859148979187012e+02,3.521569663047469101e-01,1.000000000000000000e+00,0.000000000000000000e+00,1.120000000000000000e+02
1.000000000000000000e+00,0.000000000000000000e+00,0.000000000000000000e+00,0.000000000000000000e+00,6.380000000000000000e+02,2.274949550628662109e-01,1.796514034271240234e+00,5.818239952224792955e-01,0.000000000000000000e+00,1.000000000000000000e+00,1.110000000000000000e+02
0.000000000000000000e+00,0.000000000000000000e+00,1.000000000000000000e+00,0.000000000000000000e+00,6.370000000000000000e+02,1.025788784027099609e-01,1.521851062774658203e+00,4.039153571270491239e-01,0.000000000000000000e+00,0.000000000000000000e+00,1.110000000000000000e+02
0.000000000000000000e+00,1.000000000000000000e+00,0.000000000000000000e+00,1.000000000000000000e+00,6.370000000000000000e+02,2.860250473022460938e-01,1.811033010482788086e+00,5.315506422891669303e-01,0.000000000000000000e+00,0.000000000000000000e+00,1.110000000000000000e+02
1.000000000000000000e+00,0.000000000000000000e+00,0.000000000000000000e+00,0.000000000000000000e+00,6.360000000000000000e+02,3.090019226074218750e-01,1.991220951080322266e+00,7.059877983447688798e-01,0.000000000000000000e+00,1.000000000000000000e+00,1.120000000000000000e+02
0.000000000000000000e+00,0.000000000000000000e+00,1.000000000000000000e+00,0.000000000000000000e+00,6.350000000000000000e+02,2.211160659790039062e-01,1.691852807998657227e+00,4.814971309264399757e-01,0.000000000000000000e+00,1.000000000000000000e+00,1.110000000000000000e+02
1.000000000000000000e+00,0.000000000000000000e+00,0.000000000000000000e+00,0.000000000000000000e+00,6.340000000000000000e+02,2.288398742675781250e-01,1.693161010742187500e+00,4.913717412424159492e-01,0.000000000000000000e+00,1.000000000000000000e+00,1.120000000000000000e+02
0.000000000000000000e+00,1.000000000000000000e+00,0.000000000000000000e+00,0.000000000000000000e+00,6.340000000000000000e+02,3.088212013244628906e-02,5.568887948989868164e+00,4.271772353595277294e-01,-2.000000000000000000e+00,-2.000000000000000000e+00,1.120000000000000000e+02
0.000000000000000000e+00,1.000000000000000000e+00,0.000000000000000000e+00,3.000000000000000000e+00,6.360000000000000000e+02,2.384362220764160156e-01,1.730262994766235352e+00,5.074805022663673171e-01,0.000000000000000000e+00,0.000000000000000000e+00,1.120000000000000000e+02
0.000000000000000000e+00,0.000000000000000000e+00,1.000000000000000000e+00,0.000000000000000000e+00,6.350000000000000000e+02,2.591350078582763672e-01,1.739213943481445312e+00,4.967518735238938832e-01,0.000000000000000000e+00,1.000000000000000000e+00,1.110000000000000000e+02
0.000000000000000000e+00,1.000000000000000000e+00,0.000000000000000000e+00,4.000000000000000000e+00,6.380000000000000000e+02,3.457980155944824219e-01,1.895226001739501953e+00,5.586590764358745353e-01,0.000000000000000000e+00,0.000000000000000000e+00,1.110000000000000000e+02
1.000000000000000000e+00,0.000000000000000000e+00,0.000000000000000000e+00,0.000000000000000000e+00,6.370000000000000000e+02,2.329080104827880859e-01,1.897176980972290039e+00,6.724591592014979025e-01,0.000000000000000000e+00,1.000000000000000000e+00,1.120000000000000000e+02
0.000000000000000000e+00,0.000000000000000000e+00,1.000000000000000000e+00,0.000000000000000000e+00,6.370000000000000000e+02,6.539821624755859375e-04,5.697331905364990234e+00,5.701295120904130709e-01,-2.000000000000000000e+00,-2.000000000000000000e+00,1.110000000000000000e+02
1.000000000000000000e+00,0.000000000000000000e+00,0.000000000000000000e+00,0.000000000000000000e+00,6.360000000000000000e+02,2.332549095153808594e-01,1.815400123596191406e+00,5.855723904638290289e-01,0.000000000000000000e+00,1.000000000000000000e+00,1.120000000000000000e+02
0.000000000000000000e+00,0.000000000000000000e+00,1.000000000000000000e+00,0.000000000000000000e+00,6.350000000000000000e+02,2.296080589294433594e-01,1.848498106002807617e+00,6.174721682520120103e-01,0.000000000000000000e+00,1.000000000000000000e+00,1.110000000000000000e+02
1.000000000000000000e+00,0.000000000000000000e+00,0.000000000000000000e+00,0.000000000000000000e+00,6.340000000000000000e+02,4.587311744689941406e-01,2.157230854034423828e+00,7.080055205116350114e-01,0.000000000000000000e+00,1.000000000000000000e+00,1.120000000000000000e+02
0.000000000000000000e+00,0.000000000000000000e+00,1.000000000000000000e+00,0.000000000000000000e+00,6.330000000000000000e+02,2.957839965820312500e-01,1.850638866424560547e+00,5.589148190720940601e-01,0.000000000000000000e+00,1.000000000000000000e+00,1.110000000000000000e+02
1.000000000000000000e+00,0.000000000000000000e+00,0.000000000000000000e+00,0.000000000000000000e+00,6.320000000000000000e+02,4.518108367919921875e-01,1.716471195220947266e+00,2.757427125773116439e-01,0.000000000000000000e+00,1.000000000000000000e+00,1.120000000000000000e+02
1.000000000000000000e+00,1.000000000000000000e+00,1.000000000000000000e+00,4.000000000000000000e+00,6.350000000000000000e+02,4.411840438842773438e-01,1.806715011596679688e+00,3.824294856271157617e-01,0.000000000000000000e+00,1.000000000000000000e+00,1.110000000000000000e+02
0.000000000000000000e+00,1.000000000000000000e+00,0.000000000000000000e+00,3.000000000000000000e+00,6.370000000000000000e+02,2.927238941192626953e-01,1.812836885452270508e+00,5.118662683215939868e-01,0.000000000000000000e+00,1.000000000000000000e+00,1.120000000000000000e+02
0.000000000000000000e+00,1.000000000000000000e+00,0.000000000000000000e+00,3.000000000000000000e+00,6.390000000000000000e+02,5.245401859283447266e-01,1.764177083969116211e+00,2.597186774458186131e-01,0.000000000000000000e+00,0.000000000000000000e+00,1.120000000000000000e+02
1.000000000000000000e+00,1.000000000000000000e+00,1.000000000000000000e+00,1.000000000000000000e+00,6.390000000000000000e+02,7.849118709564208984e-01,2.449873924255371094e+00,6.759257783879583092e-01,0.000000000000000000e+00,0.000000000000000000e+00,1.120000000000000000e+02
0.000000000000000000e+00,0.000000000000000000e+00,1.000000000000000000e+00,0.000000000000000000e+00,6.380000000000000000e+02,4.610359668731689453e-01,1.885609865188598633e+00,4.452025583009961984e-01,0.000000000000000000e+00,1.000000000000000000e+00,1.110000000000000000e+02
1.000000000000000000e+00,1.000000000000000000e+00,1.000000000000000000e+00,4.000000000000000000e+00,6.410000000000000000e+02,4.187870025634765625e-01,2.139063119888305664e+00,7.340619054315202785e-01,0.000000000000000000e+00,1.000000000000000000e+00,1.120000000000000000e+02
0.000000000000000000e+00,0.000000000000000000e+00,1.000000000000000000e+00,0.000000000000000000e+00,6.400000000000000000e+02,3.268709182739257812e-01,1.698714017868041992e+00,3.832086752829057530e-01,0.000000000000000000e+00,1.000000000000000000e+00,1.110000000000000000e+02
1.000000000000000000e+00,0.000000000000000000e+00,0.000000000000000000e+00,0.000000000000000000e+00,6.400000000000000000e+02,1.009942054748535156e+00,2.394989967346191406e+00,3.616531390327920592e-01,-1.000000000000000000e+00,-1.000000000000000000e+00,1.110000000000000000e+02
0.000000000000000000e+00,1.000000000000000000e+00,0.000000000000000000e+00,4.000000000000000000e+00,6.430000000000000000e+02,3.858628273010253906e-01,1.735450029373168945e+00,3.638284156060123675e-01,0.000000000000000000e+00,0.000000000000000000e+00,1.110000000000000000e+02
0.000000000000000000e+00,0.000000000000000000e+00,1.000000000000000000e+00,0.000000000000000000e+00,6.420000000000000000e+02,1.764409542083740234e-01,1.784794092178344727e+00,6.317585229361786237e-01,0.000000000000000000e+00,1.000000000000000000e+00,1.120000000000000000e+02
0.000000000000000000e+00,0.000000000000000000e+00,1.000000000000000000e+00,0.000000000000000000e+00,6.410000000000000000e+02,1.661238670349121094e-01,1.694410085678100586e+00,5.429724859404483350e-01,0.000000000000000000e+00,1.000000000000000000e+00,1.110000000000000000e+02
