choice, accuracy, solution,  reward, cumulative_reward, rt,  total_trial_time, iti, cp_with_slow_fast, obs_cp_with_slow_fast, high_val_cue
1.000000000000000000e+00,0.000000000000000000e+00,0.000000000000000000e+00,0.000000000000000000e+00,5.990000000000000000e+02,7.739598751068115234e-01,2.036288976669311523e+00,2.715195382352081355e-01,0.000000000000000000e+00,0.000000000000000000e+00,1.120000000000000000e+02
1.000000000000000000e+00,1.000000000000000000e+00,1.000000000000000000e+00,3.000000000000000000e+00,6.010000000000000000e+02,2.588038444519042969e-01,1.964457035064697266e+00,7.189085659549041551e-01,0.000000000000000000e+00,0.000000000000000000e+00,1.120000000000000000e+02
1.000000000000000000e+00,0.000000000000000000e+00,0.000000000000000000e+00,0.000000000000000000e+00,6.000000000000000000e+02,2.611238956451416016e-01,1.568728923797607422e+00,3.214177283398307883e-01,0.000000000000000000e+00,1.000000000000000000e+00,1.110000000000000000e+02
0.000000000000000000e+00,0.000000000000000000e+00,1.000000000000000000e+00,0.000000000000000000e+00,5.990000000000000000e+02,2.225358486175537109e-01,1.679121017456054688e+00,4.671279653743852234e-01,0.000000000000000000e+00,1.000000000000000000e+00,1.120000000000000000e+02
1.000000000000000000e+00,1.000000000000000000e+00,1.000000000000000000e+00,0.000000000000000000e+00,5.990000000000000000e+02,4.823279380798339844e-02,5.679579973220825195e+00,4.968260168199636340e-01,-2.000000000000000000e+00,-2.000000000000000000e+00,1.110000000000000000e+02
1.000000000000000000e+00,0.000000000000000000e+00,0.000000000000000000e+00,0.000000000000000000e+00,5.980000000000000000e+02,2.866699695587158203e-01,1.523904085159301758e+00,2.543143764401018525e-01,0.000000000000000000e+00,1.000000000000000000e+00,1.120000000000000000e+02
0.000000000000000000e+00,1.000000000000000000e+00,0.000000000000000000e+00,3.000000000000000000e+00,6.000000000000000000e+02,3.252999782562255859e-01,1.765393972396850586e+00,4.529456559379524405e-01,0.000000000000000000e+00,0.000000000000000000e+00,1.120000000000000000e+02
0.000000000000000000e+00,1.000000000000000000e+00,0.000000000000000000e+00,2.000000000000000000e+00,6.010000000000000000e+02,2.647299766540527344e-01,1.807161092758178711e+00,5.434184305915406021e-01,0.000000000000000000e+00,1.000000000000000000e+00,1.110000000000000000e+02
0.000000000000000000e+00,0.000000000000000000e+00,1.000000000000000000e+00,0.000000000000000000e+00,6.000000000000000000e+02,2.468638420104980469e-01,1.543566942214965820e+00,3.039567802946972486e-01,0.000000000000000000e+00,1.000000000000000000e+00,1.120000000000000000e+02
1.000000000000000000e+00,1.000000000000000000e+00,1.000000000000000000e+00,2.000000000000000000e+00,6.010000000000000000e+02,2.478141784667968750e-01,1.511253118515014648e+00,2.653195716772655532e-01,0.000000000000000000e+00,1.000000000000000000e+00,1.110000000000000000e+02
1.000000000000000000e+00,1.000000000000000000e+00,1.000000000000000000e+00,1.000000000000000000e+00,6.010000000000000000e+02,2.768161296844482422e-01,1.635905981063842773e+00,3.844896617220454060e-01,0.000000000000000000e+00,0.000000000000000000e+00,1.110000000000000000e+02
1.000000000000000000e+00,0.000000000000000000e+00,0.000000000000000000e+00,0.000000000000000000e+00,6.000000000000000000e+02,2.948639392852783203e-01,1.745132923126220703e+00,4.629366563464723527e-01,0.000000000000000000e+00,1.000000000000000000e+00,1.120000000000000000e+02
1.000000000000000000e+00,0.000000000000000000e+00,0.000000000000000000e+00,0.000000000000000000e+00,5.990000000000000000e+02,2.696700096130371094e-01,1.791072845458984375e+00,5.373227298974645461e-01,0.000000000000000000e+00,0.000000000000000000e+00,1.120000000000000000e+02
0.000000000000000000e+00,0.000000000000000000e+00,1.000000000000000000e+00,0.000000000000000000e+00,5.980000000000000000e+02,2.517621517181396484e-01,1.612993001937866211e+00,3.672232386424665873e-01,0.000000000000000000e+00,1.000000000000000000e+00,1.110000000000000000e+02
0.000000000000000000e+00,1.000000000000000000e+00,0.000000000000000000e+00,2.000000000000000000e+00,5.990000000000000000e+02,2.271349430084228516e-01,1.800825834274291992e+00,5.845701423151421494e-01,1.000000000000000000e+00,0.000000000000000000e+00,1.110000000000000000e+02
0.000000000000000000e+00,0.000000000000000000e+00,1.000000000000000000e+00,0.000000000000000000e+00,5.980000000000000000e+02,2.071108818054199219e-01,1.801095008850097656e+00,6.023941866074404849e-01,0.000000000000000000e+00,0.000000000000000000e+00,1.110000000000000000e+02
1.000000000000000000e+00,0.000000000000000000e+00,0.000000000000000000e+00,0.000000000000000000e+00,5.970000000000000000e+02,2.282061576843261719e-01,1.571926116943359375e+00,3.413185039509781249e-01,0.000000000000000000e+00,0.000000000000000000e+00,1.110000000000000000e+02
1.000000000000000000e+00,1.000000000000000000e+00,1.000000000000000000e+00,2.000000000000000000e+00,5.980000000000000000e+02,2.465860843658447266e-01,1.899616956710815430e+00,6.573281606611822703e-01,0.000000000000000000e+00,0.000000000000000000e+00,1.110000000000000000e+02
1.000000000000000000e+00,1.000000000000000000e+00,1.000000000000000000e+00,2.000000000000000000e+00,5.990000000000000000e+02,2.396769523620605469e-01,1.842674016952514648e+00,6.167740023824470619e-01,0.000000000000000000e+00,0.000000000000000000e+00,1.110000000000000000e+02
1.000000000000000000e+00,1.000000000000000000e+00,1.000000000000000000e+00,3.000000000000000000e+00,6.010000000000000000e+02,2.577490806579589844e-01,1.591904163360595703e+00,3.423714110009151712e-01,0.000000000000000000e+00,0.000000000000000000e+00,1.110000000000000000e+02
1.000000000000000000e+00,1.000000000000000000e+00,1.000000000000000000e+00,1.000000000000000000e+00,6.010000000000000000e+02,4.154851436614990234e-01,1.904590845108032227e+00,4.968598801350384564e-01,0.000000000000000000e+00,1.000000000000000000e+00,1.120000000000000000e+02
0.000000000000000000e+00,0.000000000000000000e+00,1.000000000000000000e+00,0.000000000000000000e+00,6.000000000000000000e+02,3.865640163421630859e-01,1.637463808059692383e+00,2.679756454561550427e-01,0.000000000000000000e+00,1.000000000000000000e+00,1.110000000000000000e+02
0.000000000000000000e+00,1.000000000000000000e+00,0.000000000000000000e+00,1.000000000000000000e+00,6.000000000000000000e+02,4.246098995208740234e-01,2.133571863174438477e+00,7.178195714691419926e-01,0.000000000000000000e+00,0.000000000000000000e+00,1.110000000000000000e+02
0.000000000000000000e+00,0.000000000000000000e+00,1.000000000000000000e+00,0.000000000000000000e+00,5.990000000000000000e+02,1.994230747222900391e-01,1.846546173095703125e+00,6.478660934895474899e-01,0.000000000000000000e+00,0.000000000000000000e+00,1.110000000000000000e+02
1.000000000000000000e+00,1.000000000000000000e+00,1.000000000000000000e+00,1.000000000000000000e+00,5.990000000000000000e+02,2.871401309967041016e-01,1.688519001007080078e+00,4.200348358381298941e-01,0.000000000000000000e+00,1.000000000000000000e+00,1.120000000000000000e+02
0.000000000000000000e+00,0.000000000000000000e+00,1.000000000000000000e+00,0.000000000000000000e+00,5.980000000000000000e+02,6.751689910888671875e-01,2.221847057342529297e+00,5.584542793695586038e-01,0.000000000000000000e+00,0.000000000000000000e+00,1.120000000000000000e+02
1.000000000000000000e+00,0.000000000000000000e+00,0.000000000000000000e+00,0.000000000000000000e+00,5.970000000000000000e+02,2.815430164337158203e-01,1.831905841827392578e+00,5.571050721225804248e-01,0.000000000000000000e+00,1.000000000000000000e+00,1.110000000000000000e+02
0.000000000000000000e+00,1.000000000000000000e+00,0.000000000000000000e+00,3.000000000000000000e+00,5.990000000000000000e+02,5.603079795837402344e-01,1.871685981750488281e+00,3.291019571400288779e-01,1.000000000000000000e+00,1.000000000000000000e+00,1.120000000000000000e+02
1.000000000000000000e+00,1.000000000000000000e+00,1.000000000000000000e+00,2.000000000000000000e+00,6.000000000000000000e+02,4.257068634033203125e-01,1.665076017379760742e+00,2.609565396232447210e-01,0.000000000000000000e+00,0.000000000000000000e+00,1.120000000000000000e+02
0.000000000000000000e+00,0.000000000000000000e+00,1.000000000000000000e+00,0.000000000000000000e+00,5.990000000000000000e+02,4.231150150299072266e-01,1.772072076797485352e+00,3.663119158424947286e-01,0.000000000000000000e+00,0.000000000000000000e+00,1.120000000000000000e+02
1.000000000000000000e+00,0.000000000000000000e+00,0.000000000000000000e+00,0.000000000000000000e+00,5.980000000000000000e+02,5.918028354644775391e-01,1.868738174438476562e+00,2.852391510042853739e-01,0.000000000000000000e+00,0.000000000000000000e+00,1.120000000000000000e+02
0.000000000000000000e+00,1.000000000000000000e+00,0.000000000000000000e+00,4.000000000000000000e+00,6.010000000000000000e+02,2.792088985443115234e-01,1.885861873626708984e+00,6.041873033970273088e-01,0.000000000000000000e+00,0.000000000000000000e+00,1.120000000000000000e+02
0.000000000000000000e+00,1.000000000000000000e+00,0.000000000000000000e+00,1.000000000000000000e+00,6.010000000000000000e+02,2.679610252380371094e-01,1.831445932388305664e+00,5.690585157800552851e-01,0.000000000000000000e+00,0.000000000000000000e+00,1.120000000000000000e+02
0.000000000000000000e+00,1.000000000000000000e+00,0.000000000000000000e+00,3.000000000000000000e+00,6.030000000000000000e+02,4.397280216217041016e-01,2.152058124542236328e+00,7.210374173616377336e-01,0.000000000000000000e+00,1.000000000000000000e+00,1.110000000000000000e+02
0.000000000000000000e+00,1.000000000000000000e+00,0.000000000000000000e+00,0.000000000000000000e+00,6.030000000000000000e+02,6.824016571044921875e-03,5.480195999145507812e+00,3.518243963322885692e-01,-2.000000000000000000e+00,-2.000000000000000000e+00,1.120000000000000000e+02
0.000000000000000000e+00,0.000000000000000000e+00,1.000000000000000000e+00,0.000000000000000000e+00,6.030000000000000000e+02,1.800549030303955078e+00,3.548789024353027344e+00,7.169986139885664578e-01,-1.000000000000000000e+00,-1.000000000000000000e+00,1.110000000000000000e+02
0.000000000000000000e+00,1.000000000000000000e+00,0.000000000000000000e+00,2.000000000000000000e+00,6.040000000000000000e+02,8.957340717315673828e-01,2.435599803924560547e+00,5.362481850239148029e-01,0.000000000000000000e+00,1.000000000000000000e+00,1.120000000000000000e+02
0.000000000000000000e+00,1.000000000000000000e+00,0.000000000000000000e+00,3.000000000000000000e+00,6.060000000000000000e+02,5.594689846038818359e-01,2.224273920059204102e+00,6.770979559053433849e-01,0.000000000000000000e+00,0.000000000000000000e+00,1.120000000000000000e+02
0.000000000000000000e+00,0.000000000000000000e+00,1.000000000000000000e+00,0.000000000000000000e+00,6.050000000000000000e+02,3.578550815582275391e-01,2.055487871170043945e+00,7.159568973556121874e-01,0.000000000000000000e+00,0.000000000000000000e+00,1.120000000000000000e+02
1.000000000000000000e+00,0.000000000000000000e+00,0.000000000000000000e+00,0.000000000000000000e+00,6.040000000000000000e+02,2.683081626892089844e-01,1.622684001922607422e+00,3.557812642798566793e-01,0.000000000000000000e+00,0.000000000000000000e+00,1.120000000000000000e+02
0.000000000000000000e+00,0.000000000000000000e+00,1.000000000000000000e+00,0.000000000000000000e+00,6.030000000000000000e+02,3.368511199951171875e-01,1.888648986816406250e+00,5.609768186493337971e-01,0.000000000000000000e+00,0.000000000000000000e+00,1.120000000000000000e+02
1.000000000000000000e+00,0.000000000000000000e+00,0.000000000000000000e+00,0.000000000000000000e+00,6.020000000000000000e+02,3.483669757843017578e-01,1.836608886718750000e+00,4.977129237590371957e-01,0.000000000000000000e+00,0.000000000000000000e+00,1.120000000000000000e+02
1.000000000000000000e+00,0.000000000000000000e+00,0.000000000000000000e+00,0.000000000000000000e+00,6.010000000000000000e+02,2.641379833221435547e-01,1.681631088256835938e+00,4.294309157399237575e-01,0.000000000000000000e+00,0.000000000000000000e+00,1.120000000000000000e+02
0.000000000000000000e+00,1.000000000000000000e+00,0.000000000000000000e+00,4.000000000000000000e+00,6.040000000000000000e+02,3.868918418884277344e-01,1.932806015014648438e+00,5.622241015368245609e-01,0.000000000000000000e+00,0.000000000000000000e+00,1.120000000000000000e+02
0.000000000000000000e+00,1.000000000000000000e+00,0.000000000000000000e+00,3.000000000000000000e+00,6.060000000000000000e+02,3.017058372497558594e-01,1.822893142700195312e+00,5.352005763826804818e-01,0.000000000000000000e+00,0.000000000000000000e+00,1.120000000000000000e+02
1.000000000000000000e+00,0.000000000000000000e+00,0.000000000000000000e+00,0.000000000000000000e+00,6.050000000000000000e+02,3.003220558166503906e-01,1.714860916137695312e+00,4.169253440461517246e-01,0.000000000000000000e+00,0.000000000000000000e+00,1.120000000000000000e+02
1.000000000000000000e+00,0.000000000000000000e+00,0.000000000000000000e+00,0.000000000000000000e+00,6.040000000000000000e+02,3.647761344909667969e-01,1.876485109329223633e+00,5.100674314723978586e-01,0.000000000000000000e+00,0.000000000000000000e+00,1.120000000000000000e+02
1.000000000000000000e+00,0.000000000000000000e+00,0.000000000000000000e+00,0.000000000000000000e+00,6.030000000000000000e+02,2.420551776885986328e-01,1.806679964065551758e+00,5.834049361032112024e-01,1.000000000000000000e+00,0.000000000000000000e+00,1.120000000000000000e+02
1.000000000000000000e+00,1.000000000000000000e+00,1.000000000000000000e+00,1.000000000000000000e+00,6.030000000000000000e+02,3.216037750244140625e-01,1.965698003768920898e+00,6.491210271556919764e-01,0.000000000000000000e+00,1.000000000000000000e+00,1.110000000000000000e+02
1.000000000000000000e+00,1.000000000000000000e+00,1.000000000000000000e+00,1.000000000000000000e+00,6.030000000000000000e+02,3.189349174499511719e-01,1.764849185943603516e+00,4.475522863435569820e-01,0.000000000000000000e+00,1.000000000000000000e+00,1.120000000000000000e+02
0.000000000000000000e+00,0.000000000000000000e+00,1.000000000000000000e+00,0.000000000000000000e+00,6.020000000000000000e+02,3.259758949279785156e-01,1.874558925628662109e+00,5.720410061113863076e-01,0.000000000000000000e+00,1.000000000000000000e+00,1.110000000000000000e+02
1.000000000000000000e+00,1.000000000000000000e+00,1.000000000000000000e+00,1.000000000000000000e+00,6.020000000000000000e+02,2.997400760650634766e-01,1.645900964736938477e+00,3.516181392238915682e-01,0.000000000000000000e+00,0.000000000000000000e+00,1.110000000000000000e+02
0.000000000000000000e+00,0.000000000000000000e+00,1.000000000000000000e+00,0.000000000000000000e+00,6.010000000000000000e+02,2.867441177368164062e-01,2.029627799987792969e+00,7.475293228817773139e-01,0.000000000000000000e+00,0.000000000000000000e+00,1.110000000000000000e+02
1.000000000000000000e+00,0.000000000000000000e+00,0.000000000000000000e+00,0.000000000000000000e+00,6.000000000000000000e+02,2.431490421295166016e-01,1.509540081024169922e+00,2.910107745917200894e-01,0.000000000000000000e+00,0.000000000000000000e+00,1.110000000000000000e+02
1.000000000000000000e+00,0.000000000000000000e+00,0.000000000000000000e+00,0.000000000000000000e+00,5.990000000000000000e+02,3.315677642822265625e-01,1.974956989288330078e+00,6.489893133804266467e-01,0.000000000000000000e+00,0.000000000000000000e+00,1.110000000000000000e+02
1.000000000000000000e+00,0.000000000000000000e+00,0.000000000000000000e+00,0.000000000000000000e+00,5.980000000000000000e+02,2.863330841064453125e-01,1.905783176422119141e+00,6.214919291547085223e-01,0.000000000000000000e+00,0.000000000000000000e+00,1.110000000000000000e+02
0.000000000000000000e+00,1.000000000000000000e+00,0.000000000000000000e+00,3.000000000000000000e+00,6.000000000000000000e+02,3.153560161590576172e-01,1.622338056564331055e+00,3.109005142218485562e-01,0.000000000000000000e+00,0.000000000000000000e+00,1.110000000000000000e+02
0.000000000000000000e+00,1.000000000000000000e+00,0.000000000000000000e+00,2.000000000000000000e+00,6.010000000000000000e+02,3.677659034729003906e-01,1.707482814788818359e+00,3.517510826257109757e-01,0.000000000000000000e+00,0.000000000000000000e+00,1.110000000000000000e+02
1.000000000000000000e+00,1.000000000000000000e+00,1.000000000000000000e+00,2.000000000000000000e+00,6.020000000000000000e+02,3.731441497802734375e-01,1.705358982086181641e+00,3.405077938421927075e-01,0.000000000000000000e+00,1.000000000000000000e+00,1.120000000000000000e+02
1.000000000000000000e+00,1.000000000000000000e+00,1.000000000000000000e+00,3.000000000000000000e+00,6.040000000000000000e+02,3.142740726470947266e-01,1.683255910873413086e+00,3.738185371488373931e-01,0.000000000000000000e+00,1.000000000000000000e+00,1.110000000000000000e+02
1.000000000000000000e+00,0.000000000000000000e+00,0.000000000000000000e+00,0.000000000000000000e+00,6.030000000000000000e+02,3.559489250183105469e-01,1.600704193115234375e+00,2.580140742459390846e-01,0.000000000000000000e+00,0.000000000000000000e+00,1.110000000000000000e+02
0.000000000000000000e+00,1.000000000000000000e+00,0.000000000000000000e+00,2.000000000000000000e+00,6.040000000000000000e+02,3.200159072875976562e-01,2.015142917633056641e+00,7.061003606393794207e-01,0.000000000000000000e+00,0.000000000000000000e+00,1.110000000000000000e+02
0.000000000000000000e+00,0.000000000000000000e+00,1.000000000000000000e+00,0.000000000000000000e+00,6.030000000000000000e+02,2.474009990692138672e-01,1.960555076599121094e+00,7.167240015867013536e-01,0.000000000000000000e+00,0.000000000000000000e+00,1.110000000000000000e+02
1.000000000000000000e+00,0.000000000000000000e+00,0.000000000000000000e+00,0.000000000000000000e+00,6.020000000000000000e+02,2.888240814208984375e-01,1.737491130828857422e+00,4.545455375177199775e-01,0.000000000000000000e+00,0.000000000000000000e+00,1.110000000000000000e+02
1.000000000000000000e+00,0.000000000000000000e+00,0.000000000000000000e+00,0.000000000000000000e+00,6.010000000000000000e+02,7.704861164093017578e-01,2.138494014739990234e+00,3.765506217715345327e-01,1.000000000000000000e+00,1.000000000000000000e+00,1.120000000000000000e+02
0.000000000000000000e+00,0.000000000000000000e+00,1.000000000000000000e+00,0.000000000000000000e+00,6.000000000000000000e+02,3.682830333709716797e-01,2.067533016204833984e+00,7.105118010374661397e-01,0.000000000000000000e+00,0.000000000000000000e+00,1.120000000000000000e+02
1.000000000000000000e+00,0.000000000000000000e+00,0.000000000000000000e+00,0.000000000000000000e+00,5.990000000000000000e+02,2.657079696655273438e-01,1.565296888351440430e+00,3.095895041000356618e-01,0.000000000000000000e+00,0.000000000000000000e+00,1.120000000000000000e+02
0.000000000000000000e+00,1.000000000000000000e+00,0.000000000000000000e+00,3.000000000000000000e+00,6.010000000000000000e+02,5.440070629119873047e-01,1.832219123840332031e+00,2.918998715011752454e-01,0.000000000000000000e+00,1.000000000000000000e+00,1.110000000000000000e+02
0.000000000000000000e+00,1.000000000000000000e+00,0.000000000000000000e+00,4.000000000000000000e+00,6.040000000000000000e+02,2.687549591064453125e-01,1.656245946884155273e+00,3.981004003538572977e-01,0.000000000000000000e+00,0.000000000000000000e+00,1.110000000000000000e+02
0.000000000000000000e+00,0.000000000000000000e+00,1.000000000000000000e+00,0.000000000000000000e+00,6.030000000000000000e+02,2.447681427001953125e-01,1.944892168045043945e+00,7.094184591271401885e-01,0.000000000000000000e+00,1.000000000000000000e+00,1.120000000000000000e+02
1.000000000000000000e+00,1.000000000000000000e+00,1.000000000000000000e+00,1.000000000000000000e+00,6.030000000000000000e+02,2.338459491729736328e-01,1.697932958602905273e+00,4.743220349652763068e-01,0.000000000000000000e+00,0.000000000000000000e+00,1.120000000000000000e+02
1.000000000000000000e+00,0.000000000000000000e+00,0.000000000000000000e+00,0.000000000000000000e+00,6.020000000000000000e+02,2.329449653625488281e-01,1.851955175399780273e+00,6.262073199653153122e-01,0.000000000000000000e+00,0.000000000000000000e+00,1.120000000000000000e+02
1.000000000000000000e+00,1.000000000000000000e+00,1.000000000000000000e+00,3.000000000000000000e+00,6.040000000000000000e+02,2.079579830169677734e-01,1.602684020996093750e+00,4.124754311582774502e-01,0.000000000000000000e+00,0.000000000000000000e+00,1.120000000000000000e+02
1.000000000000000000e+00,0.000000000000000000e+00,0.000000000000000000e+00,0.000000000000000000e+00,6.030000000000000000e+02,2.410769462585449219e-01,1.873296022415161133e+00,6.522753808818013699e-01,0.000000000000000000e+00,0.000000000000000000e+00,1.120000000000000000e+02
0.000000000000000000e+00,0.000000000000000000e+00,1.000000000000000000e+00,0.000000000000000000e+00,6.020000000000000000e+02,2.338030338287353516e-01,1.719383955001831055e+00,4.885457319413434862e-01,0.000000000000000000e+00,0.000000000000000000e+00,1.120000000000000000e+02
0.000000000000000000e+00,0.000000000000000000e+00,1.000000000000000000e+00,0.000000000000000000e+00,6.010000000000000000e+02,2.851397991180419922e-01,1.908794164657592773e+00,6.306233767815674351e-01,0.000000000000000000e+00,0.000000000000000000e+00,1.120000000000000000e+02
0.000000000000000000e+00,0.000000000000000000e+00,1.000000000000000000e+00,0.000000000000000000e+00,6.000000000000000000e+02,2.992789745330810547e-01,1.656988859176635742e+00,3.712613423078354735e-01,0.000000000000000000e+00,0.000000000000000000e+00,1.120000000000000000e+02
0.000000000000000000e+00,0.000000000000000000e+00,1.000000000000000000e+00,0.000000000000000000e+00,5.990000000000000000e+02,2.836530208587646484e-01,1.932559967041015625e+00,6.536098607433996621e-01,0.000000000000000000e+00,0.000000000000000000e+00,1.120000000000000000e+02
0.000000000000000000e+00,1.000000000000000000e+00,0.000000000000000000e+00,5.000000000000000000e+00,6.030000000000000000e+02,2.594549655914306641e-01,1.820091009140014648e+00,5.738968029856390540e-01,0.000000000000000000e+00,0.000000000000000000e+00,1.120000000000000000e+02
1.000000000000000000e+00,1.000000000000000000e+00,1.000000000000000000e+00,5.000000000000000000e+00,6.070000000000000000e+02,3.168120384216308594e-01,1.722042083740234375e+00,4.128257422471018345e-01,0.000000000000000000e+00,1.000000000000000000e+00,1.110000000000000000e+02
1.000000000000000000e+00,1.000000000000000000e+00,1.000000000000000000e+00,2.000000000000000000e+00,6.080000000000000000e+02,2.671771049499511719e-01,1.551931858062744141e+00,2.982528430266941921e-01,0.000000000000000000e+00,0.000000000000000000e+00,1.110000000000000000e+02
0.000000000000000000e+00,1.000000000000000000e+00,0.000000000000000000e+00,3.000000000000000000e+00,6.100000000000000000e+02,2.642018795013427734e-01,1.892803907394409180e+00,6.407830802048668506e-01,0.000000000000000000e+00,1.000000000000000000e+00,1.120000000000000000e+02
0.000000000000000000e+00,0.000000000000000000e+00,1.000000000000000000e+00,0.000000000000000000e+00,6.090000000000000000e+02,2.892749309539794922e-01,1.729944944381713867e+00,4.543070945885242518e-01,0.000000000000000000e+00,0.000000000000000000e+00,1.120000000000000000e+02
1.000000000000000000e+00,0.000000000000000000e+00,0.000000000000000000e+00,0.000000000000000000e+00,6.080000000000000000e+02,3.769700527191162109e-01,2.089035987854003906e+00,7.264825620334200984e-01,1.000000000000000000e+00,1.000000000000000000e+00,1.110000000000000000e+02
0.000000000000000000e+00,0.000000000000000000e+00,1.000000000000000000e+00,0.000000000000000000e+00,6.070000000000000000e+02,2.887721061706542969e-01,1.659230947494506836e+00,3.861612241303018500e-01,0.000000000000000000e+00,0.000000000000000000e+00,1.110000000000000000e+02
1.000000000000000000e+00,0.000000000000000000e+00,0.000000000000000000e+00,0.000000000000000000e+00,6.060000000000000000e+02,2.670989036560058594e-01,1.628133058547973633e+00,3.643311919078417449e-01,0.000000000000000000e+00,0.000000000000000000e+00,1.110000000000000000e+02
1.000000000000000000e+00,1.000000000000000000e+00,1.000000000000000000e+00,2.000000000000000000e+00,6.070000000000000000e+02,2.475872039794921875e-01,1.957628011703491211e+00,7.216840220606042244e-01,0.000000000000000000e+00,0.000000000000000000e+00,1.110000000000000000e+02
1.000000000000000000e+00,0.000000000000000000e+00,0.000000000000000000e+00,0.000000000000000000e+00,6.060000000000000000e+02,2.219920158386230469e-01,1.934753179550170898e+00,7.231757281132664694e-01,0.000000000000000000e+00,0.000000000000000000e+00,1.110000000000000000e+02
0.000000000000000000e+00,0.000000000000000000e+00,1.000000000000000000e+00,0.000000000000000000e+00,6.060000000000000000e+02,4.769206047058105469e-02,5.425023078918457031e+00,2.655532639323525679e-01,-2.000000000000000000e+00,-2.000000000000000000e+00,1.110000000000000000e+02
0.000000000000000000e+00,0.000000000000000000e+00,1.000000000000000000e+00,0.000000000000000000e+00,6.050000000000000000e+02,2.782630920410156250e-01,1.551254034042358398e+00,3.001788170765791186e-01,0.000000000000000000e+00,0.000000000000000000e+00,1.110000000000000000e+02
1.000000000000000000e+00,1.000000000000000000e+00,1.000000000000000000e+00,4.000000000000000000e+00,6.080000000000000000e+02,2.875680923461914062e-01,1.832384824752807617e+00,5.490239035151565083e-01,0.000000000000000000e+00,0.000000000000000000e+00,1.110000000000000000e+02
1.000000000000000000e+00,1.000000000000000000e+00,1.000000000000000000e+00,3.000000000000000000e+00,6.100000000000000000e+02,2.674038410186767578e-01,1.701402187347412109e+00,4.339593625933794718e-01,0.000000000000000000e+00,0.000000000000000000e+00,1.110000000000000000e+02
0.000000000000000000e+00,0.000000000000000000e+00,1.000000000000000000e+00,0.000000000000000000e+00,6.090000000000000000e+02,3.024058341979980469e-01,1.689301013946533203e+00,3.900716026593620267e-01,0.000000000000000000e+00,0.000000000000000000e+00,1.110000000000000000e+02
1.000000000000000000e+00,0.000000000000000000e+00,0.000000000000000000e+00,0.000000000000000000e+00,6.080000000000000000e+02,2.871358394622802734e-01,1.880934000015258789e+00,6.041712686705851265e-01,0.000000000000000000e+00,0.000000000000000000e+00,1.110000000000000000e+02
1.000000000000000000e+00,0.000000000000000000e+00,0.000000000000000000e+00,0.000000000000000000e+00,6.070000000000000000e+02,2.318909168243408203e-01,1.895504951477050781e+00,6.663758849444345600e-01,0.000000000000000000e+00,0.000000000000000000e+00,1.110000000000000000e+02
0.000000000000000000e+00,1.000000000000000000e+00,0.000000000000000000e+00,4.000000000000000000e+00,6.100000000000000000e+02,3.049759864807128906e-01,1.575987100601196289e+00,2.761201782124938497e-01,0.000000000000000000e+00,0.000000000000000000e+00,1.110000000000000000e+02
0.000000000000000000e+00,0.000000000000000000e+00,1.000000000000000000e+00,0.000000000000000000e+00,6.090000000000000000e+02,3.463480472564697266e-01,1.719931125640869141e+00,3.793646831833846211e-01,1.000000000000000000e+00,1.000000000000000000e+00,1.120000000000000000e+02
0.000000000000000000e+00,1.000000000000000000e+00,0.000000000000000000e+00,2.000000000000000000e+00,6.100000000000000000e+02,3.237009048461914062e-01,2.039887905120849609e+00,7.356401981889713060e-01,0.000000000000000000e+00,0.000000000000000000e+00,1.120000000000000000e+02
0.000000000000000000e+00,1.000000000000000000e+00,0.000000000000000000e+00,3.000000000000000000e+00,6.120000000000000000e+02,2.088041305541992188e-01,1.782356023788452148e+00,5.848863366561111166e-01,0.000000000000000000e+00,0.000000000000000000e+00,1.120000000000000000e+02
1.000000000000000000e+00,0.000000000000000000e+00,0.000000000000000000e+00,0.000000000000000000e+00,6.110000000000000000e+02,2.215380668640136719e-01,1.852632045745849609e+00,6.375419930169208271e-01,0.000000000000000000e+00,0.000000000000000000e+00,1.120000000000000000e+02
1.000000000000000000e+00,0.000000000000000000e+00,0.000000000000000000e+00,0.000000000000000000e+00,6.100000000000000000e+02,3.535759449005126953e-01,1.690288066864013672e+00,3.448665323774910973e-01,0.000000000000000000e+00,0.000000000000000000e+00,1.120000000000000000e+02
1.000000000000000000e+00,0.000000000000000000e+00,0.000000000000000000e+00,0.000000000000000000e+00,6.090000000000000000e+02,5.113108158111572266e-01,1.898905038833618164e+00,4.104516826584045375e-01,0.000000000000000000e+00,0.000000000000000000e+00,1.120000000000000000e+02
0.000000000000000000e+00,0.000000000000000000e+00,1.000000000000000000e+00,0.000000000000000000e+00,6.080000000000000000e+02,3.403799533843994141e-01,2.001000881195068359e+00,6.779015446371705611e-01,0.000000000000000000e+00,1.000000000000000000e+00,1.110000000000000000e+02
1.000000000000000000e+00,1.000000000000000000e+00,1.000000000000000000e+00,0.000000000000000000e+00,6.070000000000000000e+02,2.334539890289306641e-01,1.890763044357299805e+00,6.687751736617488785e-01,0.000000000000000000e+00,1.000000000000000000e+00,1.120000000000000000e+02
0.000000000000000000e+00,1.000000000000000000e+00,0.000000000000000000e+00,3.000000000000000000e+00,6.090000000000000000e+02,2.585167884826660156e-01,1.545955896377563477e+00,2.984982140184632149e-01,0.000000000000000000e+00,0.000000000000000000e+00,1.120000000000000000e+02
0.000000000000000000e+00,0.000000000000000000e+00,1.000000000000000000e+00,0.000000000000000000e+00,6.080000000000000000e+02,4.272339344024658203e-01,1.798276185989379883e+00,3.967353370697085935e-01,0.000000000000000000e+00,0.000000000000000000e+00,1.120000000000000000e+02
1.000000000000000000e+00,0.000000000000000000e+00,0.000000000000000000e+00,0.000000000000000000e+00,6.070000000000000000e+02,3.883199691772460938e-01,2.116456985473632812e+00,7.462459067748034025e-01,0.000000000000000000e+00,0.000000000000000000e+00,1.120000000000000000e+02
0.000000000000000000e+00,0.000000000000000000e+00,1.000000000000000000e+00,0.000000000000000000e+00,6.060000000000000000e+02,2.337081432342529297e-01,1.724992990493774414e+00,5.048739210580945880e-01,0.000000000000000000e+00,0.000000000000000000e+00,1.120000000000000000e+02
1.000000000000000000e+00,0.000000000000000000e+00,0.000000000000000000e+00,0.000000000000000000e+00,6.050000000000000000e+02,3.233439922332763672e-01,1.674061059951782227e+00,3.624783686112764136e-01,0.000000000000000000e+00,1.000000000000000000e+00,1.110000000000000000e+02
0.000000000000000000e+00,0.000000000000000000e+00,1.000000000000000000e+00,0.000000000000000000e+00,6.040000000000000000e+02,2.548489570617675781e-01,1.544931888580322266e+00,3.075571002343956972e-01,0.000000000000000000e+00,1.000000000000000000e+00,1.120000000000000000e+02
1.000000000000000000e+00,1.000000000000000000e+00,1.000000000000000000e+00,1.000000000000000000e+00,6.040000000000000000e+02,2.999010086059570312e-01,1.749397993087768555e+00,4.568469018816770366e-01,0.000000000000000000e+00,0.000000000000000000e+00,1.120000000000000000e+02
0.000000000000000000e+00,0.000000000000000000e+00,1.000000000000000000e+00,0.000000000000000000e+00,6.030000000000000000e+02,2.869739532470703125e-01,2.017597198486328125e+00,7.408805006462162446e-01,0.000000000000000000e+00,1.000000000000000000e+00,1.110000000000000000e+02
1.000000000000000000e+00,1.000000000000000000e+00,1.000000000000000000e+00,3.000000000000000000e+00,6.050000000000000000e+02,2.573909759521484375e-01,1.591706991195678711e+00,3.497424592419485778e-01,0.000000000000000000e+00,1.000000000000000000e+00,1.120000000000000000e+02
0.000000000000000000e+00,1.000000000000000000e+00,0.000000000000000000e+00,0.000000000000000000e+00,6.040000000000000000e+02,3.334150314331054688e-01,1.763773918151855469e+00,4.301689538696504278e-01,0.000000000000000000e+00,1.000000000000000000e+00,1.110000000000000000e+02
0.000000000000000000e+00,0.000000000000000000e+00,1.000000000000000000e+00,0.000000000000000000e+00,6.030000000000000000e+02,2.724089622497558594e-01,1.900561094284057617e+00,6.472564856073912409e-01,0.000000000000000000e+00,1.000000000000000000e+00,1.120000000000000000e+02
0.000000000000000000e+00,0.000000000000000000e+00,1.000000000000000000e+00,0.000000000000000000e+00,6.020000000000000000e+02,2.506890296936035156e-01,1.860948085784912109e+00,6.249670643111471247e-01,0.000000000000000000e+00,0.000000000000000000e+00,1.120000000000000000e+02
0.000000000000000000e+00,1.000000000000000000e+00,0.000000000000000000e+00,2.000000000000000000e+00,6.030000000000000000e+02,1.949279308319091797e-01,1.828321933746337891e+00,6.366393036524803373e-01,0.000000000000000000e+00,0.000000000000000000e+00,1.120000000000000000e+02
0.000000000000000000e+00,1.000000000000000000e+00,0.000000000000000000e+00,3.000000000000000000e+00,6.050000000000000000e+02,2.146739959716796875e-01,1.917139768600463867e+00,7.037707133947419536e-01,1.000000000000000000e+00,1.000000000000000000e+00,1.110000000000000000e+02
0.000000000000000000e+00,1.000000000000000000e+00,0.000000000000000000e+00,2.000000000000000000e+00,6.060000000000000000e+02,2.281110286712646484e-01,1.713339805603027344e+00,4.840652089972585226e-01,0.000000000000000000e+00,0.000000000000000000e+00,1.110000000000000000e+02
0.000000000000000000e+00,1.000000000000000000e+00,0.000000000000000000e+00,1.000000000000000000e+00,6.060000000000000000e+02,2.513530254364013672e-01,1.592958927154541016e+00,3.439181289881873549e-01,0.000000000000000000e+00,0.000000000000000000e+00,1.110000000000000000e+02
1.000000000000000000e+00,0.000000000000000000e+00,0.000000000000000000e+00,0.000000000000000000e+00,6.050000000000000000e+02,2.410540580749511719e-01,1.727579116821289062e+00,5.047439405383846722e-01,0.000000000000000000e+00,0.000000000000000000e+00,1.110000000000000000e+02
1.000000000000000000e+00,1.000000000000000000e+00,1.000000000000000000e+00,1.000000000000000000e+00,6.050000000000000000e+02,2.478098869323730469e-01,1.793922901153564453e+00,5.486807645010762791e-01,0.000000000000000000e+00,0.000000000000000000e+00,1.110000000000000000e+02
1.000000000000000000e+00,0.000000000000000000e+00,0.000000000000000000e+00,0.000000000000000000e+00,6.040000000000000000e+02,2.482819557189941406e-01,1.728703975677490234e+00,4.775272428269128899e-01,0.000000000000000000e+00,0.000000000000000000e+00,1.110000000000000000e+02
0.000000000000000000e+00,0.000000000000000000e+00,1.000000000000000000e+00,0.000000000000000000e+00,6.030000000000000000e+02,4.175047874450683594e-01,1.978585958480834961e+00,5.727594572075420665e-01,0.000000000000000000e+00,0.000000000000000000e+00,1.110000000000000000e+02
0.000000000000000000e+00,0.000000000000000000e+00,1.000000000000000000e+00,0.000000000000000000e+00,6.020000000000000000e+02,3.971078395843505859e-01,1.749166011810302734e+00,3.555507170444404119e-01,0.000000000000000000e+00,1.000000000000000000e+00,1.120000000000000000e+02
0.000000000000000000e+00,1.000000000000000000e+00,0.000000000000000000e+00,0.000000000000000000e+00,6.020000000000000000e+02,1.000200033187866211e+00,2.707744121551513672e+00,6.797740822936801930e-01,-1.000000000000000000e+00,-1.000000000000000000e+00,1.120000000000000000e+02
1.000000000000000000e+00,0.000000000000000000e+00,0.000000000000000000e+00,0.000000000000000000e+00,6.010000000000000000e+02,4.312400817871093750e-01,1.805601835250854492e+00,3.857432204166308942e-01,0.000000000000000000e+00,0.000000000000000000e+00,1.120000000000000000e+02
0.000000000000000000e+00,0.000000000000000000e+00,1.000000000000000000e+00,0.000000000000000000e+00,6.000000000000000000e+02,7.775619029998779297e-01,2.164844036102294922e+00,4.006631521850222422e-01,0.000000000000000000e+00,0.000000000000000000e+00,1.120000000000000000e+02
0.000000000000000000e+00,0.000000000000000000e+00,1.000000000000000000e+00,0.000000000000000000e+00,6.000000000000000000e+02,1.532096147537231445e+00,3.184561967849731445e+00,6.184210593276553425e-01,-1.000000000000000000e+00,-1.000000000000000000e+00,1.110000000000000000e+02
0.000000000000000000e+00,1.000000000000000000e+00,0.000000000000000000e+00,1.000000000000000000e+00,6.000000000000000000e+02,4.228248596191406250e-01,1.770876884460449219e+00,3.563276762314910862e-01,0.000000000000000000e+00,1.000000000000000000e+00,1.120000000000000000e+02
1.000000000000000000e+00,0.000000000000000000e+00,0.000000000000000000e+00,0.000000000000000000e+00,5.990000000000000000e+02,2.612709999084472656e-01,1.710786104202270508e+00,4.503925928152091585e-01,0.000000000000000000e+00,1.000000000000000000e+00,1.110000000000000000e+02
0.000000000000000000e+00,0.000000000000000000e+00,1.000000000000000000e+00,0.000000000000000000e+00,5.980000000000000000e+02,3.116369247436523438e-01,1.875524044036865234e+00,5.758895592902544269e-01,0.000000000000000000e+00,1.000000000000000000e+00,1.120000000000000000e+02
0.000000000000000000e+00,1.000000000000000000e+00,0.000000000000000000e+00,3.000000000000000000e+00,6.000000000000000000e+02,4.999918937683105469e-01,1.967932939529418945e+00,4.773303374394722853e-01,0.000000000000000000e+00,0.000000000000000000e+00,1.120000000000000000e+02
0.000000000000000000e+00,1.000000000000000000e+00,0.000000000000000000e+00,2.000000000000000000e+00,6.010000000000000000e+02,4.774460792541503906e-01,2.054355859756469727e+00,5.983019025095652754e-01,0.000000000000000000e+00,0.000000000000000000e+00,1.120000000000000000e+02
0.000000000000000000e+00,0.000000000000000000e+00,1.000000000000000000e+00,0.000000000000000000e+00,6.000000000000000000e+02,4.604249000549316406e-01,1.701553106307983398e+00,2.669440543150869982e-01,1.000000000000000000e+00,1.000000000000000000e+00,1.110000000000000000e+02
1.000000000000000000e+00,1.000000000000000000e+00,1.000000000000000000e+00,2.000000000000000000e+00,6.010000000000000000e+02,6.028060913085937500e-01,2.149065017700195312e+00,5.491458323515283624e-01,0.000000000000000000e+00,0.000000000000000000e+00,1.110000000000000000e+02
1.000000000000000000e+00,1.000000000000000000e+00,1.000000000000000000e+00,3.000000000000000000e+00,6.030000000000000000e+02,4.979448318481445312e-01,2.095852851867675781e+00,5.950114086082517462e-01,0.000000000000000000e+00,0.000000000000000000e+00,1.110000000000000000e+02
1.000000000000000000e+00,1.000000000000000000e+00,1.000000000000000000e+00,3.000000000000000000e+00,6.050000000000000000e+02,6.167330741882324219e-01,2.292685031890869141e+00,6.876954977717080197e-01,0.000000000000000000e+00,0.000000000000000000e+00,1.110000000000000000e+02
1.000000000000000000e+00,0.000000000000000000e+00,0.000000000000000000e+00,0.000000000000000000e+00,6.040000000000000000e+02,5.457580089569091797e-01,1.871088027954101562e+00,3.258554247752498689e-01,0.000000000000000000e+00,0.000000000000000000e+00,1.110000000000000000e+02
0.000000000000000000e+00,1.000000000000000000e+00,0.000000000000000000e+00,3.000000000000000000e+00,6.060000000000000000e+02,8.462219238281250000e-01,2.394180059432983398e+00,5.532186847465536683e-01,0.000000000000000000e+00,1.000000000000000000e+00,1.120000000000000000e+02
1.000000000000000000e+00,0.000000000000000000e+00,0.000000000000000000e+00,0.000000000000000000e+00,6.050000000000000000e+02,2.803039550781250000e-01,1.986626863479614258e+00,7.064312493090740830e-01,0.000000000000000000e+00,1.000000000000000000e+00,1.110000000000000000e+02
0.000000000000000000e+00,1.000000000000000000e+00,0.000000000000000000e+00,3.000000000000000000e+00,6.070000000000000000e+02,5.539360046386718750e-01,2.099274158477783203e+00,5.559428924955560625e-01,0.000000000000000000e+00,0.000000000000000000e+00,1.110000000000000000e+02
0.000000000000000000e+00,1.000000000000000000e+00,0.000000000000000000e+00,0.000000000000000000e+00,6.070000000000000000e+02,2.470993995666503906e-02,5.587245941162109375e+00,4.435310763996997974e-01,-2.000000000000000000e+00,-2.000000000000000000e+00,1.110000000000000000e+02
0.000000000000000000e+00,1.000000000000000000e+00,0.000000000000000000e+00,2.000000000000000000e+00,6.080000000000000000e+02,6.359460353851318359e-01,2.208909034729003906e+00,5.857367261678245729e-01,0.000000000000000000e+00,0.000000000000000000e+00,1.110000000000000000e+02
0.000000000000000000e+00,1.000000000000000000e+00,0.000000000000000000e+00,4.000000000000000000e+00,6.110000000000000000e+02,5.063619613647460938e-01,2.087485074996948242e+00,5.899100938401944383e-01,0.000000000000000000e+00,1.000000000000000000e+00,1.120000000000000000e+02
0.000000000000000000e+00,0.000000000000000000e+00,1.000000000000000000e+00,0.000000000000000000e+00,6.100000000000000000e+02,4.561290740966796875e-01,1.801698923110961914e+00,3.586398951753185238e-01,0.000000000000000000e+00,1.000000000000000000e+00,1.110000000000000000e+02
1.000000000000000000e+00,0.000000000000000000e+00,0.000000000000000000e+00,0.000000000000000000e+00,6.090000000000000000e+02,3.141648769378662109e-01,1.958927154541015625e+00,6.506351782871830913e-01,0.000000000000000000e+00,1.000000000000000000e+00,1.120000000000000000e+02
0.000000000000000000e+00,1.000000000000000000e+00,0.000000000000000000e+00,2.000000000000000000e+00,6.100000000000000000e+02,2.364881038665771484e-01,1.590014934539794922e+00,3.576924154676025536e-01,0.000000000000000000e+00,1.000000000000000000e+00,1.110000000000000000e+02
0.000000000000000000e+00,0.000000000000000000e+00,1.000000000000000000e+00,0.000000000000000000e+00,6.090000000000000000e+02,8.142390251159667969e-01,2.146880149841308594e+00,3.380222453961206908e-01,1.000000000000000000e+00,1.000000000000000000e+00,1.120000000000000000e+02
0.000000000000000000e+00,0.000000000000000000e+00,1.000000000000000000e+00,0.000000000000000000e+00,6.080000000000000000e+02,3.693149089813232422e-01,1.976716995239257812e+00,6.145324041680082505e-01,0.000000000000000000e+00,0.000000000000000000e+00,1.120000000000000000e+02
0.000000000000000000e+00,0.000000000000000000e+00,1.000000000000000000e+00,0.000000000000000000e+00,6.070000000000000000e+02,3.957028388977050781e-01,2.147285938262939453e+00,7.450956376999517961e-01,0.000000000000000000e+00,0.000000000000000000e+00,1.120000000000000000e+02
1.000000000000000000e+00,1.000000000000000000e+00,1.000000000000000000e+00,0.000000000000000000e+00,6.070000000000000000e+02,9.947204589843750000e-02,5.968991041183471680e+00,7.476475372064994573e-01,-2.000000000000000000e+00,-2.000000000000000000e+00,1.120000000000000000e+02
0.000000000000000000e+00,0.000000000000000000e+00,1.000000000000000000e+00,0.000000000000000000e+00,6.070000000000000000e+02,1.292333126068115234e+00,2.639763116836547852e+00,3.379457615843333151e-01,-1.000000000000000000e+00,-1.000000000000000000e+00,1.120000000000000000e+02
0.000000000000000000e+00,0.000000000000000000e+00,1.000000000000000000e+00,0.000000000000000000e+00,6.060000000000000000e+02,9.703879356384277344e-01,2.507212877273559570e+00,5.450517591822567898e-01,0.000000000000000000e+00,0.000000000000000000e+00,1.120000000000000000e+02
0.000000000000000000e+00,1.000000000000000000e+00,0.000000000000000000e+00,3.000000000000000000e+00,6.080000000000000000e+02,3.535280227661132812e-01,1.621138811111450195e+00,2.831918480913716563e-01,0.000000000000000000e+00,0.000000000000000000e+00,1.120000000000000000e+02
1.000000000000000000e+00,1.000000000000000000e+00,1.000000000000000000e+00,1.000000000000000000e+00,6.080000000000000000e+02,4.602580070495605469e-01,1.792428016662597656e+00,3.422772971654791663e-01,0.000000000000000000e+00,1.000000000000000000e+00,1.110000000000000000e+02
0.000000000000000000e+00,0.000000000000000000e+00,1.000000000000000000e+00,0.000000000000000000e+00,6.070000000000000000e+02,3.369238376617431641e-01,1.710341930389404297e+00,3.859867795423940207e-01,0.000000000000000000e+00,1.000000000000000000e+00,1.120000000000000000e+02
0.000000000000000000e+00,1.000000000000000000e+00,0.000000000000000000e+00,3.000000000000000000e+00,6.090000000000000000e+02,9.543511867523193359e-01,2.246863126754760742e+00,2.996630129815340826e-01,0.000000000000000000e+00,1.000000000000000000e+00,1.110000000000000000e+02
1.000000000000000000e+00,1.000000000000000000e+00,1.000000000000000000e+00,2.000000000000000000e+00,6.100000000000000000e+02,2.814049720764160156e-01,1.718640089035034180e+00,4.349370868093998532e-01,0.000000000000000000e+00,1.000000000000000000e+00,1.120000000000000000e+02
0.000000000000000000e+00,0.000000000000000000e+00,1.000000000000000000e+00,0.000000000000000000e+00,6.090000000000000000e+02,9.118249416351318359e-01,2.405017852783203125e+00,4.899770319185406398e-01,0.000000000000000000e+00,0.000000000000000000e+00,1.120000000000000000e+02
0.000000000000000000e+00,0.000000000000000000e+00,1.000000000000000000e+00,0.000000000000000000e+00,6.080000000000000000e+02,3.498768806457519531e-01,2.014374971389770508e+00,6.708892558444893295e-01,0.000000000000000000e+00,0.000000000000000000e+00,1.120000000000000000e+02
1.000000000000000000e+00,1.000000000000000000e+00,1.000000000000000000e+00,2.000000000000000000e+00,6.090000000000000000e+02,2.263290882110595703e-01,1.662142038345336914e+00,4.500391189549795001e-01,1.000000000000000000e+00,1.000000000000000000e+00,1.110000000000000000e+02
0.000000000000000000e+00,1.000000000000000000e+00,0.000000000000000000e+00,3.000000000000000000e+00,6.110000000000000000e+02,3.837349414825439453e-01,1.723379850387573242e+00,3.402467556058919596e-01,0.000000000000000000e+00,0.000000000000000000e+00,1.110000000000000000e+02
0.000000000000000000e+00,0.000000000000000000e+00,1.000000000000000000e+00,0.000000000000000000e+00,6.110000000000000000e+02,1.649169921875000000e+00,3.222586154937744141e+00,5.461105068934228868e-01,-1.000000000000000000e+00,-1.000000000000000000e+00,1.110000000000000000e+02
1.000000000000000000e+00,1.000000000000000000e+00,1.000000000000000000e+00,1.000000000000000000e+00,6.110000000000000000e+02,2.535798549652099609e-01,1.981045007705688477e+00,7.437095800006623403e-01,0.000000000000000000e+00,0.000000000000000000e+00,1.110000000000000000e+02
0.000000000000000000e+00,0.000000000000000000e+00,1.000000000000000000e+00,0.000000000000000000e+00,6.100000000000000000e+02,7.083039283752441406e-01,1.961936950683593750e+00,2.728505418448302078e-01,0.000000000000000000e+00,0.000000000000000000e+00,1.110000000000000000e+02
0.000000000000000000e+00,1.000000000000000000e+00,0.000000000000000000e+00,3.000000000000000000e+00,6.120000000000000000e+02,2.656807899475097656e-01,1.998782157897949219e+00,7.380571284547724487e-01,0.000000000000000000e+00,0.000000000000000000e+00,1.110000000000000000e+02
0.000000000000000000e+00,0.000000000000000000e+00,1.000000000000000000e+00,0.000000000000000000e+00,6.110000000000000000e+02,2.397220134735107422e-01,1.711860895156860352e+00,4.834300896567478301e-01,0.000000000000000000e+00,1.000000000000000000e+00,1.120000000000000000e+02
1.000000000000000000e+00,1.000000000000000000e+00,1.000000000000000000e+00,3.000000000000000000e+00,6.130000000000000000e+02,2.340579032897949219e-01,1.630309104919433594e+00,3.972141642944127526e-01,0.000000000000000000e+00,1.000000000000000000e+00,1.110000000000000000e+02
1.000000000000000000e+00,0.000000000000000000e+00,0.000000000000000000e+00,0.000000000000000000e+00,6.120000000000000000e+02,2.994759082794189453e-01,1.935464143753051758e+00,6.491440810791639926e-01,0.000000000000000000e+00,0.000000000000000000e+00,1.110000000000000000e+02
1.000000000000000000e+00,0.000000000000000000e+00,0.000000000000000000e+00,0.000000000000000000e+00,6.110000000000000000e+02,2.685308456420898438e-01,1.870361804962158203e+00,6.031039173236161233e-01,0.000000000000000000e+00,1.000000000000000000e+00,1.120000000000000000e+02
0.000000000000000000e+00,0.000000000000000000e+00,1.000000000000000000e+00,0.000000000000000000e+00,6.100000000000000000e+02,2.999229431152343750e-01,1.953735828399658203e+00,6.566956030690636048e-01,0.000000000000000000e+00,1.000000000000000000e+00,1.110000000000000000e+02
1.000000000000000000e+00,1.000000000000000000e+00,1.000000000000000000e+00,3.000000000000000000e+00,6.120000000000000000e+02,2.640860080718994141e-01,1.654891967773437500e+00,3.952830967020473651e-01,0.000000000000000000e+00,0.000000000000000000e+00,1.110000000000000000e+02
1.000000000000000000e+00,1.000000000000000000e+00,1.000000000000000000e+00,2.000000000000000000e+00,6.130000000000000000e+02,2.641680240631103516e-01,1.784239053726196289e+00,5.294518859615761075e-01,1.000000000000000000e+00,1.000000000000000000e+00,1.120000000000000000e+02
0.000000000000000000e+00,1.000000000000000000e+00,0.000000000000000000e+00,2.000000000000000000e+00,6.140000000000000000e+02,2.368869781494140625e-01,1.843905925750732422e+00,6.233043737838281917e-01,0.000000000000000000e+00,0.000000000000000000e+00,1.120000000000000000e+02
0.000000000000000000e+00,1.000000000000000000e+00,0.000000000000000000e+00,2.000000000000000000e+00,6.150000000000000000e+02,2.309999465942382812e-01,1.609790086746215820e+00,3.834413009916625703e-01,0.000000000000000000e+00,0.000000000000000000e+00,1.120000000000000000e+02
1.000000000000000000e+00,0.000000000000000000e+00,0.000000000000000000e+00,0.000000000000000000e+00,6.140000000000000000e+02,3.042929172515869141e-01,1.786317825317382812e+00,4.863822476435525899e-01,0.000000000000000000e+00,0.000000000000000000e+00,1.120000000000000000e+02
0.000000000000000000e+00,1.000000000000000000e+00,0.000000000000000000e+00,1.000000000000000000e+00,6.140000000000000000e+02,4.500558376312255859e-01,1.765182971954345703e+00,3.184871265231443149e-01,0.000000000000000000e+00,1.000000000000000000e+00,1.110000000000000000e+02
1.000000000000000000e+00,1.000000000000000000e+00,1.000000000000000000e+00,2.000000000000000000e+00,6.150000000000000000e+02,4.683940410614013672e-01,1.756163835525512695e+00,2.914233860054260550e-01,0.000000000000000000e+00,1.000000000000000000e+00,1.120000000000000000e+02
0.000000000000000000e+00,1.000000000000000000e+00,0.000000000000000000e+00,3.000000000000000000e+00,6.170000000000000000e+02,2.835619449615478516e-01,1.601105213165283203e+00,3.258740216482433061e-01,0.000000000000000000e+00,0.000000000000000000e+00,1.120000000000000000e+02
0.000000000000000000e+00,0.000000000000000000e+00,1.000000000000000000e+00,0.000000000000000000e+00,6.160000000000000000e+02,2.535150051116943359e-01,1.909144878387451172e+00,6.680225459155129109e-01,0.000000000000000000e+00,0.000000000000000000e+00,1.120000000000000000e+02
1.000000000000000000e+00,0.000000000000000000e+00,0.000000000000000000e+00,0.000000000000000000e+00,6.150000000000000000e+02,3.149750232696533203e-01,1.588688135147094727e+00,2.739109983831687911e-01,0.000000000000000000e+00,0.000000000000000000e+00,1.120000000000000000e+02
1.000000000000000000e+00,0.000000000000000000e+00,0.000000000000000000e+00,0.000000000000000000e+00,6.140000000000000000e+02,4.486980438232421875e-01,2.014583110809326172e+00,5.715714674265183204e-01,0.000000000000000000e+00,0.000000000000000000e+00,1.120000000000000000e+02
0.000000000000000000e+00,1.000000000000000000e+00,0.000000000000000000e+00,4.000000000000000000e+00,6.170000000000000000e+02,3.261280059814453125e-01,1.716152906417846680e+00,4.046269528177452446e-01,0.000000000000000000e+00,0.000000000000000000e+00,1.120000000000000000e+02
0.000000000000000000e+00,0.000000000000000000e+00,1.000000000000000000e+00,0.000000000000000000e+00,6.160000000000000000e+02,2.952468395233154297e-01,1.738756179809570312e+00,4.434134135141994948e-01,0.000000000000000000e+00,1.000000000000000000e+00,1.110000000000000000e+02
1.000000000000000000e+00,0.000000000000000000e+00,0.000000000000000000e+00,0.000000000000000000e+00,6.150000000000000000e+02,3.342249393463134766e-01,2.001873016357421875e+00,6.784316849900893232e-01,0.000000000000000000e+00,0.000000000000000000e+00,1.110000000000000000e+02
1.000000000000000000e+00,1.000000000000000000e+00,1.000000000000000000e+00,2.000000000000000000e+00,6.160000000000000000e+02,2.902350425720214844e-01,1.605427026748657227e+00,3.343088133266678419e-01,0.000000000000000000e+00,1.000000000000000000e+00,1.120000000000000000e+02
0.000000000000000000e+00,1.000000000000000000e+00,0.000000000000000000e+00,2.000000000000000000e+00,6.170000000000000000e+02,3.356289863586425781e-01,1.705028057098388672e+00,3.726910558245800642e-01,0.000000000000000000e+00,0.000000000000000000e+00,1.120000000000000000e+02
0.000000000000000000e+00,0.000000000000000000e+00,1.000000000000000000e+00,0.000000000000000000e+00,6.160000000000000000e+02,3.277029991149902344e-01,2.025894880294799805e+00,7.149755806404654024e-01,0.000000000000000000e+00,1.000000000000000000e+00,1.110000000000000000e+02
1.000000000000000000e+00,1.000000000000000000e+00,1.000000000000000000e+00,5.000000000000000000e+00,6.200000000000000000e+02,2.681689262390136719e-01,1.530349969863891602e+00,2.791839740479922782e-01,0.000000000000000000e+00,1.000000000000000000e+00,1.120000000000000000e+02
1.000000000000000000e+00,1.000000000000000000e+00,1.000000000000000000e+00,3.000000000000000000e+00,6.220000000000000000e+02,2.938749790191650391e-01,1.560612916946411133e+00,2.898590905124049932e-01,0.000000000000000000e+00,1.000000000000000000e+00,1.110000000000000000e+02
1.000000000000000000e+00,1.000000000000000000e+00,1.000000000000000000e+00,3.000000000000000000e+00,6.240000000000000000e+02,2.571880817413330078e-01,1.783756971359252930e+00,5.400521049614273039e-01,0.000000000000000000e+00,1.000000000000000000e+00,1.120000000000000000e+02
1.000000000000000000e+00,0.000000000000000000e+00,0.000000000000000000e+00,0.000000000000000000e+00,6.230000000000000000e+02,2.359731197357177734e-01,1.804337978363037109e+00,5.777931646016842837e-01,0.000000000000000000e+00,0.000000000000000000e+00,1.120000000000000000e+02
0.000000000000000000e+00,1.000000000000000000e+00,0.000000000000000000e+00,3.000000000000000000e+00,6.250000000000000000e+02,2.390871047973632812e-01,1.942934036254882812e+00,7.206229842773005378e-01,0.000000000000000000e+00,0.000000000000000000e+00,1.120000000000000000e+02
0.000000000000000000e+00,0.000000000000000000e+00,1.000000000000000000e+00,0.000000000000000000e+00,6.240000000000000000e+02,2.430629730224609375e-01,1.722400903701782227e+00,4.933576930767845092e-01,0.000000000000000000e+00,1.000000000000000000e+00,1.110000000000000000e+02
1.000000000000000000e+00,1.000000000000000000e+00,1.000000000000000000e+00,0.000000000000000000e+00,6.240000000000000000e+02,4.542183876037597656e-02,5.743392944335937500e+00,5.868405694882294910e-01,-2.000000000000000000e+00,-2.000000000000000000e+00,1.110000000000000000e+02
1.000000000000000000e+00,1.000000000000000000e+00,1.000000000000000000e+00,4.000000000000000000e+00,6.270000000000000000e+02,2.616751194000244141e-01,1.775233983993530273e+00,5.288632000343729267e-01,1.000000000000000000e+00,0.000000000000000000e+00,1.110000000000000000e+02
1.000000000000000000e+00,0.000000000000000000e+00,0.000000000000000000e+00,0.000000000000000000e+00,6.260000000000000000e+02,3.030340671539306641e-01,1.632138967514038086e+00,3.446060827012772387e-01,0.000000000000000000e+00,0.000000000000000000e+00,1.110000000000000000e+02
1.000000000000000000e+00,1.000000000000000000e+00,1.000000000000000000e+00,1.000000000000000000e+00,6.260000000000000000e+02,3.307819366455078125e-01,1.894679069519042969e+00,5.724706714028136023e-01,0.000000000000000000e+00,0.000000000000000000e+00,1.110000000000000000e+02
0.000000000000000000e+00,0.000000000000000000e+00,1.000000000000000000e+00,0.000000000000000000e+00,6.250000000000000000e+02,3.848879337310791016e-01,2.075729131698608398e+00,6.981544399670605028e-01,0.000000000000000000e+00,0.000000000000000000e+00,1.110000000000000000e+02
0.000000000000000000e+00,1.000000000000000000e+00,0.000000000000000000e+00,2.000000000000000000e+00,6.260000000000000000e+02,4.332618713378906250e-01,2.147634983062744141e+00,7.291602495667119932e-01,0.000000000000000000e+00,0.000000000000000000e+00,1.110000000000000000e+02
1.000000000000000000e+00,1.000000000000000000e+00,1.000000000000000000e+00,4.000000000000000000e+00,6.290000000000000000e+02,7.322521209716796875e-01,2.319519042968750000e+00,5.988250188657955331e-01,0.000000000000000000e+00,0.000000000000000000e+00,1.110000000000000000e+02
1.000000000000000000e+00,1.000000000000000000e+00,1.000000000000000000e+00,1.000000000000000000e+00,6.290000000000000000e+02,3.090550899505615234e-01,1.914530992507934570e+00,6.134919756041632422e-01,0.000000000000000000e+00,0.000000000000000000e+00,1.110000000000000000e+02
0.000000000000000000e+00,0.000000000000000000e+00,1.000000000000000000e+00,0.000000000000000000e+00,6.280000000000000000e+02,2.582230567932128906e-01,1.516661167144775391e+00,2.806266553821266108e-01,0.000000000000000000e+00,0.000000000000000000e+00,1.110000000000000000e+02
0.000000000000000000e+00,1.000000000000000000e+00,0.000000000000000000e+00,2.000000000000000000e+00,6.290000000000000000e+02,5.796411037445068359e-01,1.822917938232421875e+00,2.535751539952983968e-01,0.000000000000000000e+00,0.000000000000000000e+00,1.110000000000000000e+02
1.000000000000000000e+00,0.000000000000000000e+00,0.000000000000000000e+00,0.000000000000000000e+00,6.290000000000000000e+02,1.611245870590209961e+00,3.197499036788940430e+00,5.675400306086738622e-01,-1.000000000000000000e+00,-1.000000000000000000e+00,1.110000000000000000e+02
0.000000000000000000e+00,1.000000000000000000e+00,0.000000000000000000e+00,0.000000000000000000e+00,6.290000000000000000e+02,1.019372940063476562e+00,2.340757131576538086e+00,2.920160095160643787e-01,-1.000000000000000000e+00,-1.000000000000000000e+00,1.110000000000000000e+02
0.000000000000000000e+00,1.000000000000000000e+00,0.000000000000000000e+00,0.000000000000000000e+00,6.290000000000000000e+02,8.418798446655273438e-02,5.862771034240722656e+00,6.546093910587027498e-01,-2.000000000000000000e+00,-2.000000000000000000e+00,1.110000000000000000e+02
0.000000000000000000e+00,1.000000000000000000e+00,0.000000000000000000e+00,3.000000000000000000e+00,6.310000000000000000e+02,3.957180976867675781e-01,1.896254062652587891e+00,5.010994537011431715e-01,0.000000000000000000e+00,0.000000000000000000e+00,1.110000000000000000e+02
1.000000000000000000e+00,1.000000000000000000e+00,1.000000000000000000e+00,1.000000000000000000e+00,6.310000000000000000e+02,3.417589664459228516e-01,1.723962068557739258e+00,3.919080013515455763e-01,0.000000000000000000e+00,0.000000000000000000e+00,1.110000000000000000e+02
0.000000000000000000e+00,1.000000000000000000e+00,0.000000000000000000e+00,3.000000000000000000e+00,6.330000000000000000e+02,4.260890483856201172e-01,1.916024923324584961e+00,5.078852541287840472e-01,0.000000000000000000e+00,0.000000000000000000e+00,1.110000000000000000e+02
1.000000000000000000e+00,1.000000000000000000e+00,1.000000000000000000e+00,3.000000000000000000e+00,6.350000000000000000e+02,2.595148086547851562e-01,1.579082965850830078e+00,3.372143321788804715e-01,0.000000000000000000e+00,0.000000000000000000e+00,1.110000000000000000e+02
0.000000000000000000e+00,0.000000000000000000e+00,1.000000000000000000e+00,0.000000000000000000e+00,6.340000000000000000e+02,4.712460041046142578e-01,1.787184000015258789e+00,3.244905447679014565e-01,0.000000000000000000e+00,0.000000000000000000e+00,1.110000000000000000e+02
1.000000000000000000e+00,1.000000000000000000e+00,1.000000000000000000e+00,2.000000000000000000e+00,6.350000000000000000e+02,3.279361724853515625e-01,2.000211000442504883e+00,6.744143293676969630e-01,0.000000000000000000e+00,0.000000000000000000e+00,1.110000000000000000e+02
0.000000000000000000e+00,0.000000000000000000e+00,1.000000000000000000e+00,0.000000000000000000e+00,6.340000000000000000e+02,3.310039043426513672e-01,1.926976919174194336e+00,6.015468663872527433e-01,0.000000000000000000e+00,0.000000000000000000e+00,1.110000000000000000e+02
1.000000000000000000e+00,0.000000000000000000e+00,0.000000000000000000e+00,0.000000000000000000e+00,6.330000000000000000e+02,5.927619934082031250e-01,2.088021993637084961e+00,5.063979415781583171e-01,1.000000000000000000e+00,1.000000000000000000e+00,1.120000000000000000e+02
0.000000000000000000e+00,0.000000000000000000e+00,1.000000000000000000e+00,0.000000000000000000e+00,6.320000000000000000e+02,3.194851875305175781e-01,1.643871068954467773e+00,3.338406420058508406e-01,0.000000000000000000e+00,0.000000000000000000e+00,1.120000000000000000e+02
1.000000000000000000e+00,1.000000000000000000e+00,1.000000000000000000e+00,2.000000000000000000e+00,6.330000000000000000e+02,3.225719928741455078e-01,1.587474107742309570e+00,2.714291249064825218e-01,0.000000000000000000e+00,0.000000000000000000e+00,1.120000000000000000e+02
0.000000000000000000e+00,0.000000000000000000e+00,1.000000000000000000e+00,0.000000000000000000e+00,6.320000000000000000e+02,4.592299461364746094e-01,2.070284843444824219e+00,6.246762298513008904e-01,0.000000000000000000e+00,0.000000000000000000e+00,1.120000000000000000e+02
1.000000000000000000e+00,1.000000000000000000e+00,1.000000000000000000e+00,2.000000000000000000e+00,6.330000000000000000e+02,1.876201629638671875e-01,1.807104825973510742e+00,6.319554966014403474e-01,0.000000000000000000e+00,0.000000000000000000e+00,1.120000000000000000e+02
0.000000000000000000e+00,0.000000000000000000e+00,1.000000000000000000e+00,0.000000000000000000e+00,6.320000000000000000e+02,3.490500450134277344e-01,1.693120002746582031e+00,3.421298425423175416e-01,0.000000000000000000e+00,0.000000000000000000e+00,1.120000000000000000e+02
0.000000000000000000e+00,0.000000000000000000e+00,1.000000000000000000e+00,0.000000000000000000e+00,6.310000000000000000e+02,3.458421230316162109e-01,1.637857198715209961e+00,2.967322023234025274e-01,0.000000000000000000e+00,0.000000000000000000e+00,1.120000000000000000e+02
1.000000000000000000e+00,1.000000000000000000e+00,1.000000000000000000e+00,3.000000000000000000e+00,6.330000000000000000e+02,4.575128555297851562e-01,1.705503940582275391e+00,2.689966784107389874e-01,0.000000000000000000e+00,0.000000000000000000e+00,1.120000000000000000e+02
1.000000000000000000e+00,0.000000000000000000e+00,0.000000000000000000e+00,0.000000000000000000e+00,6.320000000000000000e+02,3.068609237670898438e-01,1.901828050613403320e+00,6.036158884753957121e-01,0.000000000000000000e+00,0.000000000000000000e+00,1.120000000000000000e+02
1.000000000000000000e+00,0.000000000000000000e+00,0.000000000000000000e+00,0.000000000000000000e+00,6.310000000000000000e+02,1.199679374694824219e-01,1.832597970962524414e+00,7.197945911576197897e-01,0.000000000000000000e+00,0.000000000000000000e+00,1.120000000000000000e+02
0.000000000000000000e+00,1.000000000000000000e+00,0.000000000000000000e+00,1.000000000000000000e+00,6.310000000000000000e+02,3.366520404815673828e-01,2.000458002090454102e+00,6.703803697748833557e-01,0.000000000000000000e+00,1.000000000000000000e+00,1.110000000000000000e+02
0.000000000000000000e+00,0.000000000000000000e+00,1.000000000000000000e+00,0.000000000000000000e+00,6.300000000000000000e+02,4.157459735870361328e-01,1.992110013961791992e+00,5.793228624840680574e-01,0.000000000000000000e+00,0.000000000000000000e+00,1.110000000000000000e+02
1.000000000000000000e+00,0.000000000000000000e+00,0.000000000000000000e+00,0.000000000000000000e+00,6.290000000000000000e+02,6.605489253997802734e-01,2.258903980255126953e+00,6.215720885729807410e-01,0.000000000000000000e+00,1.000000000000000000e+00,1.120000000000000000e+02
0.000000000000000000e+00,1.000000000000000000e+00,0.000000000000000000e+00,1.000000000000000000e+00,6.290000000000000000e+02,7.099339962005615234e-01,2.427414894104003906e+00,7.322670528365697873e-01,0.000000000000000000e+00,0.000000000000000000e+00,1.120000000000000000e+02
0.000000000000000000e+00,1.000000000000000000e+00,0.000000000000000000e+00,3.000000000000000000e+00,6.310000000000000000e+02,8.857178688049316406e-01,2.475037097930908203e+00,5.908969051062213929e-01,0.000000000000000000e+00,0.000000000000000000e+00,1.120000000000000000e+02
0.000000000000000000e+00,1.000000000000000000e+00,0.000000000000000000e+00,0.000000000000000000e+00,6.310000000000000000e+02,1.013118028640747070e+00,2.656684875488281250e+00,6.309924225201068992e-01,-1.000000000000000000e+00,-1.000000000000000000e+00,1.120000000000000000e+02
1.000000000000000000e+00,0.000000000000000000e+00,0.000000000000000000e+00,0.000000000000000000e+00,6.300000000000000000e+02,3.771979808807373047e-01,1.670034885406494141e+00,3.181147026866525951e-01,0.000000000000000000e+00,0.000000000000000000e+00,1.120000000000000000e+02
0.000000000000000000e+00,0.000000000000000000e+00,1.000000000000000000e+00,0.000000000000000000e+00,6.290000000000000000e+02,3.849279880523681641e-01,2.030987977981567383e+00,6.487859227714697363e-01,0.000000000000000000e+00,0.000000000000000000e+00,1.120000000000000000e+02
1.000000000000000000e+00,0.000000000000000000e+00,0.000000000000000000e+00,0.000000000000000000e+00,6.280000000000000000e+02,2.546980381011962891e-01,1.918767929077148438e+00,6.676645082445433754e-01,1.000000000000000000e+00,1.000000000000000000e+00,1.110000000000000000e+02
0.000000000000000000e+00,0.000000000000000000e+00,1.000000000000000000e+00,0.000000000000000000e+00,6.270000000000000000e+02,3.410868644714355469e-01,1.977551937103271484e+00,6.452693194688828848e-01,0.000000000000000000e+00,0.000000000000000000e+00,1.110000000000000000e+02
1.000000000000000000e+00,1.000000000000000000e+00,1.000000000000000000e+00,3.000000000000000000e+00,6.290000000000000000e+02,2.225048542022705078e-01,1.922943830490112305e+00,7.182655068011775112e-01,0.000000000000000000e+00,0.000000000000000000e+00,1.110000000000000000e+02
0.000000000000000000e+00,1.000000000000000000e+00,0.000000000000000000e+00,3.000000000000000000e+00,6.310000000000000000e+02,2.242388725280761719e-01,1.892469167709350586e+00,6.774862741088283347e-01,0.000000000000000000e+00,1.000000000000000000e+00,1.120000000000000000e+02
0.000000000000000000e+00,0.000000000000000000e+00,1.000000000000000000e+00,0.000000000000000000e+00,6.300000000000000000e+02,2.879629135131835938e-01,1.682451009750366211e+00,4.102855149166266258e-01,0.000000000000000000e+00,1.000000000000000000e+00,1.110000000000000000e+02
1.000000000000000000e+00,0.000000000000000000e+00,0.000000000000000000e+00,0.000000000000000000e+00,6.290000000000000000e+02,2.787280082702636719e-01,1.666207075119018555e+00,3.932571953740652826e-01,0.000000000000000000e+00,0.000000000000000000e+00,1.110000000000000000e+02
0.000000000000000000e+00,1.000000000000000000e+00,0.000000000000000000e+00,2.000000000000000000e+00,6.300000000000000000e+02,3.812191486358642578e-01,1.924384117126464844e+00,5.508689772985788657e-01,0.000000000000000000e+00,1.000000000000000000e+00,1.120000000000000000e+02
1.000000000000000000e+00,1.000000000000000000e+00,1.000000000000000000e+00,3.000000000000000000e+00,6.320000000000000000e+02,2.597320079803466797e-01,1.728741884231567383e+00,4.797695537718911218e-01,0.000000000000000000e+00,0.000000000000000000e+00,1.120000000000000000e+02
0.000000000000000000e+00,0.000000000000000000e+00,1.000000000000000000e+00,0.000000000000000000e+00,6.310000000000000000e+02,3.241491317749023438e-01,1.736876010894775391e+00,4.334465278039736358e-01,0.000000000000000000e+00,0.000000000000000000e+00,1.120000000000000000e+02
1.000000000000000000e+00,0.000000000000000000e+00,0.000000000000000000e+00,0.000000000000000000e+00,6.300000000000000000e+02,2.283239364624023438e-01,1.917088985443115234e+00,6.836738705711093989e-01,0.000000000000000000e+00,1.000000000000000000e+00,1.110000000000000000e+02
1.000000000000000000e+00,1.000000000000000000e+00,1.000000000000000000e+00,0.000000000000000000e+00,6.290000000000000000e+02,3.176090717315673828e-01,1.749600887298583984e+00,4.335866294713943137e-01,0.000000000000000000e+00,0.000000000000000000e+00,1.110000000000000000e+02
0.000000000000000000e+00,1.000000000000000000e+00,0.000000000000000000e+00,2.000000000000000000e+00,6.300000000000000000e+02,2.017579078674316406e-01,1.739552974700927734e+00,5.397894144220487522e-01,1.000000000000000000e+00,1.000000000000000000e+00,1.120000000000000000e+02
0.000000000000000000e+00,0.000000000000000000e+00,1.000000000000000000e+00,0.000000000000000000e+00,6.290000000000000000e+02,2.723970413208007812e-01,1.615370988845825195e+00,3.553820036097468660e-01,0.000000000000000000e+00,0.000000000000000000e+00,1.120000000000000000e+02
1.000000000000000000e+00,0.000000000000000000e+00,0.000000000000000000e+00,0.000000000000000000e+00,6.280000000000000000e+02,4.797620773315429688e-01,2.046854972839355469e+00,5.687352855143773533e-01,0.000000000000000000e+00,0.000000000000000000e+00,1.120000000000000000e+02
1.000000000000000000e+00,0.000000000000000000e+00,0.000000000000000000e+00,0.000000000000000000e+00,6.270000000000000000e+02,3.068599700927734375e-01,2.045521020889282227e+00,7.475111656185171594e-01,0.000000000000000000e+00,0.000000000000000000e+00,1.120000000000000000e+02
0.000000000000000000e+00,0.000000000000000000e+00,1.000000000000000000e+00,0.000000000000000000e+00,6.260000000000000000e+02,3.226819038391113281e-01,1.961735963821411133e+00,6.594174366529560460e-01,0.000000000000000000e+00,0.000000000000000000e+00,1.120000000000000000e+02
0.000000000000000000e+00,0.000000000000000000e+00,1.000000000000000000e+00,0.000000000000000000e+00,6.250000000000000000e+02,4.039549827575683594e-01,1.716645956039428711e+00,3.264897645196084275e-01,0.000000000000000000e+00,1.000000000000000000e+00,1.110000000000000000e+02
0.000000000000000000e+00,0.000000000000000000e+00,1.000000000000000000e+00,0.000000000000000000e+00,6.240000000000000000e+02,1.744248867034912109e-01,1.830621004104614258e+00,6.734566766307574781e-01,0.000000000000000000e+00,1.000000000000000000e+00,1.120000000000000000e+02
0.000000000000000000e+00,0.000000000000000000e+00,1.000000000000000000e+00,0.000000000000000000e+00,6.230000000000000000e+02,2.691631317138671875e-01,1.994179010391235352e+00,7.343229880684297717e-01,0.000000000000000000e+00,0.000000000000000000e+00,1.120000000000000000e+02
0.000000000000000000e+00,0.000000000000000000e+00,1.000000000000000000e+00,0.000000000000000000e+00,6.220000000000000000e+02,3.491699695587158203e-01,1.987581968307495117e+00,6.387417110841717705e-01,0.000000000000000000e+00,0.000000000000000000e+00,1.120000000000000000e+02
0.000000000000000000e+00,0.000000000000000000e+00,1.000000000000000000e+00,0.000000000000000000e+00,6.210000000000000000e+02,2.079780101776123047e-01,1.694103002548217773e+00,4.997531134331968383e-01,0.000000000000000000e+00,1.000000000000000000e+00,1.110000000000000000e+02
0.000000000000000000e+00,1.000000000000000000e+00,0.000000000000000000e+00,1.000000000000000000e+00,6.210000000000000000e+02,5.180509090423583984e-01,1.876564025878906250e+00,3.598735355689621773e-01,0.000000000000000000e+00,1.000000000000000000e+00,1.120000000000000000e+02
0.000000000000000000e+00,0.000000000000000000e+00,1.000000000000000000e+00,0.000000000000000000e+00,6.200000000000000000e+02,2.014431953430175781e-01,1.867336034774780273e+00,6.769389231946894014e-01,0.000000000000000000e+00,0.000000000000000000e+00,1.120000000000000000e+02
0.000000000000000000e+00,0.000000000000000000e+00,1.000000000000000000e+00,0.000000000000000000e+00,6.200000000000000000e+02,1.948881149291992188e-02,5.481587171554565430e+00,3.424255210327999399e-01,-2.000000000000000000e+00,-2.000000000000000000e+00,1.120000000000000000e+02
0.000000000000000000e+00,0.000000000000000000e+00,1.000000000000000000e+00,0.000000000000000000e+00,6.190000000000000000e+02,2.926700115203857422e-01,1.538513898849487305e+00,2.644256000177760413e-01,0.000000000000000000e+00,0.000000000000000000e+00,1.120000000000000000e+02
0.000000000000000000e+00,1.000000000000000000e+00,0.000000000000000000e+00,3.000000000000000000e+00,6.210000000000000000e+02,5.064089298248291016e-01,2.136866092681884766e+00,6.509491712133654850e-01,1.000000000000000000e+00,1.000000000000000000e+00,1.110000000000000000e+02
0.000000000000000000e+00,1.000000000000000000e+00,0.000000000000000000e+00,3.000000000000000000e+00,6.230000000000000000e+02,2.335119247436523438e-01,1.831910133361816406e+00,5.996869537067329725e-01,0.000000000000000000e+00,1.000000000000000000e+00,1.120000000000000000e+02
0.000000000000000000e+00,0.000000000000000000e+00,1.000000000000000000e+00,0.000000000000000000e+00,6.220000000000000000e+02,2.632169723510742188e-01,1.580844879150390625e+00,3.142156293314368187e-01,0.000000000000000000e+00,1.000000000000000000e+00,1.110000000000000000e+02
1.000000000000000000e+00,0.000000000000000000e+00,0.000000000000000000e+00,0.000000000000000000e+00,6.210000000000000000e+02,3.555691242218017578e-01,2.002875089645385742e+00,6.667605417289916847e-01,0.000000000000000000e+00,0.000000000000000000e+00,1.110000000000000000e+02
0.000000000000000000e+00,1.000000000000000000e+00,0.000000000000000000e+00,2.000000000000000000e+00,6.220000000000000000e+02,2.379820346832275391e-01,1.810540914535522461e+00,5.775151216462033332e-01,0.000000000000000000e+00,0.000000000000000000e+00,1.110000000000000000e+02
1.000000000000000000e+00,0.000000000000000000e+00,0.000000000000000000e+00,0.000000000000000000e+00,6.210000000000000000e+02,3.440449237823486328e-01,1.689534902572631836e+00,3.673327286598990771e-01,0.000000000000000000e+00,1.000000000000000000e+00,1.120000000000000000e+02
0.000000000000000000e+00,0.000000000000000000e+00,1.000000000000000000e+00,0.000000000000000000e+00,6.200000000000000000e+02,2.730829715728759766e-01,1.726540088653564453e+00,4.604590772379584807e-01,0.000000000000000000e+00,0.000000000000000000e+00,1.120000000000000000e+02
1.000000000000000000e+00,1.000000000000000000e+00,1.000000000000000000e+00,1.000000000000000000e+00,6.200000000000000000e+02,2.333641052246093750e-01,1.505767107009887695e+00,2.831775720889632697e-01,0.000000000000000000e+00,1.000000000000000000e+00,1.110000000000000000e+02
0.000000000000000000e+00,0.000000000000000000e+00,1.000000000000000000e+00,0.000000000000000000e+00,6.190000000000000000e+02,5.298659801483154297e-01,2.247290849685668945e+00,7.134331045018044160e-01,0.000000000000000000e+00,1.000000000000000000e+00,1.120000000000000000e+02
1.000000000000000000e+00,0.000000000000000000e+00,0.000000000000000000e+00,0.000000000000000000e+00,6.180000000000000000e+02,2.376317977905273438e-01,1.869472026824951172e+00,6.497040445497157535e-01,0.000000000000000000e+00,1.000000000000000000e+00,1.110000000000000000e+02
0.000000000000000000e+00,0.000000000000000000e+00,1.000000000000000000e+00,0.000000000000000000e+00,6.170000000000000000e+02,3.803350925445556641e-01,1.771154165267944336e+00,3.878781716443724936e-01,0.000000000000000000e+00,0.000000000000000000e+00,1.110000000000000000e+02
1.000000000000000000e+00,1.000000000000000000e+00,1.000000000000000000e+00,2.000000000000000000e+00,6.180000000000000000e+02,3.157989978790283203e-01,1.886232852935791016e+00,5.739987532724568631e-01,0.000000000000000000e+00,0.000000000000000000e+00,1.110000000000000000e+02
1.000000000000000000e+00,0.000000000000000000e+00,0.000000000000000000e+00,0.000000000000000000e+00,6.170000000000000000e+02,2.305588722229003906e-01,1.736912965774536133e+00,5.110354251347766219e-01,0.000000000000000000e+00,1.000000000000000000e+00,1.120000000000000000e+02
1.000000000000000000e+00,1.000000000000000000e+00,1.000000000000000000e+00,3.000000000000000000e+00,6.190000000000000000e+02,2.992849349975585938e-01,1.748870849609375000e+00,4.600406984282017775e-01,0.000000000000000000e+00,1.000000000000000000e+00,1.110000000000000000e+02
1.000000000000000000e+00,0.000000000000000000e+00,0.000000000000000000e+00,0.000000000000000000e+00,6.180000000000000000e+02,6.472470760345458984e-01,1.914474964141845703e+00,2.748128492476095142e-01,0.000000000000000000e+00,0.000000000000000000e+00,1.110000000000000000e+02
0.000000000000000000e+00,1.000000000000000000e+00,0.000000000000000000e+00,4.000000000000000000e+00,6.210000000000000000e+02,3.007700443267822266e-01,1.977624893188476562e+00,6.854102137036273135e-01,0.000000000000000000e+00,0.000000000000000000e+00,1.110000000000000000e+02
0.000000000000000000e+00,0.000000000000000000e+00,1.000000000000000000e+00,0.000000000000000000e+00,6.200000000000000000e+02,4.085230827331542969e-01,2.094814062118530273e+00,6.969311078517734792e-01,0.000000000000000000e+00,0.000000000000000000e+00,1.110000000000000000e+02
1.000000000000000000e+00,1.000000000000000000e+00,1.000000000000000000e+00,2.000000000000000000e+00,6.210000000000000000e+02,3.870990276336669922e-01,1.729356050491333008e+00,3.600505556634344129e-01,1.000000000000000000e+00,1.000000000000000000e+00,1.120000000000000000e+02
1.000000000000000000e+00,0.000000000000000000e+00,0.000000000000000000e+00,0.000000000000000000e+00,6.200000000000000000e+02,3.258049488067626953e-01,1.897679090499877930e+00,5.909070805315828068e-01,0.000000000000000000e+00,0.000000000000000000e+00,1.120000000000000000e+02
0.000000000000000000e+00,1.000000000000000000e+00,0.000000000000000000e+00,2.000000000000000000e+00,6.210000000000000000e+02,4.019877910614013672e-01,1.804995059967041016e+00,4.128389405840611204e-01,0.000000000000000000e+00,1.000000000000000000e+00,1.110000000000000000e+02
0.000000000000000000e+00,0.000000000000000000e+00,1.000000000000000000e+00,0.000000000000000000e+00,6.200000000000000000e+02,2.870059013366699219e-01,1.872047901153564453e+00,6.014032447621954214e-01,0.000000000000000000e+00,0.000000000000000000e+00,1.110000000000000000e+02
1.000000000000000000e+00,0.000000000000000000e+00,0.000000000000000000e+00,0.000000000000000000e+00,6.190000000000000000e+02,2.617440223693847656e-01,1.714262962341308594e+00,4.492538472549960638e-01,0.000000000000000000e+00,1.000000000000000000e+00,1.120000000000000000e+02
1.000000000000000000e+00,0.000000000000000000e+00,0.000000000000000000e+00,0.000000000000000000e+00,6.180000000000000000e+02,4.821958541870117188e-01,2.038690090179443359e+00,5.545528757837332456e-01,0.000000000000000000e+00,0.000000000000000000e+00,1.120000000000000000e+02
0.000000000000000000e+00,0.000000000000000000e+00,1.000000000000000000e+00,0.000000000000000000e+00,6.170000000000000000e+02,2.798979282379150391e-01,1.758810043334960938e+00,4.801831696655769477e-01,0.000000000000000000e+00,1.000000000000000000e+00,1.110000000000000000e+02
0.000000000000000000e+00,0.000000000000000000e+00,1.000000000000000000e+00,0.000000000000000000e+00,6.160000000000000000e+02,2.489459514617919922e-01,1.638295888900756836e+00,4.019528066489779783e-01,0.000000000000000000e+00,0.000000000000000000e+00,1.110000000000000000e+02
1.000000000000000000e+00,1.000000000000000000e+00,1.000000000000000000e+00,4.000000000000000000e+00,6.190000000000000000e+02,2.749500274658203125e-01,1.837653875350952148e+00,5.728087287139908002e-01,0.000000000000000000e+00,1.000000000000000000e+00,1.120000000000000000e+02
1.000000000000000000e+00,1.000000000000000000e+00,1.000000000000000000e+00,4.000000000000000000e+00,6.220000000000000000e+02,3.486740589141845703e-01,1.714680194854736328e+00,3.711090978911840144e-01,0.000000000000000000e+00,0.000000000000000000e+00,1.120000000000000000e+02
1.000000000000000000e+00,1.000000000000000000e+00,1.000000000000000000e+00,3.000000000000000000e+00,6.240000000000000000e+02,3.410499095916748047e-01,1.757477998733520508e+00,4.285922562397399549e-01,0.000000000000000000e+00,0.000000000000000000e+00,1.120000000000000000e+02
1.000000000000000000e+00,1.000000000000000000e+00,1.000000000000000000e+00,2.000000000000000000e+00,6.250000000000000000e+02,3.301129341125488281e-01,1.646793842315673828e+00,3.255777320679664188e-01,0.000000000000000000e+00,1.000000000000000000e+00,1.110000000000000000e+02
0.000000000000000000e+00,0.000000000000000000e+00,1.000000000000000000e+00,0.000000000000000000e+00,6.240000000000000000e+02,3.011889457702636719e-01,1.628385066986083984e+00,3.373364164640176299e-01,0.000000000000000000e+00,1.000000000000000000e+00,1.120000000000000000e+02
0.000000000000000000e+00,0.000000000000000000e+00,1.000000000000000000e+00,0.000000000000000000e+00,6.230000000000000000e+02,4.979629516601562500e-01,1.899972200393676758e+00,4.039647802773703167e-01,0.000000000000000000e+00,0.000000000000000000e+00,1.120000000000000000e+02
0.000000000000000000e+00,1.000000000000000000e+00,0.000000000000000000e+00,4.000000000000000000e+00,6.260000000000000000e+02,2.926940917968750000e-01,1.726644039154052734e+00,4.473129306737416711e-01,1.000000000000000000e+00,1.000000000000000000e+00,1.110000000000000000e+02
0.000000000000000000e+00,1.000000000000000000e+00,0.000000000000000000e+00,2.000000000000000000e+00,6.270000000000000000e+02,2.574410438537597656e-01,1.876863002777099609e+00,6.407050445778403880e-01,0.000000000000000000e+00,0.000000000000000000e+00,1.110000000000000000e+02
1.000000000000000000e+00,0.000000000000000000e+00,0.000000000000000000e+00,0.000000000000000000e+00,6.260000000000000000e+02,2.750930786132812500e-01,1.951565980911254883e+00,6.923009631462326841e-01,0.000000000000000000e+00,0.000000000000000000e+00,1.110000000000000000e+02
0.000000000000000000e+00,1.000000000000000000e+00,0.000000000000000000e+00,3.000000000000000000e+00,6.280000000000000000e+02,2.632088661193847656e-01,1.647274971008300781e+00,3.899595469319719343e-01,0.000000000000000000e+00,0.000000000000000000e+00,1.110000000000000000e+02
0.000000000000000000e+00,1.000000000000000000e+00,0.000000000000000000e+00,2.000000000000000000e+00,6.290000000000000000e+02,2.872219085693359375e-01,1.751049041748046875e+00,4.743156421364936315e-01,0.000000000000000000e+00,0.000000000000000000e+00,1.110000000000000000e+02
0.000000000000000000e+00,0.000000000000000000e+00,1.000000000000000000e+00,0.000000000000000000e+00,6.280000000000000000e+02,3.012938499450683594e-01,1.933447122573852539e+00,6.409606391194173636e-01,0.000000000000000000e+00,0.000000000000000000e+00,1.110000000000000000e+02
1.000000000000000000e+00,0.000000000000000000e+00,0.000000000000000000e+00,0.000000000000000000e+00,6.270000000000000000e+02,2.281429767608642578e-01,1.883777856826782227e+00,6.748011152752000363e-01,0.000000000000000000e+00,1.000000000000000000e+00,1.120000000000000000e+02
1.000000000000000000e+00,1.000000000000000000e+00,1.000000000000000000e+00,4.000000000000000000e+00,6.300000000000000000e+02,5.408668518066406250e-01,2.242564916610717773e+00,7.173713727662935913e-01,0.000000000000000000e+00,0.000000000000000000e+00,1.120000000000000000e+02
1.000000000000000000e+00,0.000000000000000000e+00,0.000000000000000000e+00,0.000000000000000000e+00,6.290000000000000000e+02,2.548918724060058594e-01,1.845674991607666016e+00,5.966186570618394747e-01,0.000000000000000000e+00,1.000000000000000000e+00,1.110000000000000000e+02
0.000000000000000000e+00,0.000000000000000000e+00,1.000000000000000000e+00,0.000000000000000000e+00,6.280000000000000000e+02,2.686340808868408203e-01,1.791908979415893555e+00,5.386979357651228151e-01,0.000000000000000000e+00,0.000000000000000000e+00,1.110000000000000000e+02
0.000000000000000000e+00,0.000000000000000000e+00,1.000000000000000000e+00,0.000000000000000000e+00,6.270000000000000000e+02,7.036519050598144531e-01,2.373679161071777344e+00,6.789362748167111494e-01,0.000000000000000000e+00,0.000000000000000000e+00,1.110000000000000000e+02
0.000000000000000000e+00,0.000000000000000000e+00,1.000000000000000000e+00,0.000000000000000000e+00,6.260000000000000000e+02,4.290690422058105469e-01,1.865840911865234375e+00,4.451129180757894543e-01,0.000000000000000000e+00,1.000000000000000000e+00,1.120000000000000000e+02
1.000000000000000000e+00,0.000000000000000000e+00,0.000000000000000000e+00,0.000000000000000000e+00,6.250000000000000000e+02,2.764868736267089844e-01,1.748437166213989258e+00,4.935704551088701542e-01,0.000000000000000000e+00,1.000000000000000000e+00,1.110000000000000000e+02
0.000000000000000000e+00,1.000000000000000000e+00,0.000000000000000000e+00,1.000000000000000000e+00,6.250000000000000000e+02,2.175340652465820312e-01,1.512579917907714844e+00,3.064069926030255631e-01,0.000000000000000000e+00,0.000000000000000000e+00,1.110000000000000000e+02
0.000000000000000000e+00,0.000000000000000000e+00,1.000000000000000000e+00,0.000000000000000000e+00,6.240000000000000000e+02,2.598829269409179688e-01,1.818280935287475586e+00,5.744721018509245658e-01,0.000000000000000000e+00,0.000000000000000000e+00,1.110000000000000000e+02
0.000000000000000000e+00,1.000000000000000000e+00,0.000000000000000000e+00,2.000000000000000000e+00,6.250000000000000000e+02,2.163040637969970703e-01,1.935672998428344727e+00,7.267073030738049333e-01,0.000000000000000000e+00,1.000000000000000000e+00,1.120000000000000000e+02
0.000000000000000000e+00,0.000000000000000000e+00,1.000000000000000000e+00,0.000000000000000000e+00,6.240000000000000000e+02,2.250299453735351562e-01,1.776218891143798828e+00,5.698440477159995021e-01,0.000000000000000000e+00,1.000000000000000000e+00,1.110000000000000000e+02
1.000000000000000000e+00,0.000000000000000000e+00,0.000000000000000000e+00,0.000000000000000000e+00,6.230000000000000000e+02,2.587609291076660156e-01,1.872649192810058594e+00,6.258780504040670767e-01,1.000000000000000000e+00,1.000000000000000000e+00,1.120000000000000000e+02
1.000000000000000000e+00,0.000000000000000000e+00,0.000000000000000000e+00,0.000000000000000000e+00,6.220000000000000000e+02,3.072140216827392578e-01,1.686285972595214844e+00,3.957729025631048780e-01,0.000000000000000000e+00,1.000000000000000000e+00,1.110000000000000000e+02
1.000000000000000000e+00,1.000000000000000000e+00,1.000000000000000000e+00,3.000000000000000000e+00,6.240000000000000000e+02,2.809288501739501953e-01,1.869983911514282227e+00,5.989332771436087777e-01,0.000000000000000000e+00,0.000000000000000000e+00,1.110000000000000000e+02
1.000000000000000000e+00,0.000000000000000000e+00,0.000000000000000000e+00,0.000000000000000000e+00,6.230000000000000000e+02,2.936577796936035156e-01,1.578373193740844727e+00,2.943813338027586046e-01,0.000000000000000000e+00,1.000000000000000000e+00,1.120000000000000000e+02
0.000000000000000000e+00,0.000000000000000000e+00,1.000000000000000000e+00,0.000000000000000000e+00,6.220000000000000000e+02,2.480359077453613281e-01,1.775437831878662109e+00,5.362995366118019636e-01,0.000000000000000000e+00,0.000000000000000000e+00,1.120000000000000000e+02
0.000000000000000000e+00,1.000000000000000000e+00,0.000000000000000000e+00,2.000000000000000000e+00,6.230000000000000000e+02,2.637660503387451172e-01,1.637714147567749023e+00,3.742421808881333800e-01,0.000000000000000000e+00,0.000000000000000000e+00,1.120000000000000000e+02
0.000000000000000000e+00,0.000000000000000000e+00,1.000000000000000000e+00,0.000000000000000000e+00,6.220000000000000000e+02,5.054819583892822266e-01,2.173650979995727539e+00,6.810041290431152472e-01,0.000000000000000000e+00,0.000000000000000000e+00,1.120000000000000000e+02
1.000000000000000000e+00,0.000000000000000000e+00,0.000000000000000000e+00,0.000000000000000000e+00,6.210000000000000000e+02,2.448868751525878906e-01,1.657707929611206055e+00,4.389983676140365998e-01,0.000000000000000000e+00,0.000000000000000000e+00,1.120000000000000000e+02
0.000000000000000000e+00,0.000000000000000000e+00,1.000000000000000000e+00,0.000000000000000000e+00,6.200000000000000000e+02,2.872738838195800781e-01,1.719007015228271484e+00,4.414229213150754338e-01,0.000000000000000000e+00,0.000000000000000000e+00,1.120000000000000000e+02
0.000000000000000000e+00,0.000000000000000000e+00,1.000000000000000000e+00,0.000000000000000000e+00,6.190000000000000000e+02,8.606851100921630859e-01,2.182873010635375977e+00,3.411649507734320630e-01,0.000000000000000000e+00,0.000000000000000000e+00,1.120000000000000000e+02
0.000000000000000000e+00,0.000000000000000000e+00,1.000000000000000000e+00,0.000000000000000000e+00,6.180000000000000000e+02,9.746091365814208984e-01,9.691783905029296875e+00,5.331020199205329657e-01,1.000000000000000000e+00,0.000000000000000000e+00,1.120000000000000000e+02
1.000000000000000000e+00,1.000000000000000000e+00,1.000000000000000000e+00,3.000000000000000000e+00,6.200000000000000000e+02,2.788288593292236328e-01,1.897326946258544922e+00,6.137798744424687314e-01,0.000000000000000000e+00,1.000000000000000000e+00,1.110000000000000000e+02
0.000000000000000000e+00,0.000000000000000000e+00,1.000000000000000000e+00,0.000000000000000000e+00,6.190000000000000000e+02,3.285009860992431641e-01,1.585375785827636719e+00,2.662513774809134870e-01,0.000000000000000000e+00,0.000000000000000000e+00,1.110000000000000000e+02
0.000000000000000000e+00,1.000000000000000000e+00,0.000000000000000000e+00,1.000000000000000000e+00,6.190000000000000000e+02,4.155678749084472656e-01,2.144074916839599609e+00,7.264041577675239836e-01,0.000000000000000000e+00,1.000000000000000000e+00,1.120000000000000000e+02
1.000000000000000000e+00,0.000000000000000000e+00,0.000000000000000000e+00,0.000000000000000000e+00,6.190000000000000000e+02,8.828091621398925781e-02,5.532480955123901367e+00,3.263558818533060513e-01,-2.000000000000000000e+00,-2.000000000000000000e+00,1.120000000000000000e+02
1.000000000000000000e+00,0.000000000000000000e+00,0.000000000000000000e+00,0.000000000000000000e+00,6.180000000000000000e+02,3.901829719543457031e-01,1.905546188354492188e+00,5.317563796358093509e-01,0.000000000000000000e+00,0.000000000000000000e+00,1.120000000000000000e+02
0.000000000000000000e+00,0.000000000000000000e+00,1.000000000000000000e+00,0.000000000000000000e+00,6.170000000000000000e+02,3.025419712066650391e-01,1.850488901138305664e+00,5.489760431671890650e-01,0.000000000000000000e+00,0.000000000000000000e+00,1.120000000000000000e+02
1.000000000000000000e+00,1.000000000000000000e+00,1.000000000000000000e+00,0.000000000000000000e+00,6.160000000000000000e+02,3.266818523406982422e-01,1.731464147567749023e+00,4.139938304333689589e-01,0.000000000000000000e+00,1.000000000000000000e+00,1.110000000000000000e+02
0.000000000000000000e+00,0.000000000000000000e+00,1.000000000000000000e+00,0.000000000000000000e+00,6.150000000000000000e+02,2.999439239501953125e-01,1.965319871902465820e+00,6.790988370708076483e-01,0.000000000000000000e+00,1.000000000000000000e+00,1.120000000000000000e+02
1.000000000000000000e+00,1.000000000000000000e+00,1.000000000000000000e+00,4.000000000000000000e+00,6.180000000000000000e+02,3.424289226531982422e-01,1.622896909713745117e+00,3.024883493503965348e-01,0.000000000000000000e+00,1.000000000000000000e+00,1.110000000000000000e+02
0.000000000000000000e+00,0.000000000000000000e+00,1.000000000000000000e+00,0.000000000000000000e+00,6.170000000000000000e+02,5.502071380615234375e-01,2.251131057739257812e+00,7.032760452582973443e-01,0.000000000000000000e+00,0.000000000000000000e+00,1.110000000000000000e+02
1.000000000000000000e+00,1.000000000000000000e+00,1.000000000000000000e+00,3.000000000000000000e+00,6.190000000000000000e+02,2.722699642181396484e-01,1.605015993118286133e+00,3.420542515284452079e-01,0.000000000000000000e+00,1.000000000000000000e+00,1.120000000000000000e+02
1.000000000000000000e+00,1.000000000000000000e+00,1.000000000000000000e+00,2.000000000000000000e+00,6.200000000000000000e+02,6.262838840484619141e-01,1.999194145202636719e+00,3.913023958894136789e-01,0.000000000000000000e+00,1.000000000000000000e+00,1.110000000000000000e+02
0.000000000000000000e+00,0.000000000000000000e+00,1.000000000000000000e+00,0.000000000000000000e+00,6.190000000000000000e+02,2.723929882049560547e-01,1.886893033981323242e+00,6.280630275981741173e-01,0.000000000000000000e+00,0.000000000000000000e+00,1.110000000000000000e+02
1.000000000000000000e+00,1.000000000000000000e+00,1.000000000000000000e+00,1.000000000000000000e+00,6.190000000000000000e+02,2.201781272888183594e-01,1.514189958572387695e+00,3.092786916456468083e-01,0.000000000000000000e+00,1.000000000000000000e+00,1.120000000000000000e+02
1.000000000000000000e+00,1.000000000000000000e+00,1.000000000000000000e+00,4.000000000000000000e+00,6.220000000000000000e+02,2.705101966857910156e-01,1.662707090377807617e+00,4.052564207924350681e-01,1.000000000000000000e+00,0.000000000000000000e+00,1.120000000000000000e+02
1.000000000000000000e+00,0.000000000000000000e+00,0.000000000000000000e+00,0.000000000000000000e+00,6.210000000000000000e+02,2.678759098052978516e-01,1.822793006896972656e+00,5.612852838154731572e-01,0.000000000000000000e+00,1.000000000000000000e+00,1.110000000000000000e+02
0.000000000000000000e+00,1.000000000000000000e+00,0.000000000000000000e+00,3.000000000000000000e+00,6.230000000000000000e+02,2.972729206085205078e-01,1.538768053054809570e+00,2.504594193000198032e-01,0.000000000000000000e+00,1.000000000000000000e+00,1.120000000000000000e+02
0.000000000000000000e+00,0.000000000000000000e+00,1.000000000000000000e+00,0.000000000000000000e+00,6.220000000000000000e+02,2.913758754730224609e-01,1.612684965133666992e+00,3.297471924619122530e-01,0.000000000000000000e+00,0.000000000000000000e+00,1.120000000000000000e+02
1.000000000000000000e+00,0.000000000000000000e+00,0.000000000000000000e+00,0.000000000000000000e+00,6.210000000000000000e+02,2.412590980529785156e-01,1.813437938690185547e+00,5.929966550246521528e-01,0.000000000000000000e+00,1.000000000000000000e+00,1.110000000000000000e+02
1.000000000000000000e+00,1.000000000000000000e+00,1.000000000000000000e+00,0.000000000000000000e+00,6.200000000000000000e+02,2.457439899444580078e-01,1.859014034271240234e+00,6.187046114480779790e-01,0.000000000000000000e+00,1.000000000000000000e+00,1.120000000000000000e+02
0.000000000000000000e+00,1.000000000000000000e+00,0.000000000000000000e+00,1.000000000000000000e+00,6.200000000000000000e+02,2.891869544982910156e-01,1.767708063125610352e+00,4.866419054655909959e-01,0.000000000000000000e+00,1.000000000000000000e+00,1.110000000000000000e+02
0.000000000000000000e+00,0.000000000000000000e+00,1.000000000000000000e+00,0.000000000000000000e+00,6.190000000000000000e+02,2.415111064910888672e-01,1.605356931686401367e+00,3.754964839098045570e-01,0.000000000000000000e+00,1.000000000000000000e+00,1.120000000000000000e+02
1.000000000000000000e+00,1.000000000000000000e+00,1.000000000000000000e+00,3.000000000000000000e+00,6.210000000000000000e+02,2.055108547210693359e-01,1.494709968566894531e+00,3.036842469341726747e-01,0.000000000000000000e+00,0.000000000000000000e+00,1.120000000000000000e+02
1.000000000000000000e+00,1.000000000000000000e+00,1.000000000000000000e+00,2.000000000000000000e+00,6.220000000000000000e+02,2.695891857147216797e-01,1.729593992233276367e+00,4.665010934852376057e-01,0.000000000000000000e+00,0.000000000000000000e+00,1.120000000000000000e+02
1.000000000000000000e+00,0.000000000000000000e+00,0.000000000000000000e+00,0.000000000000000000e+00,6.210000000000000000e+02,2.433640956878662109e-01,1.808995962142944336e+00,5.754814174657856274e-01,0.000000000000000000e+00,0.000000000000000000e+00,1.120000000000000000e+02
0.000000000000000000e+00,1.000000000000000000e+00,0.000000000000000000e+00,2.000000000000000000e+00,6.220000000000000000e+02,3.474481105804443359e-01,1.942667007446289062e+00,6.012224954806263399e-01,0.000000000000000000e+00,1.000000000000000000e+00,1.110000000000000000e+02
0.000000000000000000e+00,1.000000000000000000e+00,0.000000000000000000e+00,3.000000000000000000e+00,6.240000000000000000e+02,2.234671115875244141e-01,1.496917963027954102e+00,2.821700217350466833e-01,0.000000000000000000e+00,1.000000000000000000e+00,1.120000000000000000e+02
0.000000000000000000e+00,1.000000000000000000e+00,0.000000000000000000e+00,4.000000000000000000e+00,6.270000000000000000e+02,2.472231388092041016e-01,1.653876066207885742e+00,4.192808900852447729e-01,0.000000000000000000e+00,0.000000000000000000e+00,1.120000000000000000e+02
0.000000000000000000e+00,0.000000000000000000e+00,1.000000000000000000e+00,0.000000000000000000e+00,6.260000000000000000e+02,2.326099872589111328e-01,1.980218887329101562e+00,7.492118845855377796e-01,0.000000000000000000e+00,1.000000000000000000e+00,1.110000000000000000e+02
1.000000000000000000e+00,0.000000000000000000e+00,0.000000000000000000e+00,0.000000000000000000e+00,6.250000000000000000e+02,2.383730411529541016e-01,1.894699096679687500e+00,6.607510909813161248e-01,1.000000000000000000e+00,0.000000000000000000e+00,1.110000000000000000e+02
0.000000000000000000e+00,1.000000000000000000e+00,0.000000000000000000e+00,1.000000000000000000e+00,6.250000000000000000e+02,3.379981517791748047e-01,1.809091091156005859e+00,4.867848187582048403e-01,0.000000000000000000e+00,0.000000000000000000e+00,1.110000000000000000e+02
0.000000000000000000e+00,1.000000000000000000e+00,0.000000000000000000e+00,2.000000000000000000e+00,6.260000000000000000e+02,3.144550323486328125e-01,1.961317062377929688e+00,6.479975486671671892e-01,0.000000000000000000e+00,0.000000000000000000e+00,1.110000000000000000e+02
1.000000000000000000e+00,1.000000000000000000e+00,1.000000000000000000e+00,2.000000000000000000e+00,6.270000000000000000e+02,2.065539360046386719e-01,1.798864841461181641e+00,6.136520349154641618e-01,0.000000000000000000e+00,1.000000000000000000e+00,1.120000000000000000e+02
0.000000000000000000e+00,0.000000000000000000e+00,1.000000000000000000e+00,0.000000000000000000e+00,6.260000000000000000e+02,2.326290607452392578e-01,1.834390163421630859e+00,6.147599717592739932e-01,0.000000000000000000e+00,1.000000000000000000e+00,1.110000000000000000e+02
1.000000000000000000e+00,0.000000000000000000e+00,0.000000000000000000e+00,0.000000000000000000e+00,6.250000000000000000e+02,3.264110088348388672e-01,1.968578100204467773e+00,6.666792176584184215e-01,0.000000000000000000e+00,0.000000000000000000e+00,1.110000000000000000e+02
0.000000000000000000e+00,1.000000000000000000e+00,0.000000000000000000e+00,2.000000000000000000e+00,6.260000000000000000e+02,2.590630054473876953e-01,1.801556825637817383e+00,5.517857019636439597e-01,0.000000000000000000e+00,0.000000000000000000e+00,1.110000000000000000e+02
0.000000000000000000e+00,0.000000000000000000e+00,1.000000000000000000e+00,0.000000000000000000e+00,6.250000000000000000e+02,1.560909748077392578e-01,1.621565818786621094e+00,4.735041895867988515e-01,0.000000000000000000e+00,0.000000000000000000e+00,1.110000000000000000e+02
0.000000000000000000e+00,1.000000000000000000e+00,0.000000000000000000e+00,2.000000000000000000e+00,6.260000000000000000e+02,5.855731964111328125e-01,1.828358888626098633e+00,2.521609940996045185e-01,0.000000000000000000e+00,0.000000000000000000e+00,1.110000000000000000e+02
0.000000000000000000e+00,0.000000000000000000e+00,1.000000000000000000e+00,0.000000000000000000e+00,6.250000000000000000e+02,4.392650127410888672e-01,2.055322170257568359e+00,6.238361446054943027e-01,0.000000000000000000e+00,0.000000000000000000e+00,1.110000000000000000e+02
1.000000000000000000e+00,1.000000000000000000e+00,1.000000000000000000e+00,3.000000000000000000e+00,6.270000000000000000e+02,3.463618755340576172e-01,1.920453071594238281e+00,5.777584420325325709e-01,0.000000000000000000e+00,0.000000000000000000e+00,1.110000000000000000e+02
1.000000000000000000e+00,0.000000000000000000e+00,0.000000000000000000e+00,0.000000000000000000e+00,6.260000000000000000e+02,6.087610721588134766e-01,1.992513895034790039e+00,4.038681092477621748e-01,0.000000000000000000e+00,0.000000000000000000e+00,1.110000000000000000e+02
1.000000000000000000e+00,1.000000000000000000e+00,1.000000000000000000e+00,3.000000000000000000e+00,6.280000000000000000e+02,6.619269847869873047e-01,2.293774127960205078e+00,6.308091137111024871e-01,0.000000000000000000e+00,0.000000000000000000e+00,1.110000000000000000e+02
0.000000000000000000e+00,0.000000000000000000e+00,1.000000000000000000e+00,0.000000000000000000e+00,6.270000000000000000e+02,2.626399993896484375e-01,1.715857028961181641e+00,4.636115960265358993e-01,0.000000000000000000e+00,1.000000000000000000e+00,1.120000000000000000e+02
0.000000000000000000e+00,1.000000000000000000e+00,0.000000000000000000e+00,4.000000000000000000e+00,6.300000000000000000e+02,2.539768218994140625e-01,1.813976049423217773e+00,5.774857831085861148e-01,0.000000000000000000e+00,1.000000000000000000e+00,1.110000000000000000e+02
0.000000000000000000e+00,1.000000000000000000e+00,0.000000000000000000e+00,2.000000000000000000e+00,6.310000000000000000e+02,2.423818111419677734e-01,1.834325075149536133e+00,6.118787558570099039e-01,0.000000000000000000e+00,0.000000000000000000e+00,1.110000000000000000e+02
1.000000000000000000e+00,0.000000000000000000e+00,0.000000000000000000e+00,0.000000000000000000e+00,6.300000000000000000e+02,3.440229892730712891e-01,1.711659908294677734e+00,3.904902000993835109e-01,1.000000000000000000e+00,1.000000000000000000e+00,1.120000000000000000e+02
