choice, accuracy, solution,  reward, cumulative_reward, rt,  total_trial_time, iti, cp_with_slow_fast, obs_cp_with_slow_fast, high_val_cue
1.000000000000000000e+00,1.000000000000000000e+00,1.000000000000000000e+00,4.000000000000000000e+00,6.030000000000000000e+02,5.279121398925781250e-01,2.169718980789184570e+00,6.378726734363064921e-01,0.000000000000000000e+00,0.000000000000000000e+00,1.120000000000000000e+02
0.000000000000000000e+00,1.000000000000000000e+00,0.000000000000000000e+00,3.000000000000000000e+00,6.050000000000000000e+02,3.362350463867187500e-01,2.068355083465576172e+00,7.395869063054871795e-01,0.000000000000000000e+00,0.000000000000000000e+00,1.120000000000000000e+02
1.000000000000000000e+00,1.000000000000000000e+00,1.000000000000000000e+00,3.000000000000000000e+00,6.070000000000000000e+02,2.887649536132812500e-01,2.005177974700927734e+00,7.282021283595019323e-01,0.000000000000000000e+00,0.000000000000000000e+00,1.120000000000000000e+02
0.000000000000000000e+00,0.000000000000000000e+00,1.000000000000000000e+00,0.000000000000000000e+00,6.060000000000000000e+02,2.916429042816162109e-01,1.796548128128051758e+00,5.250413132721314380e-01,0.000000000000000000e+00,1.000000000000000000e+00,1.110000000000000000e+02
1.000000000000000000e+00,1.000000000000000000e+00,1.000000000000000000e+00,2.000000000000000000e+00,6.070000000000000000e+02,2.997670173645019531e-01,1.934734106063842773e+00,6.430602550500500447e-01,0.000000000000000000e+00,1.000000000000000000e+00,1.120000000000000000e+02
0.000000000000000000e+00,1.000000000000000000e+00,0.000000000000000000e+00,3.000000000000000000e+00,6.090000000000000000e+02,2.705338001251220703e-01,1.640821933746337891e+00,3.842412363614023385e-01,0.000000000000000000e+00,0.000000000000000000e+00,1.120000000000000000e+02
1.000000000000000000e+00,1.000000000000000000e+00,1.000000000000000000e+00,2.000000000000000000e+00,6.100000000000000000e+02,3.164851665496826172e-01,1.830239057540893555e+00,5.144298439827266201e-01,0.000000000000000000e+00,0.000000000000000000e+00,1.120000000000000000e+02
1.000000000000000000e+00,1.000000000000000000e+00,1.000000000000000000e+00,3.000000000000000000e+00,6.120000000000000000e+02,5.049250125885009766e-01,1.976714849472045898e+00,4.912612653561735931e-01,0.000000000000000000e+00,0.000000000000000000e+00,1.120000000000000000e+02
0.000000000000000000e+00,1.000000000000000000e+00,0.000000000000000000e+00,2.000000000000000000e+00,6.130000000000000000e+02,2.587370872497558594e-01,1.876977205276489258e+00,6.348455989479492301e-01,0.000000000000000000e+00,0.000000000000000000e+00,1.120000000000000000e+02
1.000000000000000000e+00,1.000000000000000000e+00,1.000000000000000000e+00,3.000000000000000000e+00,6.150000000000000000e+02,3.264400959014892578e-01,1.797049045562744141e+00,4.821213452359845442e-01,0.000000000000000000e+00,0.000000000000000000e+00,1.120000000000000000e+02
0.000000000000000000e+00,1.000000000000000000e+00,0.000000000000000000e+00,3.000000000000000000e+00,6.170000000000000000e+02,3.213851451873779297e-01,1.916903972625732422e+00,5.989975105072393724e-01,0.000000000000000000e+00,0.000000000000000000e+00,1.120000000000000000e+02
0.000000000000000000e+00,1.000000000000000000e+00,0.000000000000000000e+00,2.000000000000000000e+00,6.180000000000000000e+02,2.527701854705810547e-01,1.607702970504760742e+00,3.570557792835596378e-01,0.000000000000000000e+00,0.000000000000000000e+00,1.120000000000000000e+02
0.000000000000000000e+00,1.000000000000000000e+00,0.000000000000000000e+00,6.000000000000000000e+00,6.230000000000000000e+02,4.899289608001708984e-01,1.756438970565795898e+00,2.802863257568345978e-01,0.000000000000000000e+00,0.000000000000000000e+00,1.120000000000000000e+02
1.000000000000000000e+00,1.000000000000000000e+00,1.000000000000000000e+00,3.000000000000000000e+00,6.250000000000000000e+02,3.928611278533935547e-01,1.797385215759277344e+00,4.276525938876600264e-01,0.000000000000000000e+00,0.000000000000000000e+00,1.120000000000000000e+02
1.000000000000000000e+00,1.000000000000000000e+00,1.000000000000000000e+00,2.000000000000000000e+00,6.260000000000000000e+02,2.939410209655761719e-01,1.748713970184326172e+00,4.763818667710428834e-01,0.000000000000000000e+00,0.000000000000000000e+00,1.120000000000000000e+02
1.000000000000000000e+00,1.000000000000000000e+00,1.000000000000000000e+00,3.000000000000000000e+00,6.280000000000000000e+02,3.780510425567626953e-01,1.638477087020874023e+00,2.818324463030539295e-01,0.000000000000000000e+00,0.000000000000000000e+00,1.120000000000000000e+02
1.000000000000000000e+00,1.000000000000000000e+00,1.000000000000000000e+00,3.000000000000000000e+00,6.300000000000000000e+02,3.437180519104003906e-01,1.804658889770507812e+00,4.863519754012912144e-01,0.000000000000000000e+00,0.000000000000000000e+00,1.120000000000000000e+02
1.000000000000000000e+00,1.000000000000000000e+00,1.000000000000000000e+00,4.000000000000000000e+00,6.330000000000000000e+02,3.281309604644775391e-01,1.910279989242553711e+00,5.799508380805953323e-01,0.000000000000000000e+00,0.000000000000000000e+00,1.120000000000000000e+02
0.000000000000000000e+00,1.000000000000000000e+00,0.000000000000000000e+00,1.000000000000000000e+00,6.330000000000000000e+02,2.702400684356689453e-01,1.578480005264282227e+00,3.254480618055107244e-01,0.000000000000000000e+00,0.000000000000000000e+00,1.120000000000000000e+02
1.000000000000000000e+00,1.000000000000000000e+00,1.000000000000000000e+00,4.000000000000000000e+00,6.360000000000000000e+02,2.549638748168945312e-01,1.927326202392578125e+00,6.858270989988553001e-01,0.000000000000000000e+00,0.000000000000000000e+00,1.120000000000000000e+02
0.000000000000000000e+00,1.000000000000000000e+00,0.000000000000000000e+00,2.000000000000000000e+00,6.370000000000000000e+02,2.597289085388183594e-01,1.849546909332275391e+00,6.022168441865740629e-01,0.000000000000000000e+00,0.000000000000000000e+00,1.120000000000000000e+02
0.000000000000000000e+00,1.000000000000000000e+00,0.000000000000000000e+00,0.000000000000000000e+00,6.360000000000000000e+02,2.527348995208740234e-01,1.716392993927001953e+00,4.688353398711247455e-01,0.000000000000000000e+00,0.000000000000000000e+00,1.120000000000000000e+02
1.000000000000000000e+00,1.000000000000000000e+00,1.000000000000000000e+00,3.000000000000000000e+00,6.380000000000000000e+02,3.321349620819091797e-01,1.745912075042724609e+00,4.148974122855432212e-01,0.000000000000000000e+00,0.000000000000000000e+00,1.120000000000000000e+02
0.000000000000000000e+00,1.000000000000000000e+00,0.000000000000000000e+00,2.000000000000000000e+00,6.390000000000000000e+02,2.839210033416748047e-01,1.999284982681274414e+00,7.306142630672463056e-01,0.000000000000000000e+00,0.000000000000000000e+00,1.120000000000000000e+02
1.000000000000000000e+00,1.000000000000000000e+00,1.000000000000000000e+00,3.000000000000000000e+00,6.410000000000000000e+02,2.849841117858886719e-01,1.603234052658081055e+00,3.343457412768310322e-01,0.000000000000000000e+00,0.000000000000000000e+00,1.120000000000000000e+02
0.000000000000000000e+00,1.000000000000000000e+00,0.000000000000000000e+00,3.000000000000000000e+00,6.430000000000000000e+02,3.322570323944091797e-01,1.813488960266113281e+00,4.810965886364534927e-01,0.000000000000000000e+00,0.000000000000000000e+00,1.120000000000000000e+02
0.000000000000000000e+00,1.000000000000000000e+00,0.000000000000000000e+00,3.000000000000000000e+00,6.450000000000000000e+02,2.724759578704833984e-01,1.618031978607177734e+00,3.660004782465102191e-01,0.000000000000000000e+00,0.000000000000000000e+00,1.120000000000000000e+02
1.000000000000000000e+00,1.000000000000000000e+00,1.000000000000000000e+00,1.000000000000000000e+00,6.450000000000000000e+02,3.200969696044921875e-01,1.827506780624389648e+00,5.100809042719874897e-01,0.000000000000000000e+00,0.000000000000000000e+00,1.120000000000000000e+02
1.000000000000000000e+00,0.000000000000000000e+00,0.000000000000000000e+00,0.000000000000000000e+00,6.440000000000000000e+02,3.214821815490722656e-01,1.755148172378540039e+00,4.487457377620660548e-01,0.000000000000000000e+00,1.000000000000000000e+00,1.110000000000000000e+02
0.000000000000000000e+00,0.000000000000000000e+00,1.000000000000000000e+00,0.000000000000000000e+00,6.430000000000000000e+02,2.459578514099121094e-01,1.945960044860839844e+00,6.945380321894287778e-01,1.000000000000000000e+00,0.000000000000000000e+00,1.110000000000000000e+02
0.000000000000000000e+00,0.000000000000000000e+00,1.000000000000000000e+00,0.000000000000000000e+00,6.420000000000000000e+02,2.456030845642089844e-01,1.951134920120239258e+00,7.124138467038583222e-01,0.000000000000000000e+00,1.000000000000000000e+00,1.120000000000000000e+02
0.000000000000000000e+00,1.000000000000000000e+00,0.000000000000000000e+00,4.000000000000000000e+00,6.450000000000000000e+02,2.867820262908935547e-01,1.854366064071655273e+00,5.836648490168094838e-01,0.000000000000000000e+00,1.000000000000000000e+00,1.110000000000000000e+02
0.000000000000000000e+00,0.000000000000000000e+00,1.000000000000000000e+00,0.000000000000000000e+00,6.440000000000000000e+02,2.700579166412353516e-01,1.772068977355957031e+00,5.059047927404947131e-01,0.000000000000000000e+00,1.000000000000000000e+00,1.120000000000000000e+02
0.000000000000000000e+00,1.000000000000000000e+00,0.000000000000000000e+00,3.000000000000000000e+00,6.460000000000000000e+02,2.535920143127441406e-01,1.584277868270874023e+00,3.404789079312023348e-01,0.000000000000000000e+00,1.000000000000000000e+00,1.110000000000000000e+02
1.000000000000000000e+00,1.000000000000000000e+00,1.000000000000000000e+00,4.000000000000000000e+00,6.490000000000000000e+02,2.852640151977539062e-01,1.625008106231689453e+00,3.488627681490517607e-01,0.000000000000000000e+00,0.000000000000000000e+00,1.110000000000000000e+02
1.000000000000000000e+00,1.000000000000000000e+00,1.000000000000000000e+00,2.000000000000000000e+00,6.500000000000000000e+02,2.479929924011230469e-01,1.535826921463012695e+00,2.848573201927766529e-01,0.000000000000000000e+00,0.000000000000000000e+00,1.110000000000000000e+02
0.000000000000000000e+00,0.000000000000000000e+00,1.000000000000000000e+00,0.000000000000000000e+00,6.490000000000000000e+02,3.707499504089355469e-01,1.711282968521118164e+00,3.461291111927969344e-01,0.000000000000000000e+00,1.000000000000000000e+00,1.120000000000000000e+02
0.000000000000000000e+00,1.000000000000000000e+00,0.000000000000000000e+00,2.000000000000000000e+00,6.500000000000000000e+02,3.056759834289550781e-01,1.794507026672363281e+00,5.072093420247834050e-01,0.000000000000000000e+00,1.000000000000000000e+00,1.110000000000000000e+02
1.000000000000000000e+00,0.000000000000000000e+00,0.000000000000000000e+00,0.000000000000000000e+00,6.490000000000000000e+02,2.867608070373535156e-01,1.927820920944213867e+00,6.516158704142029912e-01,0.000000000000000000e+00,1.000000000000000000e+00,1.120000000000000000e+02
0.000000000000000000e+00,1.000000000000000000e+00,0.000000000000000000e+00,4.000000000000000000e+00,6.520000000000000000e+02,2.375781536102294922e-01,1.956413030624389648e+00,7.247140079751446251e-01,0.000000000000000000e+00,1.000000000000000000e+00,1.110000000000000000e+02
0.000000000000000000e+00,1.000000000000000000e+00,0.000000000000000000e+00,4.000000000000000000e+00,6.550000000000000000e+02,2.616500854492187500e-01,1.748881101608276367e+00,4.906244638743112452e-01,0.000000000000000000e+00,0.000000000000000000e+00,1.110000000000000000e+02
0.000000000000000000e+00,1.000000000000000000e+00,0.000000000000000000e+00,4.000000000000000000e+00,6.580000000000000000e+02,2.416810989379882812e-01,1.756505012512207031e+00,5.304934381209851502e-01,0.000000000000000000e+00,0.000000000000000000e+00,1.110000000000000000e+02
0.000000000000000000e+00,1.000000000000000000e+00,0.000000000000000000e+00,4.000000000000000000e+00,6.610000000000000000e+02,2.706959247589111328e-01,1.646453142166137695e+00,3.938526569396256782e-01,0.000000000000000000e+00,0.000000000000000000e+00,1.110000000000000000e+02
1.000000000000000000e+00,0.000000000000000000e+00,0.000000000000000000e+00,0.000000000000000000e+00,6.600000000000000000e+02,3.107099533081054688e-01,1.558977842330932617e+00,2.696849702143627181e-01,0.000000000000000000e+00,1.000000000000000000e+00,1.120000000000000000e+02
0.000000000000000000e+00,1.000000000000000000e+00,0.000000000000000000e+00,3.000000000000000000e+00,6.620000000000000000e+02,3.911118507385253906e-01,2.070993185043334961e+00,6.903806147773976498e-01,0.000000000000000000e+00,1.000000000000000000e+00,1.110000000000000000e+02
1.000000000000000000e+00,1.000000000000000000e+00,1.000000000000000000e+00,2.000000000000000000e+00,6.630000000000000000e+02,2.635340690612792969e-01,1.661352872848510742e+00,4.020987205490798022e-01,0.000000000000000000e+00,0.000000000000000000e+00,1.110000000000000000e+02
1.000000000000000000e+00,1.000000000000000000e+00,1.000000000000000000e+00,3.000000000000000000e+00,6.650000000000000000e+02,2.929780483245849609e-01,1.590428113937377930e+00,3.093842381801999997e-01,0.000000000000000000e+00,0.000000000000000000e+00,1.110000000000000000e+02
1.000000000000000000e+00,0.000000000000000000e+00,0.000000000000000000e+00,0.000000000000000000e+00,6.640000000000000000e+02,2.987000942230224609e-01,1.742711067199707031e+00,4.520053767263501610e-01,0.000000000000000000e+00,1.000000000000000000e+00,1.120000000000000000e+02
1.000000000000000000e+00,1.000000000000000000e+00,1.000000000000000000e+00,2.000000000000000000e+00,6.650000000000000000e+02,4.948041439056396484e-01,1.849778890609741211e+00,3.519899006680888287e-01,0.000000000000000000e+00,1.000000000000000000e+00,1.110000000000000000e+02
1.000000000000000000e+00,1.000000000000000000e+00,1.000000000000000000e+00,2.000000000000000000e+00,6.660000000000000000e+02,2.928748130798339844e-01,1.676321029663085938e+00,3.949955579574712106e-01,0.000000000000000000e+00,0.000000000000000000e+00,1.110000000000000000e+02
0.000000000000000000e+00,1.000000000000000000e+00,0.000000000000000000e+00,4.000000000000000000e+00,6.690000000000000000e+02,2.832250595092773438e-01,1.558112144470214844e+00,2.866429798875601564e-01,0.000000000000000000e+00,0.000000000000000000e+00,1.110000000000000000e+02
1.000000000000000000e+00,0.000000000000000000e+00,0.000000000000000000e+00,0.000000000000000000e+00,6.680000000000000000e+02,2.496089935302734375e-01,1.811415910720825195e+00,5.645148343190976581e-01,1.000000000000000000e+00,1.000000000000000000e+00,1.120000000000000000e+02
1.000000000000000000e+00,0.000000000000000000e+00,0.000000000000000000e+00,0.000000000000000000e+00,6.670000000000000000e+02,3.156809806823730469e-01,1.561679840087890625e+00,2.599343153231357673e-01,0.000000000000000000e+00,0.000000000000000000e+00,1.120000000000000000e+02
0.000000000000000000e+00,1.000000000000000000e+00,0.000000000000000000e+00,4.000000000000000000e+00,6.700000000000000000e+02,3.880889415740966797e-01,2.057102203369140625e+00,6.833624245443128409e-01,0.000000000000000000e+00,0.000000000000000000e+00,1.120000000000000000e+02
1.000000000000000000e+00,1.000000000000000000e+00,1.000000000000000000e+00,3.000000000000000000e+00,6.720000000000000000e+02,2.814340591430664062e-01,1.796970844268798828e+00,5.139693472827487897e-01,0.000000000000000000e+00,0.000000000000000000e+00,1.120000000000000000e+02
1.000000000000000000e+00,1.000000000000000000e+00,1.000000000000000000e+00,4.000000000000000000e+00,6.750000000000000000e+02,3.341410160064697266e-01,1.771568059921264648e+00,4.523160866004653502e-01,0.000000000000000000e+00,0.000000000000000000e+00,1.120000000000000000e+02
0.000000000000000000e+00,1.000000000000000000e+00,0.000000000000000000e+00,4.000000000000000000e+00,6.780000000000000000e+02,3.029420375823974609e-01,1.870296001434326172e+00,5.725652038719906134e-01,0.000000000000000000e+00,0.000000000000000000e+00,1.120000000000000000e+02
1.000000000000000000e+00,1.000000000000000000e+00,1.000000000000000000e+00,2.000000000000000000e+00,6.790000000000000000e+02,2.912850379943847656e-01,1.836745977401733398e+00,5.594100112826456694e-01,0.000000000000000000e+00,0.000000000000000000e+00,1.120000000000000000e+02
0.000000000000000000e+00,1.000000000000000000e+00,0.000000000000000000e+00,1.000000000000000000e+00,6.790000000000000000e+02,2.900798320770263672e-01,1.744513034820556641e+00,4.707825979085095147e-01,0.000000000000000000e+00,0.000000000000000000e+00,1.120000000000000000e+02
0.000000000000000000e+00,1.000000000000000000e+00,0.000000000000000000e+00,1.000000000000000000e+00,6.790000000000000000e+02,3.281219005584716797e-01,1.649693012237548828e+00,3.373768698521584231e-01,0.000000000000000000e+00,0.000000000000000000e+00,1.120000000000000000e+02
0.000000000000000000e+00,1.000000000000000000e+00,0.000000000000000000e+00,4.000000000000000000e+00,6.820000000000000000e+02,2.921090126037597656e-01,1.671921014785766602e+00,3.926469358722437519e-01,0.000000000000000000e+00,0.000000000000000000e+00,1.120000000000000000e+02
0.000000000000000000e+00,1.000000000000000000e+00,0.000000000000000000e+00,3.000000000000000000e+00,6.840000000000000000e+02,2.516229152679443359e-01,1.674999952316284180e+00,4.343597990086733862e-01,0.000000000000000000e+00,0.000000000000000000e+00,1.120000000000000000e+02
1.000000000000000000e+00,1.000000000000000000e+00,1.000000000000000000e+00,2.000000000000000000e+00,6.850000000000000000e+02,2.912669181823730469e-01,1.982565879821777344e+00,7.000684448940952542e-01,0.000000000000000000e+00,0.000000000000000000e+00,1.120000000000000000e+02
0.000000000000000000e+00,1.000000000000000000e+00,0.000000000000000000e+00,2.000000000000000000e+00,6.860000000000000000e+02,3.510050773620605469e-01,1.734630107879638672e+00,3.851084249848090724e-01,0.000000000000000000e+00,0.000000000000000000e+00,1.120000000000000000e+02
1.000000000000000000e+00,1.000000000000000000e+00,1.000000000000000000e+00,0.000000000000000000e+00,6.850000000000000000e+02,2.937281131744384766e-01,1.553412914276123047e+00,2.720492006649887218e-01,0.000000000000000000e+00,0.000000000000000000e+00,1.120000000000000000e+02
1.000000000000000000e+00,0.000000000000000000e+00,0.000000000000000000e+00,0.000000000000000000e+00,6.840000000000000000e+02,3.367071151733398438e-01,1.964262008666992188e+00,6.360055720410098257e-01,0.000000000000000000e+00,0.000000000000000000e+00,1.120000000000000000e+02
1.000000000000000000e+00,0.000000000000000000e+00,0.000000000000000000e+00,0.000000000000000000e+00,6.830000000000000000e+02,2.681069374084472656e-01,1.731577873229980469e+00,4.679106174813235652e-01,0.000000000000000000e+00,0.000000000000000000e+00,1.120000000000000000e+02
1.000000000000000000e+00,0.000000000000000000e+00,0.000000000000000000e+00,0.000000000000000000e+00,6.820000000000000000e+02,3.129110336303710938e-01,2.062751054763793945e+00,7.471329455100224060e-01,0.000000000000000000e+00,0.000000000000000000e+00,1.120000000000000000e+02
1.000000000000000000e+00,1.000000000000000000e+00,1.000000000000000000e+00,2.000000000000000000e+00,6.830000000000000000e+02,3.099980354309082031e-01,1.639776945114135742e+00,3.373978651562947739e-01,0.000000000000000000e+00,0.000000000000000000e+00,1.120000000000000000e+02
0.000000000000000000e+00,1.000000000000000000e+00,0.000000000000000000e+00,3.000000000000000000e+00,6.850000000000000000e+02,2.980220317840576172e-01,1.577344894409179688e+00,2.815277535076639026e-01,0.000000000000000000e+00,0.000000000000000000e+00,1.120000000000000000e+02
0.000000000000000000e+00,1.000000000000000000e+00,0.000000000000000000e+00,2.000000000000000000e+00,6.860000000000000000e+02,2.593839168548583984e-01,1.665898084640502930e+00,4.306893967185412286e-01,0.000000000000000000e+00,0.000000000000000000e+00,1.120000000000000000e+02
0.000000000000000000e+00,1.000000000000000000e+00,0.000000000000000000e+00,4.000000000000000000e+00,6.890000000000000000e+02,2.718110084533691406e-01,1.953988075256347656e+00,7.011590760938446465e-01,0.000000000000000000e+00,0.000000000000000000e+00,1.120000000000000000e+02
0.000000000000000000e+00,1.000000000000000000e+00,0.000000000000000000e+00,2.000000000000000000e+00,6.900000000000000000e+02,2.512919902801513672e-01,1.516401052474975586e+00,2.680769828453276604e-01,0.000000000000000000e+00,0.000000000000000000e+00,1.120000000000000000e+02
0.000000000000000000e+00,1.000000000000000000e+00,0.000000000000000000e+00,2.000000000000000000e+00,6.910000000000000000e+02,4.745600223541259766e-01,1.893548011779785156e+00,4.282338460751022313e-01,0.000000000000000000e+00,0.000000000000000000e+00,1.120000000000000000e+02
0.000000000000000000e+00,1.000000000000000000e+00,0.000000000000000000e+00,4.000000000000000000e+00,6.940000000000000000e+02,3.374330997467041016e-01,1.930290937423706055e+00,6.083989506141151971e-01,0.000000000000000000e+00,0.000000000000000000e+00,1.120000000000000000e+02
0.000000000000000000e+00,1.000000000000000000e+00,0.000000000000000000e+00,2.000000000000000000e+00,6.950000000000000000e+02,3.281230926513671875e-01,1.686733007431030273e+00,3.621552050631156039e-01,0.000000000000000000e+00,0.000000000000000000e+00,1.120000000000000000e+02
0.000000000000000000e+00,1.000000000000000000e+00,0.000000000000000000e+00,2.000000000000000000e+00,6.960000000000000000e+02,3.588469028472900391e-01,1.781095027923583984e+00,4.432634973863699424e-01,0.000000000000000000e+00,0.000000000000000000e+00,1.120000000000000000e+02
0.000000000000000000e+00,1.000000000000000000e+00,0.000000000000000000e+00,3.000000000000000000e+00,6.980000000000000000e+02,3.015677928924560547e-01,1.981069087982177734e+00,6.911241480167713558e-01,0.000000000000000000e+00,0.000000000000000000e+00,1.120000000000000000e+02
0.000000000000000000e+00,0.000000000000000000e+00,1.000000000000000000e+00,0.000000000000000000e+00,6.970000000000000000e+02,2.423160076141357422e-01,1.661087036132812500e+00,4.355968197043947887e-01,0.000000000000000000e+00,0.000000000000000000e+00,1.120000000000000000e+02
1.000000000000000000e+00,1.000000000000000000e+00,1.000000000000000000e+00,2.000000000000000000e+00,6.980000000000000000e+02,3.397910594940185547e-01,1.758925914764404297e+00,4.280070484084513849e-01,0.000000000000000000e+00,0.000000000000000000e+00,1.120000000000000000e+02
1.000000000000000000e+00,1.000000000000000000e+00,1.000000000000000000e+00,2.000000000000000000e+00,6.990000000000000000e+02,3.217959403991699219e-01,1.646991014480590820e+00,3.418231624717095185e-01,1.000000000000000000e+00,0.000000000000000000e+00,1.120000000000000000e+02
0.000000000000000000e+00,0.000000000000000000e+00,1.000000000000000000e+00,0.000000000000000000e+00,6.980000000000000000e+02,2.798540592193603516e-01,1.651695966720581055e+00,3.769007062926018614e-01,0.000000000000000000e+00,1.000000000000000000e+00,1.110000000000000000e+02
1.000000000000000000e+00,0.000000000000000000e+00,0.000000000000000000e+00,0.000000000000000000e+00,6.970000000000000000e+02,2.788870334625244141e-01,1.854161024093627930e+00,5.975688868870846493e-01,0.000000000000000000e+00,0.000000000000000000e+00,1.110000000000000000e+02
1.000000000000000000e+00,0.000000000000000000e+00,0.000000000000000000e+00,0.000000000000000000e+00,6.960000000000000000e+02,2.659721374511718750e-01,1.998893022537231445e+00,7.464571670248940638e-01,0.000000000000000000e+00,1.000000000000000000e+00,1.120000000000000000e+02
1.000000000000000000e+00,1.000000000000000000e+00,1.000000000000000000e+00,4.000000000000000000e+00,6.990000000000000000e+02,3.031001091003417969e-01,1.983554124832153320e+00,6.967820787177444464e-01,0.000000000000000000e+00,1.000000000000000000e+00,1.110000000000000000e+02
1.000000000000000000e+00,1.000000000000000000e+00,1.000000000000000000e+00,3.000000000000000000e+00,7.010000000000000000e+02,3.006558418273925781e-01,1.690914869308471680e+00,4.047630663700721443e-01,0.000000000000000000e+00,0.000000000000000000e+00,1.110000000000000000e+02
1.000000000000000000e+00,0.000000000000000000e+00,0.000000000000000000e+00,0.000000000000000000e+00,7.000000000000000000e+02,3.397521972656250000e-01,1.890182018280029297e+00,5.615333782566224174e-01,0.000000000000000000e+00,1.000000000000000000e+00,1.120000000000000000e+02
0.000000000000000000e+00,1.000000000000000000e+00,0.000000000000000000e+00,3.000000000000000000e+00,7.020000000000000000e+02,2.625000476837158203e-01,1.780637025833129883e+00,5.256372810651667171e-01,0.000000000000000000e+00,1.000000000000000000e+00,1.110000000000000000e+02
1.000000000000000000e+00,1.000000000000000000e+00,1.000000000000000000e+00,3.000000000000000000e+00,7.040000000000000000e+02,2.723290920257568359e-01,1.985295057296752930e+00,7.277523083846947349e-01,0.000000000000000000e+00,0.000000000000000000e+00,1.110000000000000000e+02
1.000000000000000000e+00,1.000000000000000000e+00,1.000000000000000000e+00,1.000000000000000000e+00,7.040000000000000000e+02,2.911000251770019531e-01,1.813030004501342773e+00,5.407752565094501307e-01,0.000000000000000000e+00,0.000000000000000000e+00,1.110000000000000000e+02
0.000000000000000000e+00,1.000000000000000000e+00,0.000000000000000000e+00,2.000000000000000000e+00,7.050000000000000000e+02,3.084540367126464844e-01,1.914175987243652344e+00,6.216359675737465063e-01,0.000000000000000000e+00,0.000000000000000000e+00,1.110000000000000000e+02
0.000000000000000000e+00,1.000000000000000000e+00,0.000000000000000000e+00,2.000000000000000000e+00,7.060000000000000000e+02,2.647979259490966797e-01,1.844563007354736328e+00,5.830337434299557309e-01,0.000000000000000000e+00,0.000000000000000000e+00,1.110000000000000000e+02
0.000000000000000000e+00,1.000000000000000000e+00,0.000000000000000000e+00,2.000000000000000000e+00,7.070000000000000000e+02,2.468631267547607422e-01,1.661779165267944336e+00,4.116666806629428188e-01,0.000000000000000000e+00,0.000000000000000000e+00,1.110000000000000000e+02
1.000000000000000000e+00,0.000000000000000000e+00,0.000000000000000000e+00,0.000000000000000000e+00,7.060000000000000000e+02,3.078989982604980469e-01,1.767899036407470703e+00,4.796065014318104391e-01,0.000000000000000000e+00,1.000000000000000000e+00,1.120000000000000000e+02
0.000000000000000000e+00,1.000000000000000000e+00,0.000000000000000000e+00,1.000000000000000000e+00,7.060000000000000000e+02,2.582638263702392578e-01,1.763864994049072266e+00,5.268490917916299754e-01,0.000000000000000000e+00,1.000000000000000000e+00,1.110000000000000000e+02
1.000000000000000000e+00,1.000000000000000000e+00,1.000000000000000000e+00,3.000000000000000000e+00,7.080000000000000000e+02,2.426788806915283203e-01,1.696727991104125977e+00,4.737124179262865997e-01,0.000000000000000000e+00,0.000000000000000000e+00,1.110000000000000000e+02
1.000000000000000000e+00,1.000000000000000000e+00,1.000000000000000000e+00,4.000000000000000000e+00,7.110000000000000000e+02,2.807497978210449219e-01,1.985301971435546875e+00,7.088397944596204203e-01,0.000000000000000000e+00,0.000000000000000000e+00,1.110000000000000000e+02
0.000000000000000000e+00,0.000000000000000000e+00,1.000000000000000000e+00,0.000000000000000000e+00,7.100000000000000000e+02,2.556030750274658203e-01,1.700858116149902344e+00,4.600419215196641098e-01,0.000000000000000000e+00,1.000000000000000000e+00,1.120000000000000000e+02
0.000000000000000000e+00,1.000000000000000000e+00,0.000000000000000000e+00,2.000000000000000000e+00,7.110000000000000000e+02,7.675440311431884766e-01,2.317940950393676758e+00,5.613362567323415542e-01,0.000000000000000000e+00,1.000000000000000000e+00,1.110000000000000000e+02
1.000000000000000000e+00,1.000000000000000000e+00,1.000000000000000000e+00,3.000000000000000000e+00,7.130000000000000000e+02,2.689189910888671875e-01,1.799608945846557617e+00,5.443707974080231882e-01,0.000000000000000000e+00,0.000000000000000000e+00,1.110000000000000000e+02
0.000000000000000000e+00,1.000000000000000000e+00,0.000000000000000000e+00,4.000000000000000000e+00,7.160000000000000000e+02,2.629950046539306641e-01,1.744496107101440430e+00,4.890021648923834618e-01,0.000000000000000000e+00,0.000000000000000000e+00,1.110000000000000000e+02
1.000000000000000000e+00,1.000000000000000000e+00,1.000000000000000000e+00,3.000000000000000000e+00,7.180000000000000000e+02,2.980289459228515625e-01,1.555460929870605469e+00,2.614437216023254296e-01,0.000000000000000000e+00,0.000000000000000000e+00,1.110000000000000000e+02
1.000000000000000000e+00,1.000000000000000000e+00,1.000000000000000000e+00,2.000000000000000000e+00,7.190000000000000000e+02,3.741071224212646484e-01,1.778986215591430664e+00,4.236655536697834790e-01,0.000000000000000000e+00,0.000000000000000000e+00,1.110000000000000000e+02
1.000000000000000000e+00,1.000000000000000000e+00,1.000000000000000000e+00,2.000000000000000000e+00,7.200000000000000000e+02,3.058249950408935547e-01,1.694890975952148438e+00,4.020397811372505292e-01,0.000000000000000000e+00,0.000000000000000000e+00,1.110000000000000000e+02
1.000000000000000000e+00,1.000000000000000000e+00,1.000000000000000000e+00,2.000000000000000000e+00,7.210000000000000000e+02,3.499150276184082031e-01,1.650894880294799805e+00,3.031195266032955526e-01,0.000000000000000000e+00,0.000000000000000000e+00,1.110000000000000000e+02
1.000000000000000000e+00,1.000000000000000000e+00,1.000000000000000000e+00,3.000000000000000000e+00,7.230000000000000000e+02,3.439381122589111328e-01,1.905337095260620117e+00,5.749303950500288529e-01,0.000000000000000000e+00,0.000000000000000000e+00,1.110000000000000000e+02
1.000000000000000000e+00,1.000000000000000000e+00,1.000000000000000000e+00,3.000000000000000000e+00,7.250000000000000000e+02,2.320110797882080078e-01,1.646103143692016602e+00,4.212541268900244495e-01,0.000000000000000000e+00,0.000000000000000000e+00,1.110000000000000000e+02
0.000000000000000000e+00,1.000000000000000000e+00,0.000000000000000000e+00,2.000000000000000000e+00,7.260000000000000000e+02,3.140871524810791016e-01,1.709700822830200195e+00,3.977701762404057262e-01,0.000000000000000000e+00,0.000000000000000000e+00,1.110000000000000000e+02
0.000000000000000000e+00,0.000000000000000000e+00,1.000000000000000000e+00,0.000000000000000000e+00,7.250000000000000000e+02,2.551059722900390625e-01,1.719646215438842773e+00,4.840581264432123887e-01,1.000000000000000000e+00,1.000000000000000000e+00,1.120000000000000000e+02
0.000000000000000000e+00,1.000000000000000000e+00,0.000000000000000000e+00,1.000000000000000000e+00,7.250000000000000000e+02,2.338650226593017578e-01,1.672070980072021484e+00,4.396272630580372320e-01,0.000000000000000000e+00,1.000000000000000000e+00,1.110000000000000000e+02
0.000000000000000000e+00,0.000000000000000000e+00,1.000000000000000000e+00,0.000000000000000000e+00,7.240000000000000000e+02,2.382609844207763672e-01,1.721631050109863281e+00,4.945976905797155321e-01,0.000000000000000000e+00,1.000000000000000000e+00,1.120000000000000000e+02
1.000000000000000000e+00,1.000000000000000000e+00,1.000000000000000000e+00,1.000000000000000000e+00,7.240000000000000000e+02,3.366088867187500000e-01,1.649354934692382812e+00,3.275600738392315248e-01,0.000000000000000000e+00,0.000000000000000000e+00,1.120000000000000000e+02
0.000000000000000000e+00,1.000000000000000000e+00,0.000000000000000000e+00,2.000000000000000000e+00,7.250000000000000000e+02,2.497360706329345703e-01,1.967077016830444336e+00,7.276049753204046899e-01,0.000000000000000000e+00,0.000000000000000000e+00,1.120000000000000000e+02
0.000000000000000000e+00,1.000000000000000000e+00,0.000000000000000000e+00,3.000000000000000000e+00,7.270000000000000000e+02,2.391400337219238281e-01,1.554682016372680664e+00,3.328106742464728152e-01,0.000000000000000000e+00,0.000000000000000000e+00,1.120000000000000000e+02
0.000000000000000000e+00,0.000000000000000000e+00,1.000000000000000000e+00,0.000000000000000000e+00,7.260000000000000000e+02,2.335588932037353516e-01,1.778789043426513672e+00,5.448030249681682369e-01,0.000000000000000000e+00,1.000000000000000000e+00,1.110000000000000000e+02
0.000000000000000000e+00,1.000000000000000000e+00,0.000000000000000000e+00,1.000000000000000000e+00,7.260000000000000000e+02,3.080439567565917969e-01,1.658874988555908203e+00,3.706028349911832942e-01,0.000000000000000000e+00,1.000000000000000000e+00,1.120000000000000000e+02
1.000000000000000000e+00,0.000000000000000000e+00,0.000000000000000000e+00,0.000000000000000000e+00,7.250000000000000000e+02,2.782759666442871094e-01,1.886533021926879883e+00,6.236191026510550239e-01,0.000000000000000000e+00,1.000000000000000000e+00,1.110000000000000000e+02
1.000000000000000000e+00,1.000000000000000000e+00,1.000000000000000000e+00,3.000000000000000000e+00,7.270000000000000000e+02,2.990350723266601562e-01,1.599951982498168945e+00,3.073182728202397684e-01,0.000000000000000000e+00,1.000000000000000000e+00,1.120000000000000000e+02
0.000000000000000000e+00,1.000000000000000000e+00,0.000000000000000000e+00,3.000000000000000000e+00,7.290000000000000000e+02,2.790980339050292969e-01,1.773718118667602539e+00,4.975797284748743610e-01,0.000000000000000000e+00,0.000000000000000000e+00,1.120000000000000000e+02
1.000000000000000000e+00,1.000000000000000000e+00,1.000000000000000000e+00,2.000000000000000000e+00,7.300000000000000000e+02,3.004610538482666016e-01,2.033936023712158203e+00,7.479859358086055066e-01,0.000000000000000000e+00,0.000000000000000000e+00,1.120000000000000000e+02
1.000000000000000000e+00,1.000000000000000000e+00,1.000000000000000000e+00,3.000000000000000000e+00,7.320000000000000000e+02,2.592170238494873047e-01,1.767063140869140625e+00,5.321086153107182914e-01,0.000000000000000000e+00,0.000000000000000000e+00,1.120000000000000000e+02
1.000000000000000000e+00,1.000000000000000000e+00,1.000000000000000000e+00,2.000000000000000000e+00,7.330000000000000000e+02,2.370839118957519531e-01,1.743431806564331055e+00,5.089345061466442610e-01,0.000000000000000000e+00,0.000000000000000000e+00,1.120000000000000000e+02
0.000000000000000000e+00,1.000000000000000000e+00,0.000000000000000000e+00,1.000000000000000000e+00,7.330000000000000000e+02,2.497520446777343750e-01,1.781086206436157227e+00,5.400735475186770884e-01,0.000000000000000000e+00,0.000000000000000000e+00,1.120000000000000000e+02
1.000000000000000000e+00,1.000000000000000000e+00,1.000000000000000000e+00,2.000000000000000000e+00,7.340000000000000000e+02,2.784960269927978516e-01,1.897033929824829102e+00,6.204450508329273362e-01,0.000000000000000000e+00,0.000000000000000000e+00,1.120000000000000000e+02
1.000000000000000000e+00,1.000000000000000000e+00,1.000000000000000000e+00,2.000000000000000000e+00,7.350000000000000000e+02,3.005049228668212891e-01,2.000279903411865234e+00,7.040550685233351036e-01,0.000000000000000000e+00,0.000000000000000000e+00,1.120000000000000000e+02
0.000000000000000000e+00,1.000000000000000000e+00,0.000000000000000000e+00,3.000000000000000000e+00,7.370000000000000000e+02,2.655899524688720703e-01,1.644062042236328125e+00,3.818960116421443174e-01,0.000000000000000000e+00,0.000000000000000000e+00,1.120000000000000000e+02
1.000000000000000000e+00,1.000000000000000000e+00,1.000000000000000000e+00,2.000000000000000000e+00,7.380000000000000000e+02,3.522520065307617188e-01,1.736072063446044922e+00,4.013541433241552547e-01,0.000000000000000000e+00,0.000000000000000000e+00,1.120000000000000000e+02
1.000000000000000000e+00,1.000000000000000000e+00,1.000000000000000000e+00,4.000000000000000000e+00,7.410000000000000000e+02,2.922959327697753906e-01,1.540737152099609375e+00,2.590102946639656345e-01,0.000000000000000000e+00,0.000000000000000000e+00,1.120000000000000000e+02
1.000000000000000000e+00,1.000000000000000000e+00,1.000000000000000000e+00,3.000000000000000000e+00,7.430000000000000000e+02,3.050091266632080078e-01,1.977954864501953125e+00,6.865609259928422414e-01,0.000000000000000000e+00,0.000000000000000000e+00,1.120000000000000000e+02
1.000000000000000000e+00,1.000000000000000000e+00,1.000000000000000000e+00,3.000000000000000000e+00,7.450000000000000000e+02,2.838640213012695312e-01,1.543757200241088867e+00,2.642276683177227636e-01,0.000000000000000000e+00,0.000000000000000000e+00,1.120000000000000000e+02
1.000000000000000000e+00,1.000000000000000000e+00,1.000000000000000000e+00,2.000000000000000000e+00,7.460000000000000000e+02,3.254818916320800781e-01,1.875119924545288086e+00,5.724308187195790154e-01,0.000000000000000000e+00,0.000000000000000000e+00,1.120000000000000000e+02
0.000000000000000000e+00,1.000000000000000000e+00,0.000000000000000000e+00,3.000000000000000000e+00,7.480000000000000000e+02,3.012430667877197266e-01,1.995064020156860352e+00,7.007689018546872095e-01,0.000000000000000000e+00,0.000000000000000000e+00,1.120000000000000000e+02
0.000000000000000000e+00,1.000000000000000000e+00,0.000000000000000000e+00,3.000000000000000000e+00,7.500000000000000000e+02,3.123681545257568359e-01,1.987416028976440430e+00,6.883029088379989391e-01,0.000000000000000000e+00,0.000000000000000000e+00,1.120000000000000000e+02
0.000000000000000000e+00,0.000000000000000000e+00,1.000000000000000000e+00,0.000000000000000000e+00,7.490000000000000000e+02,3.060719966888427734e-01,1.556819915771484375e+00,2.623385439989059931e-01,0.000000000000000000e+00,1.000000000000000000e+00,1.110000000000000000e+02
0.000000000000000000e+00,1.000000000000000000e+00,0.000000000000000000e+00,1.000000000000000000e+00,7.490000000000000000e+02,3.091480731964111328e-01,1.887057065963745117e+00,5.991249796491028290e-01,0.000000000000000000e+00,1.000000000000000000e+00,1.120000000000000000e+02
0.000000000000000000e+00,1.000000000000000000e+00,0.000000000000000000e+00,4.000000000000000000e+00,7.520000000000000000e+02,2.672171592712402344e-01,1.724647045135498047e+00,4.573305955697615222e-01,0.000000000000000000e+00,0.000000000000000000e+00,1.120000000000000000e+02
1.000000000000000000e+00,1.000000000000000000e+00,1.000000000000000000e+00,4.000000000000000000e+00,7.550000000000000000e+02,2.915289402008056641e-01,1.729868173599243164e+00,4.539764738662727672e-01,0.000000000000000000e+00,0.000000000000000000e+00,1.120000000000000000e+02
1.000000000000000000e+00,0.000000000000000000e+00,0.000000000000000000e+00,0.000000000000000000e+00,7.540000000000000000e+02,2.863049507141113281e-01,1.839608907699584961e+00,5.601944098682452022e-01,1.000000000000000000e+00,1.000000000000000000e+00,1.110000000000000000e+02
1.000000000000000000e+00,0.000000000000000000e+00,0.000000000000000000e+00,0.000000000000000000e+00,7.530000000000000000e+02,3.130390644073486328e-01,1.992244005203247070e+00,6.857392539992167579e-01,0.000000000000000000e+00,0.000000000000000000e+00,1.110000000000000000e+02
0.000000000000000000e+00,0.000000000000000000e+00,1.000000000000000000e+00,0.000000000000000000e+00,7.520000000000000000e+02,2.461090087890625000e-01,1.738813161849975586e+00,4.915092692990862822e-01,0.000000000000000000e+00,1.000000000000000000e+00,1.120000000000000000e+02
1.000000000000000000e+00,1.000000000000000000e+00,1.000000000000000000e+00,4.000000000000000000e+00,7.550000000000000000e+02,3.038389682769775391e-01,2.030298948287963867e+00,7.383208125917005704e-01,0.000000000000000000e+00,1.000000000000000000e+00,1.110000000000000000e+02
0.000000000000000000e+00,1.000000000000000000e+00,0.000000000000000000e+00,4.000000000000000000e+00,7.580000000000000000e+02,2.435901165008544922e-01,1.898704051971435547e+00,6.705160842075519323e-01,0.000000000000000000e+00,0.000000000000000000e+00,1.110000000000000000e+02
0.000000000000000000e+00,0.000000000000000000e+00,1.000000000000000000e+00,0.000000000000000000e+00,7.570000000000000000e+02,2.826831340789794922e-01,1.904073953628540039e+00,6.247506113325824728e-01,0.000000000000000000e+00,1.000000000000000000e+00,1.120000000000000000e+02
0.000000000000000000e+00,1.000000000000000000e+00,0.000000000000000000e+00,3.000000000000000000e+00,7.590000000000000000e+02,2.437040805816650391e-01,1.589308977127075195e+00,3.644270628342089480e-01,0.000000000000000000e+00,1.000000000000000000e+00,1.110000000000000000e+02
0.000000000000000000e+00,1.000000000000000000e+00,0.000000000000000000e+00,5.000000000000000000e+00,7.630000000000000000e+02,2.784960269927978516e-01,1.951588869094848633e+00,6.824455296354383638e-01,0.000000000000000000e+00,0.000000000000000000e+00,1.110000000000000000e+02
1.000000000000000000e+00,1.000000000000000000e+00,1.000000000000000000e+00,3.000000000000000000e+00,7.650000000000000000e+02,2.588198184967041016e-01,1.613086938858032227e+00,3.625460625503229006e-01,0.000000000000000000e+00,0.000000000000000000e+00,1.110000000000000000e+02
0.000000000000000000e+00,1.000000000000000000e+00,0.000000000000000000e+00,1.000000000000000000e+00,7.650000000000000000e+02,2.869138717651367188e-01,1.943338155746459961e+00,6.723405753213363978e-01,0.000000000000000000e+00,0.000000000000000000e+00,1.110000000000000000e+02
0.000000000000000000e+00,1.000000000000000000e+00,0.000000000000000000e+00,1.000000000000000000e+00,7.650000000000000000e+02,2.269501686096191406e-01,1.490624904632568359e+00,2.801667019619463184e-01,0.000000000000000000e+00,0.000000000000000000e+00,1.110000000000000000e+02
0.000000000000000000e+00,0.000000000000000000e+00,1.000000000000000000e+00,0.000000000000000000e+00,7.640000000000000000e+02,2.747459411621093750e-01,1.547232151031494141e+00,2.941075528772623682e-01,0.000000000000000000e+00,1.000000000000000000e+00,1.120000000000000000e+02
0.000000000000000000e+00,1.000000000000000000e+00,0.000000000000000000e+00,0.000000000000000000e+00,7.630000000000000000e+02,5.477080345153808594e-01,2.008465051651000977e+00,4.691590575180270006e-01,0.000000000000000000e+00,1.000000000000000000e+00,1.110000000000000000e+02
1.000000000000000000e+00,0.000000000000000000e+00,0.000000000000000000e+00,0.000000000000000000e+00,7.620000000000000000e+02,4.441721439361572266e-01,1.902109861373901367e+00,4.713269383387789779e-01,0.000000000000000000e+00,0.000000000000000000e+00,1.110000000000000000e+02
0.000000000000000000e+00,0.000000000000000000e+00,1.000000000000000000e+00,0.000000000000000000e+00,7.610000000000000000e+02,2.712059020996093750e-01,1.764055013656616211e+00,5.021362543254452859e-01,0.000000000000000000e+00,0.000000000000000000e+00,1.110000000000000000e+02
0.000000000000000000e+00,0.000000000000000000e+00,1.000000000000000000e+00,0.000000000000000000e+00,7.600000000000000000e+02,2.295830249786376953e-01,1.922321081161499023e+00,6.910190025519862278e-01,0.000000000000000000e+00,1.000000000000000000e+00,1.120000000000000000e+02
1.000000000000000000e+00,1.000000000000000000e+00,1.000000000000000000e+00,1.000000000000000000e+00,7.600000000000000000e+02,3.259048461914062500e-01,1.940498113632202148e+00,6.316788675009920029e-01,0.000000000000000000e+00,0.000000000000000000e+00,1.120000000000000000e+02
1.000000000000000000e+00,0.000000000000000000e+00,0.000000000000000000e+00,0.000000000000000000e+00,7.590000000000000000e+02,3.137288093566894531e-01,1.704192876815795898e+00,4.028491691969253163e-01,0.000000000000000000e+00,1.000000000000000000e+00,1.110000000000000000e+02
1.000000000000000000e+00,0.000000000000000000e+00,0.000000000000000000e+00,0.000000000000000000e+00,7.580000000000000000e+02,3.441140651702880859e-01,2.021646976470947266e+00,6.909539093544556643e-01,0.000000000000000000e+00,0.000000000000000000e+00,1.110000000000000000e+02
0.000000000000000000e+00,0.000000000000000000e+00,1.000000000000000000e+00,0.000000000000000000e+00,7.570000000000000000e+02,2.064659595489501953e-01,1.787184953689575195e+00,5.950054032813005822e-01,0.000000000000000000e+00,0.000000000000000000e+00,1.110000000000000000e+02
0.000000000000000000e+00,1.000000000000000000e+00,0.000000000000000000e+00,4.000000000000000000e+00,7.600000000000000000e+02,4.642369747161865234e-01,1.839771986007690430e+00,3.850901417716924291e-01,0.000000000000000000e+00,0.000000000000000000e+00,1.110000000000000000e+02
0.000000000000000000e+00,1.000000000000000000e+00,0.000000000000000000e+00,0.000000000000000000e+00,7.590000000000000000e+02,2.434010505676269531e-01,1.547585964202880859e+00,3.161577179755230005e-01,0.000000000000000000e+00,0.000000000000000000e+00,1.110000000000000000e+02
0.000000000000000000e+00,1.000000000000000000e+00,0.000000000000000000e+00,2.000000000000000000e+00,7.600000000000000000e+02,2.623379230499267578e-01,1.901508808135986328e+00,6.340442497221523421e-01,0.000000000000000000e+00,0.000000000000000000e+00,1.110000000000000000e+02
0.000000000000000000e+00,1.000000000000000000e+00,0.000000000000000000e+00,2.000000000000000000e+00,7.610000000000000000e+02,2.453448772430419922e-01,1.801316976547241211e+00,5.688828078078840278e-01,0.000000000000000000e+00,0.000000000000000000e+00,1.110000000000000000e+02
0.000000000000000000e+00,0.000000000000000000e+00,1.000000000000000000e+00,0.000000000000000000e+00,7.600000000000000000e+02,2.084660530090332031e-01,1.567177057266235352e+00,3.696425693136067281e-01,0.000000000000000000e+00,1.000000000000000000e+00,1.120000000000000000e+02
1.000000000000000000e+00,1.000000000000000000e+00,1.000000000000000000e+00,3.000000000000000000e+00,7.620000000000000000e+02,3.048799037933349609e-01,1.546852827072143555e+00,2.500553577845923692e-01,0.000000000000000000e+00,1.000000000000000000e+00,1.110000000000000000e+02
1.000000000000000000e+00,1.000000000000000000e+00,1.000000000000000000e+00,4.000000000000000000e+00,7.650000000000000000e+02,2.968778610229492188e-01,1.845399856567382812e+00,5.452444331399071142e-01,0.000000000000000000e+00,0.000000000000000000e+00,1.110000000000000000e+02
0.000000000000000000e+00,1.000000000000000000e+00,0.000000000000000000e+00,1.000000000000000000e+00,7.650000000000000000e+02,2.395880222320556641e-01,1.604211091995239258e+00,3.830229270544739384e-01,0.000000000000000000e+00,0.000000000000000000e+00,1.110000000000000000e+02
0.000000000000000000e+00,0.000000000000000000e+00,1.000000000000000000e+00,0.000000000000000000e+00,7.640000000000000000e+02,2.720131874084472656e-01,1.709321022033691406e+00,4.424133314005450623e-01,1.000000000000000000e+00,1.000000000000000000e+00,1.120000000000000000e+02
0.000000000000000000e+00,0.000000000000000000e+00,1.000000000000000000e+00,0.000000000000000000e+00,7.630000000000000000e+02,2.431509494781494141e-01,1.673304080963134766e+00,4.491244418930583349e-01,0.000000000000000000e+00,0.000000000000000000e+00,1.120000000000000000e+02
1.000000000000000000e+00,0.000000000000000000e+00,0.000000000000000000e+00,0.000000000000000000e+00,7.620000000000000000e+02,2.698228359222412109e-01,1.908539056777954102e+00,6.408709881557737020e-01,0.000000000000000000e+00,0.000000000000000000e+00,1.120000000000000000e+02
1.000000000000000000e+00,0.000000000000000000e+00,0.000000000000000000e+00,0.000000000000000000e+00,7.610000000000000000e+02,2.588829994201660156e-01,1.947986841201782227e+00,7.055553949015280768e-01,0.000000000000000000e+00,0.000000000000000000e+00,1.120000000000000000e+02
0.000000000000000000e+00,1.000000000000000000e+00,0.000000000000000000e+00,1.000000000000000000e+00,7.610000000000000000e+02,3.019299507141113281e-01,1.677146196365356445e+00,3.830874662240233985e-01,0.000000000000000000e+00,0.000000000000000000e+00,1.120000000000000000e+02
1.000000000000000000e+00,1.000000000000000000e+00,1.000000000000000000e+00,2.000000000000000000e+00,7.620000000000000000e+02,2.785949707031250000e-01,1.749248027801513672e+00,4.656531869008476154e-01,0.000000000000000000e+00,0.000000000000000000e+00,1.120000000000000000e+02
0.000000000000000000e+00,1.000000000000000000e+00,0.000000000000000000e+00,0.000000000000000000e+00,7.610000000000000000e+02,2.707259654998779297e-01,1.985770940780639648e+00,7.179555293234889390e-01,0.000000000000000000e+00,0.000000000000000000e+00,1.120000000000000000e+02
1.000000000000000000e+00,1.000000000000000000e+00,1.000000000000000000e+00,3.000000000000000000e+00,7.630000000000000000e+02,3.054220676422119141e-01,1.736637115478515625e+00,4.383015726238198018e-01,0.000000000000000000e+00,0.000000000000000000e+00,1.120000000000000000e+02
1.000000000000000000e+00,1.000000000000000000e+00,1.000000000000000000e+00,1.000000000000000000e+00,7.630000000000000000e+02,3.002030849456787109e-01,1.700878858566284180e+00,4.059540367242917558e-01,0.000000000000000000e+00,0.000000000000000000e+00,1.120000000000000000e+02
0.000000000000000000e+00,0.000000000000000000e+00,1.000000000000000000e+00,0.000000000000000000e+00,7.620000000000000000e+02,2.592360973358154297e-01,1.768854141235351562e+00,5.247646822325893190e-01,0.000000000000000000e+00,0.000000000000000000e+00,1.120000000000000000e+02
0.000000000000000000e+00,1.000000000000000000e+00,0.000000000000000000e+00,2.000000000000000000e+00,7.630000000000000000e+02,2.666718959808349609e-01,1.975764989852905273e+00,7.170912187698649243e-01,0.000000000000000000e+00,0.000000000000000000e+00,1.120000000000000000e+02
0.000000000000000000e+00,1.000000000000000000e+00,0.000000000000000000e+00,4.000000000000000000e+00,7.660000000000000000e+02,2.714409828186035156e-01,1.570649862289428711e+00,3.049217296021450307e-01,0.000000000000000000e+00,0.000000000000000000e+00,1.120000000000000000e+02
1.000000000000000000e+00,0.000000000000000000e+00,0.000000000000000000e+00,0.000000000000000000e+00,7.650000000000000000e+02,7.537460327148437500e-01,2.281499862670898438e+00,5.362864253686955296e-01,0.000000000000000000e+00,1.000000000000000000e+00,1.110000000000000000e+02
1.000000000000000000e+00,1.000000000000000000e+00,1.000000000000000000e+00,3.000000000000000000e+00,7.670000000000000000e+02,2.764618396759033203e-01,1.946327924728393555e+00,6.825592162529894313e-01,0.000000000000000000e+00,1.000000000000000000e+00,1.120000000000000000e+02
0.000000000000000000e+00,1.000000000000000000e+00,0.000000000000000000e+00,3.000000000000000000e+00,7.690000000000000000e+02,2.856850624084472656e-01,1.836082935333251953e+00,5.522137154588488972e-01,0.000000000000000000e+00,0.000000000000000000e+00,1.120000000000000000e+02
1.000000000000000000e+00,1.000000000000000000e+00,1.000000000000000000e+00,2.000000000000000000e+00,7.700000000000000000e+02,3.192992210388183594e-01,1.573979139328002930e+00,2.598859284176378570e-01,0.000000000000000000e+00,0.000000000000000000e+00,1.120000000000000000e+02
0.000000000000000000e+00,1.000000000000000000e+00,0.000000000000000000e+00,3.000000000000000000e+00,7.720000000000000000e+02,3.346679210662841797e-01,1.590549945831298828e+00,2.671843386301973600e-01,0.000000000000000000e+00,0.000000000000000000e+00,1.120000000000000000e+02
0.000000000000000000e+00,1.000000000000000000e+00,0.000000000000000000e+00,3.000000000000000000e+00,7.740000000000000000e+02,2.637329101562500000e-01,1.750377893447875977e+00,4.840870777638966449e-01,0.000000000000000000e+00,0.000000000000000000e+00,1.120000000000000000e+02
1.000000000000000000e+00,1.000000000000000000e+00,1.000000000000000000e+00,4.000000000000000000e+00,7.770000000000000000e+02,3.097681999206542969e-01,1.920929193496704102e+00,6.216611206594135908e-01,0.000000000000000000e+00,0.000000000000000000e+00,1.120000000000000000e+02
1.000000000000000000e+00,1.000000000000000000e+00,1.000000000000000000e+00,3.000000000000000000e+00,7.790000000000000000e+02,2.843110561370849609e-01,1.577410936355590820e+00,2.994942897422068206e-01,0.000000000000000000e+00,0.000000000000000000e+00,1.120000000000000000e+02
0.000000000000000000e+00,1.000000000000000000e+00,0.000000000000000000e+00,3.000000000000000000e+00,7.810000000000000000e+02,3.328950405120849609e-01,1.824248075485229492e+00,4.902836341548968413e-01,0.000000000000000000e+00,0.000000000000000000e+00,1.120000000000000000e+02
1.000000000000000000e+00,1.000000000000000000e+00,1.000000000000000000e+00,3.000000000000000000e+00,7.830000000000000000e+02,2.833101749420166016e-01,1.977276802062988281e+00,7.007439530206324152e-01,0.000000000000000000e+00,0.000000000000000000e+00,1.120000000000000000e+02
1.000000000000000000e+00,1.000000000000000000e+00,1.000000000000000000e+00,1.000000000000000000e+00,7.830000000000000000e+02,2.770650386810302734e-01,1.568024158477783203e+00,3.026333683224483595e-01,0.000000000000000000e+00,0.000000000000000000e+00,1.120000000000000000e+02
1.000000000000000000e+00,0.000000000000000000e+00,0.000000000000000000e+00,0.000000000000000000e+00,7.820000000000000000e+02,2.733960151672363281e-01,1.762783050537109375e+00,4.986236323675105608e-01,1.000000000000000000e+00,1.000000000000000000e+00,1.110000000000000000e+02
0.000000000000000000e+00,0.000000000000000000e+00,1.000000000000000000e+00,0.000000000000000000e+00,7.810000000000000000e+02,3.024899959564208984e-01,1.844987869262695312e+00,5.602669189674915895e-01,0.000000000000000000e+00,0.000000000000000000e+00,1.110000000000000000e+02
1.000000000000000000e+00,0.000000000000000000e+00,0.000000000000000000e+00,0.000000000000000000e+00,7.800000000000000000e+02,2.915370464324951172e-01,1.797574043273925781e+00,5.246573264759113453e-01,0.000000000000000000e+00,0.000000000000000000e+00,1.110000000000000000e+02
1.000000000000000000e+00,0.000000000000000000e+00,0.000000000000000000e+00,0.000000000000000000e+00,7.790000000000000000e+02,4.116060733795166016e-01,1.946918010711669922e+00,5.549568876167390030e-01,0.000000000000000000e+00,0.000000000000000000e+00,1.110000000000000000e+02
1.000000000000000000e+00,1.000000000000000000e+00,1.000000000000000000e+00,2.000000000000000000e+00,7.800000000000000000e+02,2.817189693450927734e-01,1.644891023635864258e+00,3.668185144144913146e-01,0.000000000000000000e+00,0.000000000000000000e+00,1.110000000000000000e+02
1.000000000000000000e+00,0.000000000000000000e+00,0.000000000000000000e+00,0.000000000000000000e+00,7.790000000000000000e+02,2.936711311340332031e-01,1.621792793273925781e+00,3.386958936927575992e-01,0.000000000000000000e+00,1.000000000000000000e+00,1.120000000000000000e+02
1.000000000000000000e+00,1.000000000000000000e+00,1.000000000000000000e+00,3.000000000000000000e+00,7.810000000000000000e+02,3.021540641784667969e-01,1.676566123962402344e+00,3.819673983269757378e-01,0.000000000000000000e+00,1.000000000000000000e+00,1.110000000000000000e+02
1.000000000000000000e+00,1.000000000000000000e+00,1.000000000000000000e+00,3.000000000000000000e+00,7.830000000000000000e+02,3.352129459381103516e-01,1.818918943405151367e+00,4.675638148292154406e-01,0.000000000000000000e+00,0.000000000000000000e+00,1.110000000000000000e+02
1.000000000000000000e+00,0.000000000000000000e+00,0.000000000000000000e+00,0.000000000000000000e+00,7.820000000000000000e+02,2.762439250946044922e-01,1.561667203903198242e+00,2.961620987391135329e-01,0.000000000000000000e+00,1.000000000000000000e+00,1.120000000000000000e+02
0.000000000000000000e+00,1.000000000000000000e+00,0.000000000000000000e+00,3.000000000000000000e+00,7.840000000000000000e+02,4.192988872528076172e-01,1.654872894287109375e+00,2.511644850191818157e-01,0.000000000000000000e+00,1.000000000000000000e+00,1.110000000000000000e+02
1.000000000000000000e+00,1.000000000000000000e+00,1.000000000000000000e+00,4.000000000000000000e+00,7.870000000000000000e+02,2.776820659637451172e-01,1.823589086532592773e+00,5.414341815637309097e-01,0.000000000000000000e+00,0.000000000000000000e+00,1.110000000000000000e+02
1.000000000000000000e+00,0.000000000000000000e+00,0.000000000000000000e+00,0.000000000000000000e+00,7.860000000000000000e+02,2.600758075714111328e-01,1.908381938934326172e+00,6.495468136656175062e-01,0.000000000000000000e+00,1.000000000000000000e+00,1.120000000000000000e+02
1.000000000000000000e+00,1.000000000000000000e+00,1.000000000000000000e+00,1.000000000000000000e+00,7.860000000000000000e+02,3.435108661651611328e-01,1.764229059219360352e+00,4.307779885778597606e-01,0.000000000000000000e+00,1.000000000000000000e+00,1.110000000000000000e+02
0.000000000000000000e+00,1.000000000000000000e+00,0.000000000000000000e+00,3.000000000000000000e+00,7.880000000000000000e+02,3.065509796142578125e-01,1.790698051452636719e+00,5.048180339358807611e-01,0.000000000000000000e+00,0.000000000000000000e+00,1.110000000000000000e+02
0.000000000000000000e+00,1.000000000000000000e+00,0.000000000000000000e+00,3.000000000000000000e+00,7.900000000000000000e+02,2.997300624847412109e-01,1.915585041046142578e+00,6.203696524576419735e-01,0.000000000000000000e+00,0.000000000000000000e+00,1.110000000000000000e+02
1.000000000000000000e+00,1.000000000000000000e+00,1.000000000000000000e+00,3.000000000000000000e+00,7.920000000000000000e+02,2.930541038513183594e-01,2.008460998535156250e+00,7.288335476846719008e-01,0.000000000000000000e+00,0.000000000000000000e+00,1.110000000000000000e+02
1.000000000000000000e+00,1.000000000000000000e+00,1.000000000000000000e+00,2.000000000000000000e+00,7.930000000000000000e+02,2.800221443176269531e-01,1.539970874786376953e+00,2.693641257805014511e-01,0.000000000000000000e+00,0.000000000000000000e+00,1.110000000000000000e+02
0.000000000000000000e+00,1.000000000000000000e+00,0.000000000000000000e+00,4.000000000000000000e+00,7.960000000000000000e+02,3.202769756317138672e-01,1.576914072036743164e+00,2.630091240516435613e-01,0.000000000000000000e+00,0.000000000000000000e+00,1.110000000000000000e+02
0.000000000000000000e+00,1.000000000000000000e+00,0.000000000000000000e+00,2.000000000000000000e+00,7.970000000000000000e+02,2.794868946075439453e-01,1.528772115707397461e+00,2.585303331369425139e-01,0.000000000000000000e+00,0.000000000000000000e+00,1.110000000000000000e+02
0.000000000000000000e+00,0.000000000000000000e+00,1.000000000000000000e+00,0.000000000000000000e+00,7.960000000000000000e+02,3.222298622131347656e-01,1.819226026535034180e+00,5.109474560625075767e-01,0.000000000000000000e+00,1.000000000000000000e+00,1.120000000000000000e+02
0.000000000000000000e+00,1.000000000000000000e+00,0.000000000000000000e+00,2.000000000000000000e+00,7.970000000000000000e+02,2.686369419097900391e-01,1.644979953765869141e+00,3.894475628576073434e-01,0.000000000000000000e+00,1.000000000000000000e+00,1.110000000000000000e+02
1.000000000000000000e+00,0.000000000000000000e+00,0.000000000000000000e+00,0.000000000000000000e+00,7.960000000000000000e+02,3.147039413452148438e-01,1.749135971069335938e+00,4.385918900068027093e-01,0.000000000000000000e+00,1.000000000000000000e+00,1.120000000000000000e+02
0.000000000000000000e+00,1.000000000000000000e+00,0.000000000000000000e+00,3.000000000000000000e+00,7.980000000000000000e+02,2.498109340667724609e-01,1.539633035659790039e+00,2.951230930209893799e-01,0.000000000000000000e+00,1.000000000000000000e+00,1.110000000000000000e+02
0.000000000000000000e+00,1.000000000000000000e+00,0.000000000000000000e+00,2.000000000000000000e+00,7.990000000000000000e+02,2.845101356506347656e-01,1.686984062194824219e+00,4.154192902349784222e-01,0.000000000000000000e+00,0.000000000000000000e+00,1.110000000000000000e+02
0.000000000000000000e+00,0.000000000000000000e+00,1.000000000000000000e+00,0.000000000000000000e+00,7.980000000000000000e+02,2.464940547943115234e-01,1.720484972000122070e+00,4.692588076955546139e-01,0.000000000000000000e+00,1.000000000000000000e+00,1.120000000000000000e+02
1.000000000000000000e+00,1.000000000000000000e+00,1.000000000000000000e+00,5.000000000000000000e+00,8.020000000000000000e+02,2.398810386657714844e-01,1.970373153686523438e+00,7.394094224476683852e-01,1.000000000000000000e+00,1.000000000000000000e+00,1.110000000000000000e+02
0.000000000000000000e+00,0.000000000000000000e+00,1.000000000000000000e+00,0.000000000000000000e+00,8.010000000000000000e+02,2.543578147888183594e-01,1.683459997177124023e+00,4.399724795424153623e-01,0.000000000000000000e+00,1.000000000000000000e+00,1.120000000000000000e+02
1.000000000000000000e+00,0.000000000000000000e+00,0.000000000000000000e+00,0.000000000000000000e+00,8.000000000000000000e+02,3.331279754638671875e-01,1.636461019515991211e+00,3.099718452332239638e-01,0.000000000000000000e+00,0.000000000000000000e+00,1.120000000000000000e+02
1.000000000000000000e+00,1.000000000000000000e+00,1.000000000000000000e+00,2.000000000000000000e+00,8.010000000000000000e+02,2.897529602050781250e-01,1.929805994033813477e+00,6.561864653658504576e-01,0.000000000000000000e+00,0.000000000000000000e+00,1.120000000000000000e+02
1.000000000000000000e+00,1.000000000000000000e+00,1.000000000000000000e+00,4.000000000000000000e+00,8.040000000000000000e+02,2.705850601196289062e-01,1.881819963455200195e+00,6.214568667078783637e-01,0.000000000000000000e+00,0.000000000000000000e+00,1.120000000000000000e+02
0.000000000000000000e+00,1.000000000000000000e+00,0.000000000000000000e+00,2.000000000000000000e+00,8.050000000000000000e+02,2.842249870300292969e-01,1.748985052108764648e+00,4.706605964102770212e-01,0.000000000000000000e+00,0.000000000000000000e+00,1.120000000000000000e+02
0.000000000000000000e+00,1.000000000000000000e+00,0.000000000000000000e+00,3.000000000000000000e+00,8.070000000000000000e+02,2.483081817626953125e-01,1.916051149368286133e+00,6.699483102671339729e-01,0.000000000000000000e+00,0.000000000000000000e+00,1.120000000000000000e+02
1.000000000000000000e+00,1.000000000000000000e+00,1.000000000000000000e+00,3.000000000000000000e+00,8.090000000000000000e+02,2.857339382171630859e-01,1.584492921829223633e+00,3.048962668583765079e-01,0.000000000000000000e+00,0.000000000000000000e+00,1.120000000000000000e+02
0.000000000000000000e+00,0.000000000000000000e+00,1.000000000000000000e+00,0.000000000000000000e+00,8.080000000000000000e+02,2.915208339691162109e-01,1.907198905944824219e+00,6.285585878851149833e-01,0.000000000000000000e+00,1.000000000000000000e+00,1.110000000000000000e+02
0.000000000000000000e+00,1.000000000000000000e+00,0.000000000000000000e+00,2.000000000000000000e+00,8.090000000000000000e+02,2.714879512786865234e-01,1.726411819458007812e+00,4.718421190532886556e-01,0.000000000000000000e+00,1.000000000000000000e+00,1.120000000000000000e+02
0.000000000000000000e+00,1.000000000000000000e+00,0.000000000000000000e+00,2.000000000000000000e+00,8.100000000000000000e+02,4.642040729522705078e-01,2.086076021194458008e+00,6.245644622645170063e-01,0.000000000000000000e+00,1.000000000000000000e+00,1.110000000000000000e+02
0.000000000000000000e+00,0.000000000000000000e+00,1.000000000000000000e+00,0.000000000000000000e+00,8.090000000000000000e+02,2.679460048675537109e-01,1.517980813980102539e+00,2.596609152217689842e-01,0.000000000000000000e+00,1.000000000000000000e+00,1.120000000000000000e+02
1.000000000000000000e+00,0.000000000000000000e+00,0.000000000000000000e+00,0.000000000000000000e+00,8.080000000000000000e+02,3.423140048980712891e-01,1.710474967956542969e+00,3.867485363839068269e-01,0.000000000000000000e+00,0.000000000000000000e+00,1.120000000000000000e+02
0.000000000000000000e+00,1.000000000000000000e+00,0.000000000000000000e+00,3.000000000000000000e+00,8.100000000000000000e+02,2.287869453430175781e-01,1.943796873092651367e+00,7.136176607162761920e-01,0.000000000000000000e+00,1.000000000000000000e+00,1.110000000000000000e+02
0.000000000000000000e+00,0.000000000000000000e+00,1.000000000000000000e+00,0.000000000000000000e+00,8.090000000000000000e+02,2.625100612640380859e-01,1.912536144256591797e+00,6.596547099915810453e-01,0.000000000000000000e+00,1.000000000000000000e+00,1.120000000000000000e+02
1.000000000000000000e+00,0.000000000000000000e+00,0.000000000000000000e+00,0.000000000000000000e+00,8.080000000000000000e+02,2.808139324188232422e-01,1.705134868621826172e+00,4.317721372417821502e-01,0.000000000000000000e+00,0.000000000000000000e+00,1.120000000000000000e+02
0.000000000000000000e+00,1.000000000000000000e+00,0.000000000000000000e+00,1.000000000000000000e+00,8.080000000000000000e+02,3.359310626983642578e-01,1.687309026718139648e+00,3.692227265060944452e-01,0.000000000000000000e+00,1.000000000000000000e+00,1.110000000000000000e+02
0.000000000000000000e+00,0.000000000000000000e+00,1.000000000000000000e+00,0.000000000000000000e+00,8.070000000000000000e+02,2.729649543762207031e-01,1.881648778915405273e+00,6.173380166833033478e-01,0.000000000000000000e+00,1.000000000000000000e+00,1.120000000000000000e+02
0.000000000000000000e+00,0.000000000000000000e+00,1.000000000000000000e+00,0.000000000000000000e+00,8.060000000000000000e+02,3.030419349670410156e-01,1.902444124221801758e+00,6.032725507420152455e-01,0.000000000000000000e+00,0.000000000000000000e+00,1.120000000000000000e+02
0.000000000000000000e+00,0.000000000000000000e+00,1.000000000000000000e+00,0.000000000000000000e+00,8.050000000000000000e+02,2.407648563385009766e-01,1.900826930999755859e+00,6.707858632369345653e-01,0.000000000000000000e+00,0.000000000000000000e+00,1.120000000000000000e+02
1.000000000000000000e+00,1.000000000000000000e+00,1.000000000000000000e+00,4.000000000000000000e+00,8.080000000000000000e+02,2.658190727233886719e-01,1.753511190414428711e+00,4.912237229851756926e-01,0.000000000000000000e+00,1.000000000000000000e+00,1.110000000000000000e+02
0.000000000000000000e+00,0.000000000000000000e+00,1.000000000000000000e+00,0.000000000000000000e+00,8.070000000000000000e+02,2.749698162078857422e-01,1.809566020965576172e+00,5.508201432686999910e-01,0.000000000000000000e+00,1.000000000000000000e+00,1.120000000000000000e+02
1.000000000000000000e+00,0.000000000000000000e+00,0.000000000000000000e+00,0.000000000000000000e+00,8.060000000000000000e+02,4.463949203491210938e-01,2.038533926010131836e+00,5.894000316613097201e-01,0.000000000000000000e+00,1.000000000000000000e+00,1.110000000000000000e+02
0.000000000000000000e+00,0.000000000000000000e+00,1.000000000000000000e+00,0.000000000000000000e+00,8.050000000000000000e+02,2.190649509429931641e-01,1.815452098846435547e+00,6.049355044503452739e-01,1.000000000000000000e+00,0.000000000000000000e+00,1.110000000000000000e+02
1.000000000000000000e+00,1.000000000000000000e+00,1.000000000000000000e+00,4.000000000000000000e+00,8.080000000000000000e+02,2.914209365844726562e-01,1.586068868637084961e+00,3.080689278663221176e-01,0.000000000000000000e+00,1.000000000000000000e+00,1.120000000000000000e+02
0.000000000000000000e+00,0.000000000000000000e+00,1.000000000000000000e+00,0.000000000000000000e+00,8.070000000000000000e+02,3.651788234710693359e-01,1.659092903137207031e+00,3.005978362149885341e-01,0.000000000000000000e+00,1.000000000000000000e+00,1.110000000000000000e+02
1.000000000000000000e+00,0.000000000000000000e+00,0.000000000000000000e+00,0.000000000000000000e+00,8.060000000000000000e+02,2.585389614105224609e-01,1.824259996414184570e+00,5.746653284816483076e-01,0.000000000000000000e+00,0.000000000000000000e+00,1.110000000000000000e+02
0.000000000000000000e+00,1.000000000000000000e+00,0.000000000000000000e+00,3.000000000000000000e+00,8.080000000000000000e+02,2.280490398406982422e-01,1.783879041671752930e+00,5.586356184412171189e-01,0.000000000000000000e+00,1.000000000000000000e+00,1.120000000000000000e+02
1.000000000000000000e+00,1.000000000000000000e+00,1.000000000000000000e+00,3.000000000000000000e+00,8.100000000000000000e+02,2.546670436859130859e-01,1.934108018875122070e+00,6.927110767673889669e-01,0.000000000000000000e+00,0.000000000000000000e+00,1.120000000000000000e+02
0.000000000000000000e+00,1.000000000000000000e+00,0.000000000000000000e+00,4.000000000000000000e+00,8.130000000000000000e+02,2.083950042724609375e-01,1.833542108535766602e+00,6.430436772135355028e-01,0.000000000000000000e+00,0.000000000000000000e+00,1.120000000000000000e+02
1.000000000000000000e+00,0.000000000000000000e+00,0.000000000000000000e+00,0.000000000000000000e+00,8.120000000000000000e+02,3.431348800659179688e-01,1.765152931213378906e+00,4.418248422282238796e-01,0.000000000000000000e+00,1.000000000000000000e+00,1.110000000000000000e+02
0.000000000000000000e+00,1.000000000000000000e+00,0.000000000000000000e+00,3.000000000000000000e+00,8.140000000000000000e+02,2.335538864135742188e-01,1.799713134765625000e+00,5.749858792375897032e-01,0.000000000000000000e+00,0.000000000000000000e+00,1.110000000000000000e+02
0.000000000000000000e+00,1.000000000000000000e+00,0.000000000000000000e+00,3.000000000000000000e+00,8.160000000000000000e+02,6.666121482849121094e-01,1.956843852996826172e+00,2.987208614737227874e-01,0.000000000000000000e+00,0.000000000000000000e+00,1.110000000000000000e+02
0.000000000000000000e+00,0.000000000000000000e+00,1.000000000000000000e+00,0.000000000000000000e+00,8.150000000000000000e+02,3.460359573364257812e-01,1.896207094192504883e+00,5.614219641914901526e-01,0.000000000000000000e+00,1.000000000000000000e+00,1.120000000000000000e+02
0.000000000000000000e+00,0.000000000000000000e+00,1.000000000000000000e+00,0.000000000000000000e+00,8.140000000000000000e+02,2.687609195709228516e-01,1.878282070159912109e+00,6.230617215476540460e-01,0.000000000000000000e+00,1.000000000000000000e+00,1.110000000000000000e+02
0.000000000000000000e+00,0.000000000000000000e+00,1.000000000000000000e+00,0.000000000000000000e+00,8.130000000000000000e+02,2.825682163238525391e-01,1.738011121749877930e+00,4.613131295727915249e-01,0.000000000000000000e+00,0.000000000000000000e+00,1.110000000000000000e+02
0.000000000000000000e+00,1.000000000000000000e+00,0.000000000000000000e+00,4.000000000000000000e+00,8.160000000000000000e+02,2.802791595458984375e-01,1.672076940536499023e+00,4.002248966154893228e-01,0.000000000000000000e+00,1.000000000000000000e+00,1.120000000000000000e+02
1.000000000000000000e+00,0.000000000000000000e+00,0.000000000000000000e+00,0.000000000000000000e+00,8.150000000000000000e+02,4.028959274291992188e-01,2.122600078582763672e+00,7.226118196990114484e-01,0.000000000000000000e+00,1.000000000000000000e+00,1.110000000000000000e+02
1.000000000000000000e+00,1.000000000000000000e+00,1.000000000000000000e+00,3.000000000000000000e+00,8.170000000000000000e+02,2.323908805847167969e-01,1.713981866836547852e+00,4.869008997869218036e-01,0.000000000000000000e+00,0.000000000000000000e+00,1.110000000000000000e+02
0.000000000000000000e+00,1.000000000000000000e+00,0.000000000000000000e+00,2.000000000000000000e+00,8.180000000000000000e+02,2.637310028076171875e-01,1.574644088745117188e+00,3.117808391746484387e-01,0.000000000000000000e+00,0.000000000000000000e+00,1.110000000000000000e+02
0.000000000000000000e+00,1.000000000000000000e+00,0.000000000000000000e+00,1.000000000000000000e+00,8.180000000000000000e+02,2.980799674987792969e-01,1.901322126388549805e+00,6.129052823251004423e-01,0.000000000000000000e+00,0.000000000000000000e+00,1.110000000000000000e+02
0.000000000000000000e+00,1.000000000000000000e+00,0.000000000000000000e+00,3.000000000000000000e+00,8.200000000000000000e+02,2.611601352691650391e-01,1.720030784606933594e+00,4.831316134406867802e-01,0.000000000000000000e+00,0.000000000000000000e+00,1.110000000000000000e+02
1.000000000000000000e+00,1.000000000000000000e+00,1.000000000000000000e+00,3.000000000000000000e+00,8.220000000000000000e+02,3.049440383911132812e-01,1.856066942214965820e+00,5.559164272079651914e-01,0.000000000000000000e+00,0.000000000000000000e+00,1.110000000000000000e+02
0.000000000000000000e+00,1.000000000000000000e+00,0.000000000000000000e+00,2.000000000000000000e+00,8.230000000000000000e+02,2.559299468994140625e-01,1.775219917297363281e+00,5.312012554974037126e-01,0.000000000000000000e+00,0.000000000000000000e+00,1.110000000000000000e+02
0.000000000000000000e+00,0.000000000000000000e+00,1.000000000000000000e+00,0.000000000000000000e+00,8.220000000000000000e+02,2.583389282226562500e-01,1.817086219787597656e+00,5.816724645339699240e-01,0.000000000000000000e+00,1.000000000000000000e+00,1.120000000000000000e+02
0.000000000000000000e+00,1.000000000000000000e+00,0.000000000000000000e+00,2.000000000000000000e+00,8.230000000000000000e+02,2.657809257507324219e-01,1.861465930938720703e+00,6.098877234489199495e-01,0.000000000000000000e+00,1.000000000000000000e+00,1.110000000000000000e+02
1.000000000000000000e+00,1.000000000000000000e+00,1.000000000000000000e+00,3.000000000000000000e+00,8.250000000000000000e+02,2.862880229949951172e-01,1.529797077178955078e+00,2.567870022968704036e-01,0.000000000000000000e+00,0.000000000000000000e+00,1.110000000000000000e+02
1.000000000000000000e+00,0.000000000000000000e+00,0.000000000000000000e+00,0.000000000000000000e+00,8.240000000000000000e+02,3.619198799133300781e-01,1.645482063293457031e+00,2.856613644548681719e-01,1.000000000000000000e+00,1.000000000000000000e+00,1.120000000000000000e+02
0.000000000000000000e+00,0.000000000000000000e+00,1.000000000000000000e+00,0.000000000000000000e+00,8.230000000000000000e+02,2.519118785858154297e-01,1.651937961578369141e+00,4.042074113741521701e-01,0.000000000000000000e+00,0.000000000000000000e+00,1.120000000000000000e+02
1.000000000000000000e+00,1.000000000000000000e+00,1.000000000000000000e+00,4.000000000000000000e+00,8.260000000000000000e+02,3.080208301544189453e-01,1.752801895141601562e+00,4.570466506880935809e-01,0.000000000000000000e+00,0.000000000000000000e+00,1.120000000000000000e+02
0.000000000000000000e+00,1.000000000000000000e+00,0.000000000000000000e+00,2.000000000000000000e+00,8.270000000000000000e+02,2.400710582733154297e-01,1.629010200500488281e+00,4.028648331923639914e-01,0.000000000000000000e+00,0.000000000000000000e+00,1.120000000000000000e+02
0.000000000000000000e+00,0.000000000000000000e+00,1.000000000000000000e+00,0.000000000000000000e+00,8.260000000000000000e+02,2.397871017456054688e-01,1.802013874053955078e+00,5.714477047048718283e-01,0.000000000000000000e+00,1.000000000000000000e+00,1.110000000000000000e+02
0.000000000000000000e+00,0.000000000000000000e+00,1.000000000000000000e+00,0.000000000000000000e+00,8.250000000000000000e+02,2.869119644165039062e-01,1.953696966171264648e+00,6.751282107662499588e-01,0.000000000000000000e+00,0.000000000000000000e+00,1.110000000000000000e+02
1.000000000000000000e+00,1.000000000000000000e+00,1.000000000000000000e+00,4.000000000000000000e+00,8.280000000000000000e+02,2.489559650421142578e-01,1.703174829483032227e+00,4.619708913569077202e-01,0.000000000000000000e+00,1.000000000000000000e+00,1.120000000000000000e+02
0.000000000000000000e+00,1.000000000000000000e+00,0.000000000000000000e+00,2.000000000000000000e+00,8.290000000000000000e+02,2.200329303741455078e-01,1.515640974044799805e+00,3.111630454589133787e-01,0.000000000000000000e+00,0.000000000000000000e+00,1.120000000000000000e+02
0.000000000000000000e+00,1.000000000000000000e+00,0.000000000000000000e+00,1.000000000000000000e+00,8.290000000000000000e+02,2.833840847015380859e-01,1.976417064666748047e+00,7.039011886608035340e-01,0.000000000000000000e+00,0.000000000000000000e+00,1.120000000000000000e+02
0.000000000000000000e+00,1.000000000000000000e+00,0.000000000000000000e+00,2.000000000000000000e+00,8.300000000000000000e+02,2.682378292083740234e-01,1.604662895202636719e+00,3.423685503402507657e-01,0.000000000000000000e+00,0.000000000000000000e+00,1.120000000000000000e+02
0.000000000000000000e+00,1.000000000000000000e+00,0.000000000000000000e+00,2.000000000000000000e+00,8.310000000000000000e+02,2.811708450317382812e-01,1.946866035461425781e+00,6.723410554237688741e-01,0.000000000000000000e+00,0.000000000000000000e+00,1.120000000000000000e+02
0.000000000000000000e+00,1.000000000000000000e+00,0.000000000000000000e+00,3.000000000000000000e+00,8.330000000000000000e+02,2.533040046691894531e-01,1.694298028945922852e+00,4.502921512326862885e-01,0.000000000000000000e+00,0.000000000000000000e+00,1.120000000000000000e+02
0.000000000000000000e+00,1.000000000000000000e+00,0.000000000000000000e+00,2.000000000000000000e+00,8.340000000000000000e+02,2.343289852142333984e-01,1.533276796340942383e+00,3.004524376450920520e-01,0.000000000000000000e+00,0.000000000000000000e+00,1.120000000000000000e+02
0.000000000000000000e+00,1.000000000000000000e+00,0.000000000000000000e+00,3.000000000000000000e+00,8.360000000000000000e+02,2.570321559906005859e-01,1.570734024047851562e+00,3.212424059895877537e-01,0.000000000000000000e+00,0.000000000000000000e+00,1.120000000000000000e+02
1.000000000000000000e+00,1.000000000000000000e+00,1.000000000000000000e+00,2.000000000000000000e+00,8.370000000000000000e+02,4.414241313934326172e-01,1.683921098709106445e+00,2.553058664846326598e-01,0.000000000000000000e+00,0.000000000000000000e+00,1.120000000000000000e+02
1.000000000000000000e+00,1.000000000000000000e+00,1.000000000000000000e+00,4.000000000000000000e+00,8.400000000000000000e+02,4.211781024932861328e-01,2.049660921096801758e+00,6.380148694879704818e-01,0.000000000000000000e+00,0.000000000000000000e+00,1.120000000000000000e+02
0.000000000000000000e+00,1.000000000000000000e+00,0.000000000000000000e+00,2.000000000000000000e+00,8.410000000000000000e+02,2.602510452270507812e-01,1.565485954284667969e+00,3.205730543609018879e-01,0.000000000000000000e+00,0.000000000000000000e+00,1.120000000000000000e+02
0.000000000000000000e+00,1.000000000000000000e+00,0.000000000000000000e+00,2.000000000000000000e+00,8.420000000000000000e+02,2.915658950805664062e-01,1.915556907653808594e+00,6.359110603724864585e-01,0.000000000000000000e+00,0.000000000000000000e+00,1.120000000000000000e+02
0.000000000000000000e+00,1.000000000000000000e+00,0.000000000000000000e+00,2.000000000000000000e+00,8.430000000000000000e+02,2.359979152679443359e-01,1.770934104919433594e+00,5.403420916429093612e-01,0.000000000000000000e+00,0.000000000000000000e+00,1.120000000000000000e+02
1.000000000000000000e+00,1.000000000000000000e+00,1.000000000000000000e+00,3.000000000000000000e+00,8.450000000000000000e+02,2.764480113983154297e-01,1.758037090301513672e+00,4.984910908008448049e-01,0.000000000000000000e+00,0.000000000000000000e+00,1.120000000000000000e+02
0.000000000000000000e+00,0.000000000000000000e+00,1.000000000000000000e+00,0.000000000000000000e+00,8.440000000000000000e+02,2.544698715209960938e-01,1.679250001907348633e+00,4.445729009013930644e-01,0.000000000000000000e+00,1.000000000000000000e+00,1.110000000000000000e+02
1.000000000000000000e+00,1.000000000000000000e+00,1.000000000000000000e+00,2.000000000000000000e+00,8.450000000000000000e+02,3.032579421997070312e-01,1.770689010620117188e+00,4.820118224942075980e-01,0.000000000000000000e+00,1.000000000000000000e+00,1.120000000000000000e+02
0.000000000000000000e+00,1.000000000000000000e+00,0.000000000000000000e+00,3.000000000000000000e+00,8.470000000000000000e+02,2.739179134368896484e-01,1.965695858001708984e+00,6.975204852989682625e-01,0.000000000000000000e+00,0.000000000000000000e+00,1.120000000000000000e+02
0.000000000000000000e+00,1.000000000000000000e+00,0.000000000000000000e+00,1.000000000000000000e+00,8.470000000000000000e+02,2.369849681854248047e-01,1.519626140594482422e+00,3.009606886427428907e-01,0.000000000000000000e+00,0.000000000000000000e+00,1.120000000000000000e+02
0.000000000000000000e+00,1.000000000000000000e+00,0.000000000000000000e+00,4.000000000000000000e+00,8.500000000000000000e+02,2.957420349121093750e-01,1.741740942001342773e+00,4.426749592868271521e-01,0.000000000000000000e+00,0.000000000000000000e+00,1.120000000000000000e+02
0.000000000000000000e+00,1.000000000000000000e+00,0.000000000000000000e+00,2.000000000000000000e+00,8.510000000000000000e+02,2.483918666839599609e-01,1.988994836807250977e+00,7.481076253490461792e-01,0.000000000000000000e+00,0.000000000000000000e+00,1.120000000000000000e+02
1.000000000000000000e+00,1.000000000000000000e+00,1.000000000000000000e+00,3.000000000000000000e+00,8.530000000000000000e+02,2.921838760375976562e-01,1.903166055679321289e+00,6.349917948312355787e-01,0.000000000000000000e+00,0.000000000000000000e+00,1.120000000000000000e+02
1.000000000000000000e+00,1.000000000000000000e+00,1.000000000000000000e+00,4.000000000000000000e+00,8.560000000000000000e+02,3.115911483764648438e-01,1.896188974380493164e+00,5.977966680027650970e-01,0.000000000000000000e+00,0.000000000000000000e+00,1.120000000000000000e+02
1.000000000000000000e+00,1.000000000000000000e+00,1.000000000000000000e+00,2.000000000000000000e+00,8.570000000000000000e+02,2.673740386962890625e-01,1.675755023956298828e+00,4.238247659201848094e-01,0.000000000000000000e+00,0.000000000000000000e+00,1.120000000000000000e+02
1.000000000000000000e+00,0.000000000000000000e+00,0.000000000000000000e+00,0.000000000000000000e+00,8.560000000000000000e+02,2.990109920501708984e-01,1.555721998214721680e+00,2.631235899450611870e-01,0.000000000000000000e+00,1.000000000000000000e+00,1.110000000000000000e+02
1.000000000000000000e+00,1.000000000000000000e+00,1.000000000000000000e+00,2.000000000000000000e+00,8.570000000000000000e+02,3.370459079742431641e-01,1.931612014770507812e+00,6.111396029393236784e-01,0.000000000000000000e+00,1.000000000000000000e+00,1.120000000000000000e+02
1.000000000000000000e+00,1.000000000000000000e+00,1.000000000000000000e+00,2.000000000000000000e+00,8.580000000000000000e+02,2.958178520202636719e-01,1.943166971206665039e+00,6.545741673303110408e-01,0.000000000000000000e+00,0.000000000000000000e+00,1.120000000000000000e+02
1.000000000000000000e+00,1.000000000000000000e+00,1.000000000000000000e+00,3.000000000000000000e+00,8.600000000000000000e+02,2.748560905456542969e-01,1.602002859115600586e+00,3.400961747691537695e-01,1.000000000000000000e+00,1.000000000000000000e+00,1.110000000000000000e+02
1.000000000000000000e+00,1.000000000000000000e+00,1.000000000000000000e+00,2.000000000000000000e+00,8.610000000000000000e+02,2.849581241607666016e-01,1.786732196807861328e+00,5.100636056211853564e-01,0.000000000000000000e+00,0.000000000000000000e+00,1.110000000000000000e+02
0.000000000000000000e+00,1.000000000000000000e+00,0.000000000000000000e+00,3.000000000000000000e+00,8.630000000000000000e+02,2.666769027709960938e-01,1.975694894790649414e+00,7.190052631940061501e-01,0.000000000000000000e+00,0.000000000000000000e+00,1.110000000000000000e+02
0.000000000000000000e+00,1.000000000000000000e+00,0.000000000000000000e+00,1.000000000000000000e+00,8.630000000000000000e+02,2.623939514160156250e-01,1.701113939285278320e+00,4.537877279136716124e-01,0.000000000000000000e+00,0.000000000000000000e+00,1.110000000000000000e+02
1.000000000000000000e+00,1.000000000000000000e+00,1.000000000000000000e+00,3.000000000000000000e+00,8.650000000000000000e+02,2.705099582672119141e-01,1.992659807205200195e+00,7.295937044772000668e-01,0.000000000000000000e+00,0.000000000000000000e+00,1.110000000000000000e+02
1.000000000000000000e+00,1.000000000000000000e+00,1.000000000000000000e+00,2.000000000000000000e+00,8.660000000000000000e+02,3.053009510040283203e-01,1.772660970687866211e+00,4.859282484187542606e-01,0.000000000000000000e+00,0.000000000000000000e+00,1.110000000000000000e+02
1.000000000000000000e+00,1.000000000000000000e+00,1.000000000000000000e+00,3.000000000000000000e+00,8.680000000000000000e+02,3.389661312103271484e-01,1.874739885330200195e+00,5.440051549534357100e-01,0.000000000000000000e+00,0.000000000000000000e+00,1.110000000000000000e+02
1.000000000000000000e+00,1.000000000000000000e+00,1.000000000000000000e+00,1.000000000000000000e+00,8.680000000000000000e+02,3.073489665985107422e-01,1.754994869232177734e+00,4.658732260952793136e-01,0.000000000000000000e+00,0.000000000000000000e+00,1.110000000000000000e+02
0.000000000000000000e+00,0.000000000000000000e+00,1.000000000000000000e+00,0.000000000000000000e+00,8.670000000000000000e+02,6.159670352935791016e-01,1.052314710617065430e+02,2.859913886523739457e-01,1.000000000000000000e+00,0.000000000000000000e+00,1.110000000000000000e+02
0.000000000000000000e+00,1.000000000000000000e+00,0.000000000000000000e+00,2.000000000000000000e+00,8.680000000000000000e+02,5.240521430969238281e-01,1.807765007019042969e+00,2.938493852846190135e-01,0.000000000000000000e+00,0.000000000000000000e+00,1.110000000000000000e+02
1.000000000000000000e+00,0.000000000000000000e+00,0.000000000000000000e+00,0.000000000000000000e+00,8.670000000000000000e+02,3.151400089263916016e-01,1.711730957031250000e+00,4.055252736319958640e-01,0.000000000000000000e+00,1.000000000000000000e+00,1.120000000000000000e+02
0.000000000000000000e+00,0.000000000000000000e+00,1.000000000000000000e+00,0.000000000000000000e+00,8.660000000000000000e+02,2.565162181854248047e-01,1.903728961944580078e+00,6.590857308846276297e-01,0.000000000000000000e+00,0.000000000000000000e+00,1.120000000000000000e+02
1.000000000000000000e+00,0.000000000000000000e+00,0.000000000000000000e+00,0.000000000000000000e+00,8.650000000000000000e+02,2.905330657958984375e-01,2.015269041061401367e+00,7.410446049382585221e-01,0.000000000000000000e+00,0.000000000000000000e+00,1.120000000000000000e+02
0.000000000000000000e+00,0.000000000000000000e+00,1.000000000000000000e+00,0.000000000000000000e+00,8.640000000000000000e+02,2.499558925628662109e-01,1.568145990371704102e+00,3.263742214263899433e-01,0.000000000000000000e+00,0.000000000000000000e+00,1.120000000000000000e+02
0.000000000000000000e+00,1.000000000000000000e+00,0.000000000000000000e+00,3.000000000000000000e+00,8.660000000000000000e+02,2.303509712219238281e-01,1.773168087005615234e+00,5.493809204406276958e-01,0.000000000000000000e+00,0.000000000000000000e+00,1.120000000000000000e+02
0.000000000000000000e+00,0.000000000000000000e+00,1.000000000000000000e+00,0.000000000000000000e+00,8.650000000000000000e+02,2.380189895629882812e-01,1.670634984970092773e+00,4.369001295196702217e-01,0.000000000000000000e+00,1.000000000000000000e+00,1.110000000000000000e+02
1.000000000000000000e+00,1.000000000000000000e+00,1.000000000000000000e+00,0.000000000000000000e+00,8.640000000000000000e+02,3.304688930511474609e-01,2.034220933914184570e+00,7.042603945671286336e-01,0.000000000000000000e+00,1.000000000000000000e+00,1.120000000000000000e+02
0.000000000000000000e+00,1.000000000000000000e+00,0.000000000000000000e+00,0.000000000000000000e+00,8.630000000000000000e+02,3.611969947814941406e-01,1.711929082870483398e+00,3.666300026809281021e-01,0.000000000000000000e+00,0.000000000000000000e+00,1.120000000000000000e+02
0.000000000000000000e+00,1.000000000000000000e+00,0.000000000000000000e+00,4.000000000000000000e+00,8.660000000000000000e+02,2.736229896545410156e-01,1.594537973403930664e+00,3.279512173921391716e-01,0.000000000000000000e+00,0.000000000000000000e+00,1.120000000000000000e+02
1.000000000000000000e+00,0.000000000000000000e+00,0.000000000000000000e+00,0.000000000000000000e+00,8.650000000000000000e+02,4.223589897155761719e-01,1.915701150894165039e+00,5.102210011976728854e-01,0.000000000000000000e+00,0.000000000000000000e+00,1.120000000000000000e+02
1.000000000000000000e+00,1.000000000000000000e+00,1.000000000000000000e+00,3.000000000000000000e+00,8.670000000000000000e+02,2.706940174102783203e-01,1.693354845046997070e+00,4.370773268283949520e-01,0.000000000000000000e+00,0.000000000000000000e+00,1.120000000000000000e+02
0.000000000000000000e+00,0.000000000000000000e+00,1.000000000000000000e+00,0.000000000000000000e+00,8.660000000000000000e+02,2.577080726623535156e-01,1.502575874328613281e+00,2.565756025347154523e-01,0.000000000000000000e+00,1.000000000000000000e+00,1.110000000000000000e+02
1.000000000000000000e+00,1.000000000000000000e+00,1.000000000000000000e+00,3.000000000000000000e+00,8.680000000000000000e+02,3.539090156555175781e-01,1.662467002868652344e+00,3.190612814186489232e-01,0.000000000000000000e+00,1.000000000000000000e+00,1.120000000000000000e+02
1.000000000000000000e+00,1.000000000000000000e+00,1.000000000000000000e+00,4.000000000000000000e+00,8.710000000000000000e+02,3.281769752502441406e-01,1.905948162078857422e+00,5.915017438865131094e-01,0.000000000000000000e+00,0.000000000000000000e+00,1.120000000000000000e+02
0.000000000000000000e+00,1.000000000000000000e+00,0.000000000000000000e+00,0.000000000000000000e+00,8.700000000000000000e+02,2.603030204772949219e-01,1.557919025421142578e+00,3.165328700617665025e-01,0.000000000000000000e+00,0.000000000000000000e+00,1.120000000000000000e+02
1.000000000000000000e+00,1.000000000000000000e+00,1.000000000000000000e+00,1.000000000000000000e+00,8.700000000000000000e+02,2.476391792297363281e-01,1.631810903549194336e+00,3.816129943069917485e-01,0.000000000000000000e+00,0.000000000000000000e+00,1.120000000000000000e+02
1.000000000000000000e+00,1.000000000000000000e+00,1.000000000000000000e+00,2.000000000000000000e+00,8.710000000000000000e+02,2.920670509338378906e-01,1.689059019088745117e+00,4.207062393042792503e-01,0.000000000000000000e+00,0.000000000000000000e+00,1.120000000000000000e+02
1.000000000000000000e+00,1.000000000000000000e+00,1.000000000000000000e+00,3.000000000000000000e+00,8.730000000000000000e+02,2.912290096282958984e-01,1.604788064956665039e+00,3.256617963136161920e-01,0.000000000000000000e+00,0.000000000000000000e+00,1.120000000000000000e+02
1.000000000000000000e+00,1.000000000000000000e+00,1.000000000000000000e+00,2.000000000000000000e+00,8.740000000000000000e+02,3.351650238037109375e-01,2.017959117889404297e+00,6.933315456415347633e-01,0.000000000000000000e+00,0.000000000000000000e+00,1.120000000000000000e+02
0.000000000000000000e+00,1.000000000000000000e+00,0.000000000000000000e+00,3.000000000000000000e+00,8.760000000000000000e+02,2.435429096221923828e-01,1.558870077133178711e+00,3.359834591304315388e-01,0.000000000000000000e+00,0.000000000000000000e+00,1.120000000000000000e+02
0.000000000000000000e+00,1.000000000000000000e+00,0.000000000000000000e+00,3.000000000000000000e+00,8.780000000000000000e+02,2.649757862091064453e-01,1.900665998458862305e+00,6.364178559369970678e-01,0.000000000000000000e+00,0.000000000000000000e+00,1.120000000000000000e+02
0.000000000000000000e+00,1.000000000000000000e+00,0.000000000000000000e+00,3.000000000000000000e+00,8.800000000000000000e+02,2.670569419860839844e-01,1.624646902084350586e+00,3.614216583313763498e-01,0.000000000000000000e+00,0.000000000000000000e+00,1.120000000000000000e+02
1.000000000000000000e+00,0.000000000000000000e+00,0.000000000000000000e+00,0.000000000000000000e+00,8.790000000000000000e+02,2.834401130676269531e-01,1.978089094161987305e+00,7.059765768466402802e-01,0.000000000000000000e+00,1.000000000000000000e+00,1.110000000000000000e+02
0.000000000000000000e+00,1.000000000000000000e+00,0.000000000000000000e+00,2.000000000000000000e+00,8.800000000000000000e+02,2.751488685607910156e-01,1.513168096542358398e+00,2.529883143962293746e-01,0.000000000000000000e+00,1.000000000000000000e+00,1.120000000000000000e+02
1.000000000000000000e+00,1.000000000000000000e+00,1.000000000000000000e+00,4.000000000000000000e+00,8.830000000000000000e+02,4.006340503692626953e-01,1.966547966003417969e+00,5.692731896032438010e-01,0.000000000000000000e+00,0.000000000000000000e+00,1.120000000000000000e+02
1.000000000000000000e+00,0.000000000000000000e+00,0.000000000000000000e+00,0.000000000000000000e+00,8.820000000000000000e+02,3.729360103607177734e-01,2.039865970611572266e+00,6.757995022937040019e-01,1.000000000000000000e+00,1.000000000000000000e+00,1.110000000000000000e+02
0.000000000000000000e+00,0.000000000000000000e+00,1.000000000000000000e+00,0.000000000000000000e+00,8.810000000000000000e+02,2.716920375823974609e-01,1.554616212844848633e+00,2.975912349425720027e-01,0.000000000000000000e+00,0.000000000000000000e+00,1.110000000000000000e+02
0.000000000000000000e+00,1.000000000000000000e+00,0.000000000000000000e+00,1.000000000000000000e+00,8.810000000000000000e+02,2.747490406036376953e-01,1.759865045547485352e+00,5.073294657593936385e-01,0.000000000000000000e+00,0.000000000000000000e+00,1.110000000000000000e+02
1.000000000000000000e+00,1.000000000000000000e+00,1.000000000000000000e+00,5.000000000000000000e+00,8.850000000000000000e+02,2.931630611419677734e-01,1.629743814468383789e+00,3.539615309204959814e-01,0.000000000000000000e+00,0.000000000000000000e+00,1.110000000000000000e+02
1.000000000000000000e+00,1.000000000000000000e+00,1.000000000000000000e+00,3.000000000000000000e+00,8.870000000000000000e+02,3.378019332885742188e-01,1.892355918884277344e+00,5.628522819775420016e-01,0.000000000000000000e+00,0.000000000000000000e+00,1.110000000000000000e+02
0.000000000000000000e+00,0.000000000000000000e+00,1.000000000000000000e+00,0.000000000000000000e+00,8.860000000000000000e+02,2.475969791412353516e-01,1.846535921096801758e+00,6.094400284112746480e-01,0.000000000000000000e+00,0.000000000000000000e+00,1.110000000000000000e+02
0.000000000000000000e+00,1.000000000000000000e+00,0.000000000000000000e+00,4.000000000000000000e+00,8.890000000000000000e+02,2.377150058746337891e-01,1.540465831756591797e+00,3.169432766080060859e-01,0.000000000000000000e+00,0.000000000000000000e+00,1.110000000000000000e+02
0.000000000000000000e+00,0.000000000000000000e+00,1.000000000000000000e+00,0.000000000000000000e+00,8.880000000000000000e+02,3.364980220794677734e-01,1.983270168304443359e+00,6.498771368685845040e-01,0.000000000000000000e+00,1.000000000000000000e+00,1.120000000000000000e+02
1.000000000000000000e+00,1.000000000000000000e+00,1.000000000000000000e+00,2.000000000000000000e+00,8.890000000000000000e+02,2.554428577423095703e-01,1.843243837356567383e+00,5.933440504514020386e-01,0.000000000000000000e+00,1.000000000000000000e+00,1.110000000000000000e+02
0.000000000000000000e+00,0.000000000000000000e+00,1.000000000000000000e+00,0.000000000000000000e+00,8.880000000000000000e+02,3.012471199035644531e-01,2.013363838195800781e+00,7.233380539094849127e-01,0.000000000000000000e+00,1.000000000000000000e+00,1.120000000000000000e+02
1.000000000000000000e+00,0.000000000000000000e+00,0.000000000000000000e+00,0.000000000000000000e+00,8.870000000000000000e+02,3.145830631256103516e-01,1.898960113525390625e+00,5.892001019149288865e-01,0.000000000000000000e+00,1.000000000000000000e+00,1.110000000000000000e+02
1.000000000000000000e+00,0.000000000000000000e+00,0.000000000000000000e+00,0.000000000000000000e+00,8.860000000000000000e+02,2.986540794372558594e-01,1.642786979675292969e+00,3.489991708594570308e-01,0.000000000000000000e+00,0.000000000000000000e+00,1.110000000000000000e+02
1.000000000000000000e+00,0.000000000000000000e+00,0.000000000000000000e+00,0.000000000000000000e+00,8.850000000000000000e+02,2.976441383361816406e-01,1.560832977294921875e+00,2.600085760130425028e-01,0.000000000000000000e+00,0.000000000000000000e+00,1.110000000000000000e+02
0.000000000000000000e+00,1.000000000000000000e+00,0.000000000000000000e+00,2.000000000000000000e+00,8.860000000000000000e+02,3.107190132141113281e-01,1.814432144165039062e+00,5.242315663423456895e-01,0.000000000000000000e+00,0.000000000000000000e+00,1.110000000000000000e+02
0.000000000000000000e+00,1.000000000000000000e+00,0.000000000000000000e+00,3.000000000000000000e+00,8.880000000000000000e+02,2.701249122619628906e-01,1.834058046340942383e+00,5.750042979554371714e-01,0.000000000000000000e+00,0.000000000000000000e+00,1.110000000000000000e+02
1.000000000000000000e+00,1.000000000000000000e+00,1.000000000000000000e+00,2.000000000000000000e+00,8.890000000000000000e+02,2.739140987396240234e-01,1.644093036651611328e+00,3.860645855469377885e-01,0.000000000000000000e+00,0.000000000000000000e+00,1.110000000000000000e+02
0.000000000000000000e+00,0.000000000000000000e+00,1.000000000000000000e+00,0.000000000000000000e+00,8.880000000000000000e+02,2.818961143493652344e-01,1.853256940841674805e+00,5.725328234823379159e-01,0.000000000000000000e+00,1.000000000000000000e+00,1.120000000000000000e+02
0.000000000000000000e+00,1.000000000000000000e+00,0.000000000000000000e+00,2.000000000000000000e+00,8.890000000000000000e+02,2.760071754455566406e-01,1.768197059631347656e+00,5.075372937383927363e-01,0.000000000000000000e+00,1.000000000000000000e+00,1.110000000000000000e+02
1.000000000000000000e+00,1.000000000000000000e+00,1.000000000000000000e+00,4.000000000000000000e+00,8.920000000000000000e+02,2.713978290557861328e-01,1.695828914642333984e+00,4.368874427499911395e-01,0.000000000000000000e+00,0.000000000000000000e+00,1.110000000000000000e+02
1.000000000000000000e+00,1.000000000000000000e+00,1.000000000000000000e+00,1.000000000000000000e+00,8.920000000000000000e+02,3.285279273986816406e-01,1.859350919723510742e+00,5.295294664557326225e-01,0.000000000000000000e+00,0.000000000000000000e+00,1.110000000000000000e+02
1.000000000000000000e+00,1.000000000000000000e+00,1.000000000000000000e+00,4.000000000000000000e+00,8.950000000000000000e+02,3.165562152862548828e-01,1.828747034072875977e+00,5.250576433805681509e-01,0.000000000000000000e+00,0.000000000000000000e+00,1.110000000000000000e+02
1.000000000000000000e+00,1.000000000000000000e+00,1.000000000000000000e+00,4.000000000000000000e+00,8.980000000000000000e+02,2.692730426788330078e-01,1.700491905212402344e+00,4.423741342690868938e-01,0.000000000000000000e+00,0.000000000000000000e+00,1.110000000000000000e+02
1.000000000000000000e+00,1.000000000000000000e+00,1.000000000000000000e+00,6.000000000000000000e+00,9.030000000000000000e+02,2.703571319580078125e-01,1.801868915557861328e+00,5.442356038707383270e-01,0.000000000000000000e+00,0.000000000000000000e+00,1.110000000000000000e+02
0.000000000000000000e+00,1.000000000000000000e+00,0.000000000000000000e+00,3.000000000000000000e+00,9.050000000000000000e+02,2.634530067443847656e-01,1.790004014968872070e+00,5.343384998494170590e-01,0.000000000000000000e+00,0.000000000000000000e+00,1.110000000000000000e+02
1.000000000000000000e+00,1.000000000000000000e+00,1.000000000000000000e+00,2.000000000000000000e+00,9.060000000000000000e+02,2.434730529785156250e-01,1.748700141906738281e+00,5.164708964225728227e-01,0.000000000000000000e+00,0.000000000000000000e+00,1.110000000000000000e+02
0.000000000000000000e+00,0.000000000000000000e+00,1.000000000000000000e+00,0.000000000000000000e+00,9.050000000000000000e+02,2.654838562011718750e-01,1.665921926498413086e+00,3.992948858657489053e-01,0.000000000000000000e+00,1.000000000000000000e+00,1.120000000000000000e+02
0.000000000000000000e+00,1.000000000000000000e+00,0.000000000000000000e+00,3.000000000000000000e+00,9.070000000000000000e+02,3.018679618835449219e-01,1.864032983779907227e+00,5.631966421352663232e-01,0.000000000000000000e+00,1.000000000000000000e+00,1.110000000000000000e+02
0.000000000000000000e+00,1.000000000000000000e+00,0.000000000000000000e+00,3.000000000000000000e+00,9.090000000000000000e+02,2.859752178192138672e-01,1.529069185256958008e+00,2.593662476922264926e-01,0.000000000000000000e+00,0.000000000000000000e+00,1.110000000000000000e+02
1.000000000000000000e+00,1.000000000000000000e+00,1.000000000000000000e+00,3.000000000000000000e+00,9.110000000000000000e+02,3.356368541717529297e-01,1.732806921005249023e+00,4.087645486676291240e-01,0.000000000000000000e+00,0.000000000000000000e+00,1.110000000000000000e+02
1.000000000000000000e+00,1.000000000000000000e+00,1.000000000000000000e+00,3.000000000000000000e+00,9.130000000000000000e+02,2.714571952819824219e-01,1.704322099685668945e+00,4.464675789670455308e-01,0.000000000000000000e+00,0.000000000000000000e+00,1.110000000000000000e+02
0.000000000000000000e+00,1.000000000000000000e+00,0.000000000000000000e+00,2.000000000000000000e+00,9.140000000000000000e+02,2.614879608154296875e-01,1.864150047302246094e+00,6.105221082373799568e-01,0.000000000000000000e+00,0.000000000000000000e+00,1.110000000000000000e+02
1.000000000000000000e+00,1.000000000000000000e+00,1.000000000000000000e+00,3.000000000000000000e+00,9.160000000000000000e+02,2.898981571197509766e-01,1.871087074279785156e+00,5.984275621276844426e-01,0.000000000000000000e+00,0.000000000000000000e+00,1.110000000000000000e+02
0.000000000000000000e+00,1.000000000000000000e+00,0.000000000000000000e+00,5.000000000000000000e+00,9.200000000000000000e+02,2.672779560089111328e-01,1.555458068847656250e+00,3.042408981666122059e-01,0.000000000000000000e+00,0.000000000000000000e+00,1.110000000000000000e+02
1.000000000000000000e+00,1.000000000000000000e+00,1.000000000000000000e+00,4.000000000000000000e+00,9.230000000000000000e+02,3.027000427246093750e-01,1.574665784835815430e+00,2.789991482087562646e-01,1.000000000000000000e+00,0.000000000000000000e+00,1.110000000000000000e+02
1.000000000000000000e+00,0.000000000000000000e+00,0.000000000000000000e+00,0.000000000000000000e+00,9.220000000000000000e+02,4.321010112762451172e-01,2.075053930282592773e+00,6.537633090128668334e-01,0.000000000000000000e+00,1.000000000000000000e+00,1.120000000000000000e+02
0.000000000000000000e+00,0.000000000000000000e+00,1.000000000000000000e+00,0.000000000000000000e+00,9.210000000000000000e+02,2.398009300231933594e-01,1.611301898956298828e+00,3.820916266575676845e-01,0.000000000000000000e+00,0.000000000000000000e+00,1.120000000000000000e+02
