choice, accuracy, solution,  reward, cumulative_reward, rt,  total_trial_time, iti, cp_with_slow_fast, obs_cp_with_slow_fast, high_val_cue
0.000000000000000000e+00,0.000000000000000000e+00,1.000000000000000000e+00,0.000000000000000000e+00,5.990000000000000000e+02,5.379900932312011719e-01,2.173229932785034180e+00,6.412553809540693095e-01,0.000000000000000000e+00,0.000000000000000000e+00,1.120000000000000000e+02
0.000000000000000000e+00,1.000000000000000000e+00,0.000000000000000000e+00,3.000000000000000000e+00,6.010000000000000000e+02,2.665119171142578125e-01,1.564656972885131836e+00,3.063641676822376758e-01,0.000000000000000000e+00,0.000000000000000000e+00,1.120000000000000000e+02
0.000000000000000000e+00,1.000000000000000000e+00,0.000000000000000000e+00,3.000000000000000000e+00,6.030000000000000000e+02,2.948439121246337891e-01,1.997867107391357422e+00,7.039163320291625947e-01,0.000000000000000000e+00,0.000000000000000000e+00,1.120000000000000000e+02
0.000000000000000000e+00,1.000000000000000000e+00,0.000000000000000000e+00,2.000000000000000000e+00,6.040000000000000000e+02,2.628958225250244141e-01,1.791867971420288086e+00,5.293756183587390307e-01,0.000000000000000000e+00,0.000000000000000000e+00,1.120000000000000000e+02
0.000000000000000000e+00,0.000000000000000000e+00,1.000000000000000000e+00,0.000000000000000000e+00,6.030000000000000000e+02,2.507960796356201172e-01,1.629354000091552734e+00,3.922608224279171552e-01,0.000000000000000000e+00,1.000000000000000000e+00,1.110000000000000000e+02
1.000000000000000000e+00,1.000000000000000000e+00,1.000000000000000000e+00,3.000000000000000000e+00,6.050000000000000000e+02,6.024088859558105469e-01,2.083060979843139648e+00,4.921088837432336383e-01,0.000000000000000000e+00,1.000000000000000000e+00,1.120000000000000000e+02
0.000000000000000000e+00,0.000000000000000000e+00,1.000000000000000000e+00,0.000000000000000000e+00,6.040000000000000000e+02,2.511749267578125000e-01,1.988931179046630859e+00,7.473848407962768725e-01,0.000000000000000000e+00,1.000000000000000000e+00,1.110000000000000000e+02
1.000000000000000000e+00,0.000000000000000000e+00,0.000000000000000000e+00,0.000000000000000000e+00,6.030000000000000000e+02,2.718219757080078125e-01,1.831155061721801758e+00,5.787835856341179142e-01,0.000000000000000000e+00,0.000000000000000000e+00,1.110000000000000000e+02
1.000000000000000000e+00,1.000000000000000000e+00,1.000000000000000000e+00,3.000000000000000000e+00,6.050000000000000000e+02,2.626469135284423828e-01,1.660148859024047852e+00,4.058320039287287018e-01,0.000000000000000000e+00,0.000000000000000000e+00,1.110000000000000000e+02
0.000000000000000000e+00,0.000000000000000000e+00,1.000000000000000000e+00,0.000000000000000000e+00,6.040000000000000000e+02,2.629950046539306641e-01,1.819064140319824219e+00,5.581341704453934849e-01,0.000000000000000000e+00,1.000000000000000000e+00,1.120000000000000000e+02
0.000000000000000000e+00,0.000000000000000000e+00,1.000000000000000000e+00,0.000000000000000000e+00,6.030000000000000000e+02,2.294178009033203125e-01,1.814636945724487305e+00,5.894890360104474425e-01,0.000000000000000000e+00,0.000000000000000000e+00,1.120000000000000000e+02
0.000000000000000000e+00,1.000000000000000000e+00,0.000000000000000000e+00,2.000000000000000000e+00,6.040000000000000000e+02,2.228341102600097656e-01,1.507575988769531250e+00,2.974387747976912633e-01,0.000000000000000000e+00,0.000000000000000000e+00,1.120000000000000000e+02
1.000000000000000000e+00,1.000000000000000000e+00,1.000000000000000000e+00,2.000000000000000000e+00,6.050000000000000000e+02,2.878401279449462891e-01,1.735397100448608398e+00,4.660551712243400924e-01,0.000000000000000000e+00,0.000000000000000000e+00,1.120000000000000000e+02
1.000000000000000000e+00,1.000000000000000000e+00,1.000000000000000000e+00,3.000000000000000000e+00,6.070000000000000000e+02,2.839360237121582031e-01,1.770451068878173828e+00,4.865538351754782886e-01,0.000000000000000000e+00,0.000000000000000000e+00,1.120000000000000000e+02
0.000000000000000000e+00,0.000000000000000000e+00,1.000000000000000000e+00,0.000000000000000000e+00,6.060000000000000000e+02,2.513549327850341797e-01,1.732668876647949219e+00,4.859462298532910007e-01,0.000000000000000000e+00,1.000000000000000000e+00,1.110000000000000000e+02
0.000000000000000000e+00,1.000000000000000000e+00,0.000000000000000000e+00,2.000000000000000000e+00,6.070000000000000000e+02,2.931029796600341797e-01,1.600546121597290039e+00,3.200760836125157716e-01,0.000000000000000000e+00,0.000000000000000000e+00,1.110000000000000000e+02
1.000000000000000000e+00,0.000000000000000000e+00,0.000000000000000000e+00,0.000000000000000000e+00,6.060000000000000000e+02,2.940940856933593750e-01,2.026218891143798828e+00,7.459177137904406951e-01,0.000000000000000000e+00,1.000000000000000000e+00,1.120000000000000000e+02
0.000000000000000000e+00,0.000000000000000000e+00,1.000000000000000000e+00,0.000000000000000000e+00,6.050000000000000000e+02,2.705130577087402344e-01,1.638821840286254883e+00,3.851733288896635465e-01,0.000000000000000000e+00,1.000000000000000000e+00,1.110000000000000000e+02
0.000000000000000000e+00,0.000000000000000000e+00,1.000000000000000000e+00,0.000000000000000000e+00,6.040000000000000000e+02,3.436300754547119141e-01,1.971578121185302734e+00,6.399068430414600606e-01,0.000000000000000000e+00,1.000000000000000000e+00,1.120000000000000000e+02
0.000000000000000000e+00,1.000000000000000000e+00,0.000000000000000000e+00,4.000000000000000000e+00,6.070000000000000000e+02,2.260189056396484375e-01,1.876260995864868164e+00,6.662515260978645326e-01,0.000000000000000000e+00,0.000000000000000000e+00,1.120000000000000000e+02
0.000000000000000000e+00,0.000000000000000000e+00,1.000000000000000000e+00,0.000000000000000000e+00,6.060000000000000000e+02,2.746841907501220703e-01,1.533925056457519531e+00,2.673291243265654149e-01,0.000000000000000000e+00,1.000000000000000000e+00,1.110000000000000000e+02
0.000000000000000000e+00,1.000000000000000000e+00,0.000000000000000000e+00,3.000000000000000000e+00,6.080000000000000000e+02,2.614340782165527344e-01,1.875447988510131836e+00,6.257818346891510508e-01,0.000000000000000000e+00,1.000000000000000000e+00,1.120000000000000000e+02
1.000000000000000000e+00,1.000000000000000000e+00,1.000000000000000000e+00,3.000000000000000000e+00,6.100000000000000000e+02,2.708318233489990234e-01,1.881546974182128906e+00,6.240975114265703283e-01,0.000000000000000000e+00,0.000000000000000000e+00,1.120000000000000000e+02
1.000000000000000000e+00,1.000000000000000000e+00,1.000000000000000000e+00,3.000000000000000000e+00,6.120000000000000000e+02,2.865781784057617188e-01,1.647479057312011719e+00,3.719107219251275298e-01,0.000000000000000000e+00,0.000000000000000000e+00,1.120000000000000000e+02
0.000000000000000000e+00,1.000000000000000000e+00,0.000000000000000000e+00,2.000000000000000000e+00,6.130000000000000000e+02,2.956140041351318359e-01,1.627774953842163086e+00,3.331667867759571799e-01,0.000000000000000000e+00,0.000000000000000000e+00,1.120000000000000000e+02
0.000000000000000000e+00,1.000000000000000000e+00,0.000000000000000000e+00,1.000000000000000000e+00,6.130000000000000000e+02,2.913880348205566406e-01,1.602965116500854492e+00,3.194892550595254122e-01,0.000000000000000000e+00,0.000000000000000000e+00,1.120000000000000000e+02
1.000000000000000000e+00,1.000000000000000000e+00,1.000000000000000000e+00,2.000000000000000000e+00,6.140000000000000000e+02,5.003879070281982422e-01,1.956859111785888672e+00,4.596176706472513418e-01,0.000000000000000000e+00,0.000000000000000000e+00,1.120000000000000000e+02
0.000000000000000000e+00,1.000000000000000000e+00,0.000000000000000000e+00,3.000000000000000000e+00,6.160000000000000000e+02,2.794759273529052734e-01,1.556723833084106445e+00,2.832516527825402197e-01,0.000000000000000000e+00,0.000000000000000000e+00,1.120000000000000000e+02
1.000000000000000000e+00,1.000000000000000000e+00,1.000000000000000000e+00,1.000000000000000000e+00,6.160000000000000000e+02,3.188052177429199219e-01,1.785975933074951172e+00,4.691177866332561508e-01,0.000000000000000000e+00,0.000000000000000000e+00,1.120000000000000000e+02
0.000000000000000000e+00,0.000000000000000000e+00,1.000000000000000000e+00,0.000000000000000000e+00,6.150000000000000000e+02,2.635769844055175781e-01,1.887798070907592773e+00,6.235018186239800198e-01,1.000000000000000000e+00,1.000000000000000000e+00,1.110000000000000000e+02
1.000000000000000000e+00,1.000000000000000000e+00,1.000000000000000000e+00,3.000000000000000000e+00,6.170000000000000000e+02,2.393031120300292969e-01,1.497174978256225586e+00,2.710725142691630118e-01,0.000000000000000000e+00,1.000000000000000000e+00,1.120000000000000000e+02
1.000000000000000000e+00,0.000000000000000000e+00,0.000000000000000000e+00,0.000000000000000000e+00,6.160000000000000000e+02,3.233628273010253906e-01,1.785799026489257812e+00,4.734122383969241454e-01,0.000000000000000000e+00,1.000000000000000000e+00,1.110000000000000000e+02
1.000000000000000000e+00,0.000000000000000000e+00,0.000000000000000000e+00,0.000000000000000000e+00,6.150000000000000000e+02,3.281540870666503906e-01,1.649295091629028320e+00,3.395998852940084189e-01,0.000000000000000000e+00,0.000000000000000000e+00,1.110000000000000000e+02
1.000000000000000000e+00,0.000000000000000000e+00,0.000000000000000000e+00,0.000000000000000000e+00,6.140000000000000000e+02,2.741649150848388672e-01,1.891619920730590820e+00,6.309669464684460882e-01,0.000000000000000000e+00,1.000000000000000000e+00,1.120000000000000000e+02
0.000000000000000000e+00,1.000000000000000000e+00,0.000000000000000000e+00,2.000000000000000000e+00,6.150000000000000000e+02,2.248818874359130859e-01,1.666140079498291016e+00,4.641083860682501117e-01,0.000000000000000000e+00,1.000000000000000000e+00,1.110000000000000000e+02
0.000000000000000000e+00,0.000000000000000000e+00,1.000000000000000000e+00,0.000000000000000000e+00,6.140000000000000000e+02,2.602758407592773438e-01,1.835745096206665039e+00,5.996859808825867333e-01,0.000000000000000000e+00,1.000000000000000000e+00,1.120000000000000000e+02
1.000000000000000000e+00,1.000000000000000000e+00,1.000000000000000000e+00,3.000000000000000000e+00,6.160000000000000000e+02,2.413489818572998047e-01,1.483232975006103516e+00,2.500524337184741319e-01,0.000000000000000000e+00,1.000000000000000000e+00,1.110000000000000000e+02
0.000000000000000000e+00,0.000000000000000000e+00,1.000000000000000000e+00,0.000000000000000000e+00,6.150000000000000000e+02,3.040010929107666016e-01,2.045003890991210938e+00,7.447154467110945752e-01,0.000000000000000000e+00,1.000000000000000000e+00,1.120000000000000000e+02
0.000000000000000000e+00,0.000000000000000000e+00,1.000000000000000000e+00,0.000000000000000000e+00,6.140000000000000000e+02,2.408099174499511719e-01,1.592906951904296875e+00,3.713263221251929536e-01,0.000000000000000000e+00,0.000000000000000000e+00,1.120000000000000000e+02
1.000000000000000000e+00,1.000000000000000000e+00,1.000000000000000000e+00,2.000000000000000000e+00,6.150000000000000000e+02,3.449699878692626953e-01,2.046575069427490234e+00,7.009792528682765589e-01,0.000000000000000000e+00,0.000000000000000000e+00,1.120000000000000000e+02
0.000000000000000000e+00,0.000000000000000000e+00,1.000000000000000000e+00,0.000000000000000000e+00,6.140000000000000000e+02,2.619187831878662109e-01,1.619503974914550781e+00,3.542558023923694233e-01,0.000000000000000000e+00,1.000000000000000000e+00,1.110000000000000000e+02
0.000000000000000000e+00,1.000000000000000000e+00,0.000000000000000000e+00,2.000000000000000000e+00,6.150000000000000000e+02,2.594780921936035156e-01,1.630467891693115234e+00,3.847521193847917020e-01,0.000000000000000000e+00,1.000000000000000000e+00,1.120000000000000000e+02
1.000000000000000000e+00,0.000000000000000000e+00,0.000000000000000000e+00,0.000000000000000000e+00,6.140000000000000000e+02,3.020238876342773438e-01,1.767870903015136719e+00,4.692692461860595299e-01,0.000000000000000000e+00,1.000000000000000000e+00,1.110000000000000000e+02
1.000000000000000000e+00,1.000000000000000000e+00,1.000000000000000000e+00,4.000000000000000000e+00,6.170000000000000000e+02,2.714738845825195312e-01,1.859041929244995117e+00,5.948735813948924367e-01,0.000000000000000000e+00,1.000000000000000000e+00,1.120000000000000000e+02
1.000000000000000000e+00,1.000000000000000000e+00,1.000000000000000000e+00,4.000000000000000000e+00,6.200000000000000000e+02,2.705080509185791016e-01,1.516077995300292969e+00,2.613608255319104234e-01,0.000000000000000000e+00,0.000000000000000000e+00,1.120000000000000000e+02
1.000000000000000000e+00,1.000000000000000000e+00,1.000000000000000000e+00,1.000000000000000000e+00,6.200000000000000000e+02,2.678599357604980469e-01,1.757374048233032227e+00,5.019110057876094988e-01,0.000000000000000000e+00,1.000000000000000000e+00,1.110000000000000000e+02
0.000000000000000000e+00,0.000000000000000000e+00,1.000000000000000000e+00,0.000000000000000000e+00,6.190000000000000000e+02,2.573339939117431641e-01,1.759827136993408203e+00,5.118028052083243296e-01,0.000000000000000000e+00,1.000000000000000000e+00,1.120000000000000000e+02
0.000000000000000000e+00,1.000000000000000000e+00,0.000000000000000000e+00,2.000000000000000000e+00,6.200000000000000000e+02,2.483789920806884766e-01,1.775946855545043945e+00,5.378138917666612784e-01,0.000000000000000000e+00,1.000000000000000000e+00,1.110000000000000000e+02
1.000000000000000000e+00,1.000000000000000000e+00,1.000000000000000000e+00,1.000000000000000000e+00,6.200000000000000000e+02,2.710518836975097656e-01,1.792259216308593750e+00,5.301137739559310669e-01,0.000000000000000000e+00,1.000000000000000000e+00,1.120000000000000000e+02
0.000000000000000000e+00,0.000000000000000000e+00,1.000000000000000000e+00,0.000000000000000000e+00,6.190000000000000000e+02,2.578268051147460938e-01,1.767634868621826172e+00,5.311723501401208747e-01,0.000000000000000000e+00,1.000000000000000000e+00,1.110000000000000000e+02
1.000000000000000000e+00,0.000000000000000000e+00,0.000000000000000000e+00,0.000000000000000000e+00,6.180000000000000000e+02,3.142251968383789062e-01,1.850228071212768555e+00,5.481238606603202612e-01,0.000000000000000000e+00,1.000000000000000000e+00,1.120000000000000000e+02
1.000000000000000000e+00,0.000000000000000000e+00,0.000000000000000000e+00,0.000000000000000000e+00,6.170000000000000000e+02,2.882940769195556641e-01,1.548881053924560547e+00,2.807099820481196439e-01,1.000000000000000000e+00,0.000000000000000000e+00,1.120000000000000000e+02
1.000000000000000000e+00,1.000000000000000000e+00,1.000000000000000000e+00,2.000000000000000000e+00,6.180000000000000000e+02,3.244340419769287109e-01,1.811336040496826172e+00,5.085395579264295751e-01,0.000000000000000000e+00,0.000000000000000000e+00,1.120000000000000000e+02
0.000000000000000000e+00,0.000000000000000000e+00,1.000000000000000000e+00,0.000000000000000000e+00,6.170000000000000000e+02,2.088019847869873047e-01,1.804974079132080078e+00,6.134767515208581212e-01,0.000000000000000000e+00,1.000000000000000000e+00,1.110000000000000000e+02
1.000000000000000000e+00,1.000000000000000000e+00,1.000000000000000000e+00,2.000000000000000000e+00,6.180000000000000000e+02,2.628300189971923828e-01,1.638325929641723633e+00,3.854385789804452567e-01,0.000000000000000000e+00,1.000000000000000000e+00,1.120000000000000000e+02
1.000000000000000000e+00,1.000000000000000000e+00,1.000000000000000000e+00,3.000000000000000000e+00,6.200000000000000000e+02,2.918560504913330078e-01,1.571803092956542969e+00,2.907288984466985804e-01,0.000000000000000000e+00,0.000000000000000000e+00,1.120000000000000000e+02
1.000000000000000000e+00,1.000000000000000000e+00,1.000000000000000000e+00,5.000000000000000000e+00,6.240000000000000000e+02,2.750079631805419922e-01,1.724807977676391602e+00,4.654418315805620154e-01,0.000000000000000000e+00,0.000000000000000000e+00,1.120000000000000000e+02
0.000000000000000000e+00,1.000000000000000000e+00,0.000000000000000000e+00,1.000000000000000000e+00,6.240000000000000000e+02,2.599840164184570312e-01,1.792603969573974609e+00,5.413403355795005645e-01,0.000000000000000000e+00,0.000000000000000000e+00,1.120000000000000000e+02
1.000000000000000000e+00,1.000000000000000000e+00,1.000000000000000000e+00,3.000000000000000000e+00,6.260000000000000000e+02,2.467570304870605469e-01,1.674380064010620117e+00,4.325904882659613593e-01,0.000000000000000000e+00,0.000000000000000000e+00,1.120000000000000000e+02
0.000000000000000000e+00,1.000000000000000000e+00,0.000000000000000000e+00,2.000000000000000000e+00,6.270000000000000000e+02,2.523419857025146484e-01,1.696404933929443359e+00,4.457076839619656949e-01,0.000000000000000000e+00,0.000000000000000000e+00,1.120000000000000000e+02
1.000000000000000000e+00,1.000000000000000000e+00,1.000000000000000000e+00,2.000000000000000000e+00,6.280000000000000000e+02,2.572920322418212891e-01,1.711263179779052734e+00,4.737362854992648309e-01,0.000000000000000000e+00,0.000000000000000000e+00,1.120000000000000000e+02
1.000000000000000000e+00,1.000000000000000000e+00,1.000000000000000000e+00,4.000000000000000000e+00,6.310000000000000000e+02,3.136479854583740234e-01,1.883054971694946289e+00,5.733797336356378782e-01,0.000000000000000000e+00,0.000000000000000000e+00,1.120000000000000000e+02
1.000000000000000000e+00,1.000000000000000000e+00,1.000000000000000000e+00,4.000000000000000000e+00,6.340000000000000000e+02,2.403090000152587891e-01,1.593801021575927734e+00,3.674717710266825477e-01,0.000000000000000000e+00,0.000000000000000000e+00,1.120000000000000000e+02
1.000000000000000000e+00,1.000000000000000000e+00,1.000000000000000000e+00,5.000000000000000000e+00,6.380000000000000000e+02,2.313368320465087891e-01,1.643141031265258789e+00,4.106507749885988656e-01,0.000000000000000000e+00,0.000000000000000000e+00,1.120000000000000000e+02
1.000000000000000000e+00,0.000000000000000000e+00,0.000000000000000000e+00,0.000000000000000000e+00,6.370000000000000000e+02,3.440880775451660156e-01,1.655340909957885742e+00,3.328034615914591821e-01,0.000000000000000000e+00,1.000000000000000000e+00,1.110000000000000000e+02
1.000000000000000000e+00,0.000000000000000000e+00,0.000000000000000000e+00,0.000000000000000000e+00,6.360000000000000000e+02,2.343740463256835938e-01,1.807608127593994141e+00,5.735598330258353528e-01,0.000000000000000000e+00,1.000000000000000000e+00,1.120000000000000000e+02
1.000000000000000000e+00,1.000000000000000000e+00,1.000000000000000000e+00,3.000000000000000000e+00,6.380000000000000000e+02,2.174921035766601562e-01,1.607445955276489258e+00,3.979335348697355390e-01,0.000000000000000000e+00,0.000000000000000000e+00,1.120000000000000000e+02
0.000000000000000000e+00,1.000000000000000000e+00,0.000000000000000000e+00,2.000000000000000000e+00,6.390000000000000000e+02,2.596900463104248047e-01,1.599369049072265625e+00,3.640655451788719632e-01,0.000000000000000000e+00,0.000000000000000000e+00,1.120000000000000000e+02
1.000000000000000000e+00,1.000000000000000000e+00,1.000000000000000000e+00,2.000000000000000000e+00,6.400000000000000000e+02,2.886359691619873047e-01,1.979218006134033203e+00,7.096526677519496840e-01,0.000000000000000000e+00,0.000000000000000000e+00,1.120000000000000000e+02
0.000000000000000000e+00,1.000000000000000000e+00,0.000000000000000000e+00,2.000000000000000000e+00,6.410000000000000000e+02,2.794229984283447266e-01,1.777474164962768555e+00,5.040900619631033530e-01,0.000000000000000000e+00,0.000000000000000000e+00,1.120000000000000000e+02
0.000000000000000000e+00,1.000000000000000000e+00,0.000000000000000000e+00,3.000000000000000000e+00,6.430000000000000000e+02,2.641541957855224609e-01,1.557635068893432617e+00,2.953320714084438081e-01,0.000000000000000000e+00,0.000000000000000000e+00,1.120000000000000000e+02
1.000000000000000000e+00,0.000000000000000000e+00,0.000000000000000000e+00,0.000000000000000000e+00,6.420000000000000000e+02,3.722741603851318359e-01,1.652621984481811523e+00,2.980158848230056168e-01,0.000000000000000000e+00,1.000000000000000000e+00,1.110000000000000000e+02
1.000000000000000000e+00,1.000000000000000000e+00,1.000000000000000000e+00,5.000000000000000000e+00,6.460000000000000000e+02,3.142619132995605469e-01,1.608709096908569336e+00,3.067830637147113126e-01,0.000000000000000000e+00,1.000000000000000000e+00,1.120000000000000000e+02
1.000000000000000000e+00,1.000000000000000000e+00,1.000000000000000000e+00,2.000000000000000000e+00,6.470000000000000000e+02,2.995939254760742188e-01,1.818856000900268555e+00,5.254469072591587686e-01,0.000000000000000000e+00,0.000000000000000000e+00,1.120000000000000000e+02
1.000000000000000000e+00,1.000000000000000000e+00,1.000000000000000000e+00,0.000000000000000000e+00,6.460000000000000000e+02,2.591431140899658203e-01,1.747828006744384766e+00,5.067449132644661347e-01,0.000000000000000000e+00,0.000000000000000000e+00,1.120000000000000000e+02
0.000000000000000000e+00,0.000000000000000000e+00,1.000000000000000000e+00,0.000000000000000000e+00,6.450000000000000000e+02,3.251259326934814453e-01,1.877907037734985352e+00,5.679574782398102428e-01,0.000000000000000000e+00,1.000000000000000000e+00,1.110000000000000000e+02
1.000000000000000000e+00,1.000000000000000000e+00,1.000000000000000000e+00,2.000000000000000000e+00,6.460000000000000000e+02,2.506899833679199219e-01,1.721812009811401367e+00,4.733134581346052916e-01,0.000000000000000000e+00,1.000000000000000000e+00,1.120000000000000000e+02
0.000000000000000000e+00,1.000000000000000000e+00,0.000000000000000000e+00,1.000000000000000000e+00,6.460000000000000000e+02,2.861990928649902344e-01,1.654557943344116211e+00,3.780378943544664416e-01,0.000000000000000000e+00,0.000000000000000000e+00,1.120000000000000000e+02
1.000000000000000000e+00,1.000000000000000000e+00,1.000000000000000000e+00,2.000000000000000000e+00,6.470000000000000000e+02,2.552289962768554688e-01,1.528918981552124023e+00,2.904553103458938357e-01,0.000000000000000000e+00,0.000000000000000000e+00,1.120000000000000000e+02
0.000000000000000000e+00,0.000000000000000000e+00,1.000000000000000000e+00,0.000000000000000000e+00,6.460000000000000000e+02,2.289919853210449219e-01,1.494951009750366211e+00,2.688290679577999276e-01,0.000000000000000000e+00,1.000000000000000000e+00,1.110000000000000000e+02
0.000000000000000000e+00,1.000000000000000000e+00,0.000000000000000000e+00,3.000000000000000000e+00,6.480000000000000000e+02,2.420270442962646484e-01,1.819105863571166992e+00,5.876538424984452114e-01,1.000000000000000000e+00,1.000000000000000000e+00,1.120000000000000000e+02
1.000000000000000000e+00,0.000000000000000000e+00,0.000000000000000000e+00,0.000000000000000000e+00,6.470000000000000000e+02,2.524738311767578125e-01,1.832412958145141602e+00,5.867759810807149368e-01,0.000000000000000000e+00,1.000000000000000000e+00,1.110000000000000000e+02
1.000000000000000000e+00,0.000000000000000000e+00,0.000000000000000000e+00,0.000000000000000000e+00,6.460000000000000000e+02,2.471699714660644531e-01,1.609294891357421875e+00,3.630349657127259211e-01,0.000000000000000000e+00,0.000000000000000000e+00,1.110000000000000000e+02
1.000000000000000000e+00,0.000000000000000000e+00,0.000000000000000000e+00,0.000000000000000000e+00,6.450000000000000000e+02,3.902220726013183594e-01,2.054100990295410156e+00,6.835904393462385320e-01,0.000000000000000000e+00,1.000000000000000000e+00,1.120000000000000000e+02
1.000000000000000000e+00,0.000000000000000000e+00,0.000000000000000000e+00,0.000000000000000000e+00,6.440000000000000000e+02,2.925221920013427734e-01,2.007968902587890625e+00,7.249148854690329324e-01,0.000000000000000000e+00,1.000000000000000000e+00,1.110000000000000000e+02
0.000000000000000000e+00,1.000000000000000000e+00,0.000000000000000000e+00,4.000000000000000000e+00,6.470000000000000000e+02,2.565791606903076172e-01,1.570845127105712891e+00,3.295318639194911303e-01,0.000000000000000000e+00,0.000000000000000000e+00,1.110000000000000000e+02
0.000000000000000000e+00,1.000000000000000000e+00,0.000000000000000000e+00,3.000000000000000000e+00,6.490000000000000000e+02,2.939620018005371094e-01,1.910863876342773438e+00,6.401471110606505865e-01,0.000000000000000000e+00,0.000000000000000000e+00,1.110000000000000000e+02
0.000000000000000000e+00,1.000000000000000000e+00,0.000000000000000000e+00,3.000000000000000000e+00,6.510000000000000000e+02,2.314181327819824219e-01,1.849486112594604492e+00,6.231008329375874455e-01,0.000000000000000000e+00,0.000000000000000000e+00,1.110000000000000000e+02
0.000000000000000000e+00,1.000000000000000000e+00,0.000000000000000000e+00,1.000000000000000000e+00,6.510000000000000000e+02,2.075710296630859375e-01,1.906074047088623047e+00,7.124628737682474622e-01,0.000000000000000000e+00,0.000000000000000000e+00,1.110000000000000000e+02
0.000000000000000000e+00,1.000000000000000000e+00,0.000000000000000000e+00,3.000000000000000000e+00,6.530000000000000000e+02,4.144940376281738281e-01,1.852648973464965820e+00,4.487857130005301620e-01,0.000000000000000000e+00,0.000000000000000000e+00,1.110000000000000000e+02
0.000000000000000000e+00,0.000000000000000000e+00,1.000000000000000000e+00,0.000000000000000000e+00,6.520000000000000000e+02,1.288740634918212891e-01,1.500291109085083008e+00,3.659209774077511468e-01,0.000000000000000000e+00,0.000000000000000000e+00,1.110000000000000000e+02
0.000000000000000000e+00,0.000000000000000000e+00,1.000000000000000000e+00,0.000000000000000000e+00,6.510000000000000000e+02,2.700760364532470703e-01,1.747694015502929688e+00,4.802452915321924198e-01,0.000000000000000000e+00,1.000000000000000000e+00,1.120000000000000000e+02
0.000000000000000000e+00,1.000000000000000000e+00,0.000000000000000000e+00,3.000000000000000000e+00,6.530000000000000000e+02,3.047020435333251953e-01,1.873219013214111328e+00,5.867175700738923583e-01,0.000000000000000000e+00,1.000000000000000000e+00,1.110000000000000000e+02
1.000000000000000000e+00,0.000000000000000000e+00,0.000000000000000000e+00,0.000000000000000000e+00,6.520000000000000000e+02,3.184468746185302734e-01,2.063255071640014648e+00,7.499037377949633321e-01,0.000000000000000000e+00,1.000000000000000000e+00,1.120000000000000000e+02
0.000000000000000000e+00,1.000000000000000000e+00,0.000000000000000000e+00,4.000000000000000000e+00,6.550000000000000000e+02,2.668170928955078125e-01,1.602413892745971680e+00,3.361449115986486214e-01,0.000000000000000000e+00,1.000000000000000000e+00,1.110000000000000000e+02
1.000000000000000000e+00,1.000000000000000000e+00,1.000000000000000000e+00,2.000000000000000000e+00,6.560000000000000000e+02,3.250072002410888672e-01,1.692559003829956055e+00,3.787402502990853681e-01,0.000000000000000000e+00,0.000000000000000000e+00,1.110000000000000000e+02
1.000000000000000000e+00,1.000000000000000000e+00,1.000000000000000000e+00,3.000000000000000000e+00,6.580000000000000000e+02,2.928490638732910156e-01,1.883682012557983398e+00,6.122273735390847405e-01,0.000000000000000000e+00,0.000000000000000000e+00,1.110000000000000000e+02
1.000000000000000000e+00,0.000000000000000000e+00,0.000000000000000000e+00,0.000000000000000000e+00,6.570000000000000000e+02,4.613809585571289062e-01,2.168020009994506836e+00,7.135422784952507591e-01,0.000000000000000000e+00,1.000000000000000000e+00,1.120000000000000000e+02
1.000000000000000000e+00,1.000000000000000000e+00,1.000000000000000000e+00,1.000000000000000000e+00,6.570000000000000000e+02,3.487200736999511719e-01,1.942515850067138672e+00,6.062927840884567710e-01,0.000000000000000000e+00,1.000000000000000000e+00,1.110000000000000000e+02
0.000000000000000000e+00,0.000000000000000000e+00,1.000000000000000000e+00,0.000000000000000000e+00,6.560000000000000000e+02,2.678639888763427734e-01,1.604173183441162109e+00,3.441332541550324309e-01,0.000000000000000000e+00,1.000000000000000000e+00,1.120000000000000000e+02
0.000000000000000000e+00,0.000000000000000000e+00,1.000000000000000000e+00,0.000000000000000000e+00,6.550000000000000000e+02,2.788479328155517578e-01,1.565292835235595703e+00,3.095087324998943568e-01,0.000000000000000000e+00,0.000000000000000000e+00,1.120000000000000000e+02
0.000000000000000000e+00,1.000000000000000000e+00,0.000000000000000000e+00,3.000000000000000000e+00,6.570000000000000000e+02,7.072839736938476562e-01,2.421365976333618164e+00,7.305442666004354768e-01,0.000000000000000000e+00,0.000000000000000000e+00,1.120000000000000000e+02
0.000000000000000000e+00,0.000000000000000000e+00,1.000000000000000000e+00,0.000000000000000000e+00,6.560000000000000000e+02,6.907060146331787109e-01,2.130709886550903320e+00,4.616119242048147830e-01,0.000000000000000000e+00,1.000000000000000000e+00,1.110000000000000000e+02
1.000000000000000000e+00,1.000000000000000000e+00,1.000000000000000000e+00,2.000000000000000000e+00,6.570000000000000000e+02,2.944130897521972656e-01,1.872804164886474609e+00,6.010269281413118669e-01,0.000000000000000000e+00,1.000000000000000000e+00,1.120000000000000000e+02
1.000000000000000000e+00,1.000000000000000000e+00,1.000000000000000000e+00,2.000000000000000000e+00,6.580000000000000000e+02,3.072609901428222656e-01,1.608022928237915039e+00,3.094637424127601455e-01,0.000000000000000000e+00,0.000000000000000000e+00,1.120000000000000000e+02
1.000000000000000000e+00,1.000000000000000000e+00,1.000000000000000000e+00,2.000000000000000000e+00,6.590000000000000000e+02,4.753701686859130859e-01,1.846956014633178711e+00,3.897397130994497694e-01,0.000000000000000000e+00,0.000000000000000000e+00,1.120000000000000000e+02
1.000000000000000000e+00,0.000000000000000000e+00,0.000000000000000000e+00,0.000000000000000000e+00,6.580000000000000000e+02,3.253531455993652344e-01,1.688040971755981445e+00,3.778586612754827878e-01,0.000000000000000000e+00,1.000000000000000000e+00,1.110000000000000000e+02
1.000000000000000000e+00,0.000000000000000000e+00,0.000000000000000000e+00,0.000000000000000000e+00,6.580000000000000000e+02,7.079720497131347656e-02,5.446249008178710938e+00,2.577950256225950421e-01,-2.000000000000000000e+00,-2.000000000000000000e+00,1.120000000000000000e+02
0.000000000000000000e+00,0.000000000000000000e+00,1.000000000000000000e+00,0.000000000000000000e+00,6.570000000000000000e+02,2.692420482635498047e-01,1.700731992721557617e+00,4.417223373228461036e-01,0.000000000000000000e+00,1.000000000000000000e+00,1.110000000000000000e+02
1.000000000000000000e+00,1.000000000000000000e+00,1.000000000000000000e+00,3.000000000000000000e+00,6.590000000000000000e+02,2.933189868927001953e-01,1.790049791336059570e+00,5.150780038820992335e-01,1.000000000000000000e+00,1.000000000000000000e+00,1.120000000000000000e+02
0.000000000000000000e+00,0.000000000000000000e+00,1.000000000000000000e+00,0.000000000000000000e+00,6.580000000000000000e+02,2.930738925933837891e-01,1.693347930908203125e+00,4.252522308117931416e-01,0.000000000000000000e+00,1.000000000000000000e+00,1.110000000000000000e+02
0.000000000000000000e+00,1.000000000000000000e+00,0.000000000000000000e+00,3.000000000000000000e+00,6.600000000000000000e+02,2.761318683624267578e-01,1.929742097854614258e+00,6.714952666870543929e-01,0.000000000000000000e+00,1.000000000000000000e+00,1.120000000000000000e+02
1.000000000000000000e+00,1.000000000000000000e+00,1.000000000000000000e+00,2.000000000000000000e+00,6.610000000000000000e+02,3.149251937866210938e-01,1.789197921752929688e+00,4.776117960045238031e-01,0.000000000000000000e+00,0.000000000000000000e+00,1.120000000000000000e+02
1.000000000000000000e+00,1.000000000000000000e+00,1.000000000000000000e+00,2.000000000000000000e+00,6.620000000000000000e+02,2.625880241394042969e-01,1.724663019180297852e+00,4.856588604301048662e-01,0.000000000000000000e+00,0.000000000000000000e+00,1.120000000000000000e+02
1.000000000000000000e+00,0.000000000000000000e+00,0.000000000000000000e+00,0.000000000000000000e+00,6.610000000000000000e+02,3.203690052032470703e-01,1.651358127593994141e+00,3.372716277669811080e-01,0.000000000000000000e+00,1.000000000000000000e+00,1.110000000000000000e+02
0.000000000000000000e+00,0.000000000000000000e+00,1.000000000000000000e+00,0.000000000000000000e+00,6.600000000000000000e+02,2.853889465332031250e-01,1.912590980529785156e+00,6.329345203343408333e-01,0.000000000000000000e+00,0.000000000000000000e+00,1.110000000000000000e+02
0.000000000000000000e+00,0.000000000000000000e+00,1.000000000000000000e+00,0.000000000000000000e+00,6.590000000000000000e+02,1.967828273773193359e-01,1.732733964920043945e+00,5.325382057672050085e-01,0.000000000000000000e+00,1.000000000000000000e+00,1.120000000000000000e+02
0.000000000000000000e+00,1.000000000000000000e+00,0.000000000000000000e+00,1.000000000000000000e+00,6.590000000000000000e+02,2.415168285369873047e-01,1.908311128616333008e+00,6.740811720365349480e-01,0.000000000000000000e+00,1.000000000000000000e+00,1.110000000000000000e+02
0.000000000000000000e+00,1.000000000000000000e+00,0.000000000000000000e+00,2.000000000000000000e+00,6.600000000000000000e+02,2.146089076995849609e-01,1.886375904083251953e+00,6.772134052244997982e-01,0.000000000000000000e+00,0.000000000000000000e+00,1.110000000000000000e+02
0.000000000000000000e+00,1.000000000000000000e+00,0.000000000000000000e+00,3.000000000000000000e+00,6.620000000000000000e+02,2.333600521087646484e-01,1.668897867202758789e+00,4.464084726580973550e-01,0.000000000000000000e+00,0.000000000000000000e+00,1.110000000000000000e+02
0.000000000000000000e+00,0.000000000000000000e+00,1.000000000000000000e+00,0.000000000000000000e+00,6.610000000000000000e+02,4.296629428863525391e-01,2.141106128692626953e+00,7.206426706047426300e-01,0.000000000000000000e+00,1.000000000000000000e+00,1.120000000000000000e+02
0.000000000000000000e+00,0.000000000000000000e+00,1.000000000000000000e+00,0.000000000000000000e+00,6.600000000000000000e+02,2.547430992126464844e-01,1.592178821563720703e+00,3.466434636860633578e-01,0.000000000000000000e+00,1.000000000000000000e+00,1.110000000000000000e+02
0.000000000000000000e+00,1.000000000000000000e+00,0.000000000000000000e+00,2.000000000000000000e+00,6.610000000000000000e+02,2.395100593566894531e-01,1.535435914993286133e+00,3.154793665039876682e-01,0.000000000000000000e+00,0.000000000000000000e+00,1.110000000000000000e+02
0.000000000000000000e+00,0.000000000000000000e+00,1.000000000000000000e+00,0.000000000000000000e+00,6.600000000000000000e+02,6.326148509979248047e-01,2.028131961822509766e+00,3.936459055721165945e-01,0.000000000000000000e+00,1.000000000000000000e+00,1.120000000000000000e+02
1.000000000000000000e+00,1.000000000000000000e+00,1.000000000000000000e+00,1.000000000000000000e+00,6.600000000000000000e+02,6.229209899902343750e-01,1.916670083999633789e+00,3.104645753134007702e-01,0.000000000000000000e+00,1.000000000000000000e+00,1.110000000000000000e+02
0.000000000000000000e+00,0.000000000000000000e+00,1.000000000000000000e+00,0.000000000000000000e+00,6.590000000000000000e+02,6.712770462036132812e-01,2.390173912048339844e+00,7.336228858418759602e-01,0.000000000000000000e+00,1.000000000000000000e+00,1.120000000000000000e+02
1.000000000000000000e+00,1.000000000000000000e+00,1.000000000000000000e+00,3.000000000000000000e+00,6.610000000000000000e+02,2.914741039276123047e-01,1.956187009811401367e+00,6.732361588563157140e-01,0.000000000000000000e+00,1.000000000000000000e+00,1.110000000000000000e+02
1.000000000000000000e+00,1.000000000000000000e+00,1.000000000000000000e+00,3.000000000000000000e+00,6.630000000000000000e+02,3.124330043792724609e-01,1.754119873046875000e+00,4.443878435952661188e-01,0.000000000000000000e+00,0.000000000000000000e+00,1.110000000000000000e+02
0.000000000000000000e+00,1.000000000000000000e+00,0.000000000000000000e+00,1.000000000000000000e+00,6.630000000000000000e+02,3.036139011383056641e-01,1.767241001129150391e+00,4.783380411661594112e-01,0.000000000000000000e+00,0.000000000000000000e+00,1.110000000000000000e+02
1.000000000000000000e+00,0.000000000000000000e+00,0.000000000000000000e+00,0.000000000000000000e+00,6.620000000000000000e+02,5.309250354766845703e-01,2.016206026077270508e+00,4.945909125490432490e-01,0.000000000000000000e+00,1.000000000000000000e+00,1.120000000000000000e+02
0.000000000000000000e+00,0.000000000000000000e+00,1.000000000000000000e+00,0.000000000000000000e+00,6.610000000000000000e+02,2.723209857940673828e-01,1.794785976409912109e+00,5.393919058461567051e-01,0.000000000000000000e+00,0.000000000000000000e+00,1.120000000000000000e+02
1.000000000000000000e+00,0.000000000000000000e+00,0.000000000000000000e+00,0.000000000000000000e+00,6.600000000000000000e+02,2.903449535369873047e-01,1.756551027297973633e+00,4.794242425594363866e-01,0.000000000000000000e+00,1.000000000000000000e+00,1.110000000000000000e+02
0.000000000000000000e+00,0.000000000000000000e+00,1.000000000000000000e+00,0.000000000000000000e+00,6.590000000000000000e+02,3.564150333404541016e-01,1.941343784332275391e+00,6.040554089108551850e-01,0.000000000000000000e+00,0.000000000000000000e+00,1.110000000000000000e+02
1.000000000000000000e+00,0.000000000000000000e+00,0.000000000000000000e+00,0.000000000000000000e+00,6.580000000000000000e+02,3.555529117584228516e-01,2.094718217849731445e+00,7.487401996228434387e-01,0.000000000000000000e+00,1.000000000000000000e+00,1.120000000000000000e+02
1.000000000000000000e+00,0.000000000000000000e+00,0.000000000000000000e+00,0.000000000000000000e+00,6.570000000000000000e+02,3.225741386413574219e-01,1.873228788375854492e+00,5.555497110744322953e-01,0.000000000000000000e+00,1.000000000000000000e+00,1.110000000000000000e+02
0.000000000000000000e+00,1.000000000000000000e+00,0.000000000000000000e+00,2.000000000000000000e+00,6.580000000000000000e+02,2.769410610198974609e-01,1.911709070205688477e+00,6.506096458022971873e-01,0.000000000000000000e+00,1.000000000000000000e+00,1.120000000000000000e+02
0.000000000000000000e+00,1.000000000000000000e+00,0.000000000000000000e+00,3.000000000000000000e+00,6.600000000000000000e+02,2.504458427429199219e-01,1.727443933486938477e+00,4.782889651821783383e-01,0.000000000000000000e+00,0.000000000000000000e+00,1.120000000000000000e+02
0.000000000000000000e+00,1.000000000000000000e+00,0.000000000000000000e+00,1.000000000000000000e+00,6.600000000000000000e+02,2.207660675048828125e-01,1.785771131515502930e+00,5.806624502882772321e-01,0.000000000000000000e+00,0.000000000000000000e+00,1.120000000000000000e+02
1.000000000000000000e+00,1.000000000000000000e+00,1.000000000000000000e+00,0.000000000000000000e+00,6.590000000000000000e+02,3.335621356964111328e-01,1.966207027435302734e+00,6.469175618586039400e-01,1.000000000000000000e+00,0.000000000000000000e+00,1.120000000000000000e+02
1.000000000000000000e+00,0.000000000000000000e+00,0.000000000000000000e+00,0.000000000000000000e+00,6.580000000000000000e+02,2.969381809234619141e-01,1.631692886352539062e+00,3.456686916507623608e-01,0.000000000000000000e+00,1.000000000000000000e+00,1.110000000000000000e+02
1.000000000000000000e+00,0.000000000000000000e+00,0.000000000000000000e+00,0.000000000000000000e+00,6.570000000000000000e+02,4.446690082550048828e-01,1.935510873794555664e+00,5.143849243860723064e-01,0.000000000000000000e+00,1.000000000000000000e+00,1.120000000000000000e+02
1.000000000000000000e+00,1.000000000000000000e+00,1.000000000000000000e+00,2.000000000000000000e+00,6.580000000000000000e+02,3.033919334411621094e-01,1.924488067626953125e+00,6.388088517786377762e-01,0.000000000000000000e+00,0.000000000000000000e+00,1.120000000000000000e+02
0.000000000000000000e+00,1.000000000000000000e+00,0.000000000000000000e+00,2.000000000000000000e+00,6.590000000000000000e+02,2.681338787078857422e-01,1.594359874725341797e+00,3.335735095488958080e-01,0.000000000000000000e+00,0.000000000000000000e+00,1.120000000000000000e+02
0.000000000000000000e+00,1.000000000000000000e+00,0.000000000000000000e+00,3.000000000000000000e+00,6.610000000000000000e+02,2.651607990264892578e-01,1.675751924514770508e+00,4.093171182602155511e-01,0.000000000000000000e+00,0.000000000000000000e+00,1.120000000000000000e+02
0.000000000000000000e+00,1.000000000000000000e+00,0.000000000000000000e+00,1.000000000000000000e+00,6.610000000000000000e+02,3.045721054077148438e-01,2.012793064117431641e+00,7.218565007116475307e-01,0.000000000000000000e+00,0.000000000000000000e+00,1.120000000000000000e+02
1.000000000000000000e+00,1.000000000000000000e+00,1.000000000000000000e+00,0.000000000000000000e+00,6.600000000000000000e+02,2.689859867095947266e-01,1.810097932815551758e+00,5.488805785279579075e-01,0.000000000000000000e+00,0.000000000000000000e+00,1.120000000000000000e+02
0.000000000000000000e+00,1.000000000000000000e+00,0.000000000000000000e+00,1.000000000000000000e+00,6.600000000000000000e+02,3.063139915466308594e-01,1.969878911972045898e+00,6.687038579366828550e-01,0.000000000000000000e+00,0.000000000000000000e+00,1.120000000000000000e+02
0.000000000000000000e+00,1.000000000000000000e+00,0.000000000000000000e+00,2.000000000000000000e+00,6.610000000000000000e+02,2.497639656066894531e-01,1.853379011154174805e+00,6.055697094730639884e-01,0.000000000000000000e+00,0.000000000000000000e+00,1.120000000000000000e+02
0.000000000000000000e+00,0.000000000000000000e+00,1.000000000000000000e+00,0.000000000000000000e+00,6.600000000000000000e+02,2.878270149230957031e-01,1.859888792037963867e+00,5.822136111112033996e-01,0.000000000000000000e+00,1.000000000000000000e+00,1.110000000000000000e+02
1.000000000000000000e+00,0.000000000000000000e+00,0.000000000000000000e+00,0.000000000000000000e+00,6.590000000000000000e+02,3.352060317993164062e-01,1.923280000686645508e+00,5.888943608756043169e-01,0.000000000000000000e+00,0.000000000000000000e+00,1.110000000000000000e+02
0.000000000000000000e+00,1.000000000000000000e+00,0.000000000000000000e+00,1.000000000000000000e+00,6.590000000000000000e+02,2.817301750183105469e-01,1.644151926040649414e+00,3.666956491501199844e-01,0.000000000000000000e+00,1.000000000000000000e+00,1.120000000000000000e+02
1.000000000000000000e+00,1.000000000000000000e+00,1.000000000000000000e+00,2.000000000000000000e+00,6.600000000000000000e+02,3.317041397094726562e-01,1.827882051467895508e+00,4.945322211929415457e-01,0.000000000000000000e+00,0.000000000000000000e+00,1.120000000000000000e+02
0.000000000000000000e+00,1.000000000000000000e+00,0.000000000000000000e+00,2.000000000000000000e+00,6.610000000000000000e+02,2.581009864807128906e-01,1.829188108444213867e+00,5.903393396361893419e-01,0.000000000000000000e+00,0.000000000000000000e+00,1.120000000000000000e+02
0.000000000000000000e+00,1.000000000000000000e+00,0.000000000000000000e+00,2.000000000000000000e+00,6.620000000000000000e+02,2.768330574035644531e-01,1.697281837463378906e+00,4.378472283411057875e-01,0.000000000000000000e+00,0.000000000000000000e+00,1.120000000000000000e+02
0.000000000000000000e+00,0.000000000000000000e+00,1.000000000000000000e+00,0.000000000000000000e+00,6.610000000000000000e+02,2.649240493774414062e-01,1.740256071090698242e+00,4.781280430741903786e-01,0.000000000000000000e+00,1.000000000000000000e+00,1.110000000000000000e+02
0.000000000000000000e+00,0.000000000000000000e+00,1.000000000000000000e+00,0.000000000000000000e+00,6.600000000000000000e+02,2.466111183166503906e-01,1.794314146041870117e+00,5.557967175863471887e-01,0.000000000000000000e+00,0.000000000000000000e+00,1.110000000000000000e+02
1.000000000000000000e+00,0.000000000000000000e+00,0.000000000000000000e+00,0.000000000000000000e+00,6.590000000000000000e+02,3.036658763885498047e-01,1.901505947113037109e+00,6.073357826800067638e-01,0.000000000000000000e+00,0.000000000000000000e+00,1.110000000000000000e+02
0.000000000000000000e+00,1.000000000000000000e+00,0.000000000000000000e+00,0.000000000000000000e+00,6.580000000000000000e+02,6.347310543060302734e-01,2.281860113143920898e+00,6.558879120383553918e-01,0.000000000000000000e+00,1.000000000000000000e+00,1.120000000000000000e+02
0.000000000000000000e+00,1.000000000000000000e+00,0.000000000000000000e+00,3.000000000000000000e+00,6.600000000000000000e+02,2.044548988342285156e-01,1.742297887802124023e+00,5.483887325807490498e-01,0.000000000000000000e+00,0.000000000000000000e+00,1.120000000000000000e+02
1.000000000000000000e+00,0.000000000000000000e+00,0.000000000000000000e+00,0.000000000000000000e+00,6.590000000000000000e+02,3.202559947967529297e-01,1.986252069473266602e+00,6.846021854694217534e-01,0.000000000000000000e+00,1.000000000000000000e+00,1.110000000000000000e+02
0.000000000000000000e+00,0.000000000000000000e+00,1.000000000000000000e+00,0.000000000000000000e+00,6.580000000000000000e+02,2.973520755767822266e-01,1.935840129852294922e+00,6.371562605098342047e-01,0.000000000000000000e+00,0.000000000000000000e+00,1.110000000000000000e+02
0.000000000000000000e+00,0.000000000000000000e+00,1.000000000000000000e+00,0.000000000000000000e+00,6.570000000000000000e+02,3.039979934692382812e-01,1.996374845504760742e+00,7.002262200082174370e-01,0.000000000000000000e+00,1.000000000000000000e+00,1.120000000000000000e+02
0.000000000000000000e+00,1.000000000000000000e+00,0.000000000000000000e+00,2.000000000000000000e+00,6.580000000000000000e+02,2.380859851837158203e-01,1.810950994491577148e+00,5.780536893686158972e-01,0.000000000000000000e+00,1.000000000000000000e+00,1.110000000000000000e+02
1.000000000000000000e+00,0.000000000000000000e+00,0.000000000000000000e+00,0.000000000000000000e+00,6.570000000000000000e+02,2.901661396026611328e-01,1.939726829528808594e+00,6.677567406130107130e-01,0.000000000000000000e+00,1.000000000000000000e+00,1.120000000000000000e+02
0.000000000000000000e+00,1.000000000000000000e+00,0.000000000000000000e+00,2.000000000000000000e+00,6.580000000000000000e+02,2.052209377288818359e-01,1.602638006210327148e+00,4.040923542177889960e-01,0.000000000000000000e+00,1.000000000000000000e+00,1.110000000000000000e+02
0.000000000000000000e+00,0.000000000000000000e+00,1.000000000000000000e+00,0.000000000000000000e+00,6.570000000000000000e+02,2.433559894561767578e-01,1.886889934539794922e+00,6.574608037034117558e-01,0.000000000000000000e+00,1.000000000000000000e+00,1.120000000000000000e+02
0.000000000000000000e+00,0.000000000000000000e+00,1.000000000000000000e+00,0.000000000000000000e+00,6.560000000000000000e+02,2.279560565948486328e-01,1.499316930770874023e+00,2.905667171170879248e-01,1.000000000000000000e+00,1.000000000000000000e+00,1.110000000000000000e+02
0.000000000000000000e+00,1.000000000000000000e+00,0.000000000000000000e+00,3.000000000000000000e+00,6.580000000000000000e+02,2.641630172729492188e-01,1.931653976440429688e+00,6.718857446610179140e-01,0.000000000000000000e+00,0.000000000000000000e+00,1.110000000000000000e+02
0.000000000000000000e+00,1.000000000000000000e+00,0.000000000000000000e+00,4.000000000000000000e+00,6.610000000000000000e+02,2.687819004058837891e-01,1.715046882629394531e+00,4.539029967908822516e-01,0.000000000000000000e+00,0.000000000000000000e+00,1.110000000000000000e+02
1.000000000000000000e+00,1.000000000000000000e+00,1.000000000000000000e+00,4.000000000000000000e+00,6.640000000000000000e+02,3.321888446807861328e-01,1.661792039871215820e+00,3.325790664293946097e-01,0.000000000000000000e+00,0.000000000000000000e+00,1.110000000000000000e+02
1.000000000000000000e+00,1.000000000000000000e+00,1.000000000000000000e+00,3.000000000000000000e+00,6.660000000000000000e+02,3.026690483093261719e-01,1.986237049102783203e+00,6.851455477382952797e-01,0.000000000000000000e+00,0.000000000000000000e+00,1.110000000000000000e+02
0.000000000000000000e+00,1.000000000000000000e+00,0.000000000000000000e+00,2.000000000000000000e+00,6.670000000000000000e+02,2.043957710266113281e-01,1.887675046920776367e+00,6.895828333960849488e-01,0.000000000000000000e+00,0.000000000000000000e+00,1.110000000000000000e+02
1.000000000000000000e+00,1.000000000000000000e+00,1.000000000000000000e+00,3.000000000000000000e+00,6.690000000000000000e+02,2.900798320770263672e-01,1.942801952362060547e+00,6.657972372824682017e-01,0.000000000000000000e+00,0.000000000000000000e+00,1.110000000000000000e+02
0.000000000000000000e+00,1.000000000000000000e+00,0.000000000000000000e+00,3.000000000000000000e+00,6.710000000000000000e+02,6.061258316040039062e-01,2.029706001281738281e+00,4.291602499397489945e-01,0.000000000000000000e+00,0.000000000000000000e+00,1.110000000000000000e+02
0.000000000000000000e+00,1.000000000000000000e+00,0.000000000000000000e+00,2.000000000000000000e+00,6.720000000000000000e+02,3.795480728149414062e-01,1.939617872238159180e+00,5.687123991459421823e-01,0.000000000000000000e+00,0.000000000000000000e+00,1.110000000000000000e+02
1.000000000000000000e+00,1.000000000000000000e+00,1.000000000000000000e+00,4.000000000000000000e+00,6.750000000000000000e+02,7.946419715881347656e-01,2.212542057037353516e+00,4.148032813231498639e-01,0.000000000000000000e+00,0.000000000000000000e+00,1.110000000000000000e+02
1.000000000000000000e+00,0.000000000000000000e+00,0.000000000000000000e+00,0.000000000000000000e+00,6.740000000000000000e+02,6.986579895019531250e-01,2.320358037948608398e+00,6.350541608116311298e-01,0.000000000000000000e+00,1.000000000000000000e+00,1.120000000000000000e+02
1.000000000000000000e+00,1.000000000000000000e+00,1.000000000000000000e+00,4.000000000000000000e+00,6.770000000000000000e+02,3.324120044708251953e-01,1.868993043899536133e+00,5.375652183011975227e-01,0.000000000000000000e+00,1.000000000000000000e+00,1.110000000000000000e+02
1.000000000000000000e+00,1.000000000000000000e+00,1.000000000000000000e+00,3.000000000000000000e+00,6.790000000000000000e+02,4.648189544677734375e-01,1.789376020431518555e+00,3.272254911819274525e-01,0.000000000000000000e+00,0.000000000000000000e+00,1.110000000000000000e+02
1.000000000000000000e+00,1.000000000000000000e+00,1.000000000000000000e+00,2.000000000000000000e+00,6.800000000000000000e+02,4.504621028900146484e-01,2.017886877059936523e+00,5.782685042029553912e-01,0.000000000000000000e+00,0.000000000000000000e+00,1.110000000000000000e+02
0.000000000000000000e+00,1.000000000000000000e+00,0.000000000000000000e+00,4.000000000000000000e+00,6.830000000000000000e+02,3.039958477020263672e-01,2.010769844055175781e+00,7.222899062859193808e-01,0.000000000000000000e+00,0.000000000000000000e+00,1.110000000000000000e+02
0.000000000000000000e+00,0.000000000000000000e+00,1.000000000000000000e+00,0.000000000000000000e+00,6.820000000000000000e+02,2.383720874786376953e-01,1.686182975769042969e+00,4.588441598270263655e-01,0.000000000000000000e+00,1.000000000000000000e+00,1.120000000000000000e+02
1.000000000000000000e+00,1.000000000000000000e+00,1.000000000000000000e+00,2.000000000000000000e+00,6.830000000000000000e+02,2.811219692230224609e-01,1.897974014282226562e+00,6.233648156635571702e-01,0.000000000000000000e+00,1.000000000000000000e+00,1.110000000000000000e+02
1.000000000000000000e+00,1.000000000000000000e+00,1.000000000000000000e+00,4.000000000000000000e+00,6.860000000000000000e+02,3.041830062866210938e-01,1.820505857467651367e+00,5.273998273894324740e-01,0.000000000000000000e+00,0.000000000000000000e+00,1.110000000000000000e+02
1.000000000000000000e+00,1.000000000000000000e+00,1.000000000000000000e+00,2.000000000000000000e+00,6.870000000000000000e+02,3.074569702148437500e-01,1.814021110534667969e+00,5.248164056727826488e-01,0.000000000000000000e+00,0.000000000000000000e+00,1.110000000000000000e+02
0.000000000000000000e+00,1.000000000000000000e+00,0.000000000000000000e+00,2.000000000000000000e+00,6.880000000000000000e+02,3.638420104980468750e-01,1.851830959320068359e+00,4.934201435627784127e-01,0.000000000000000000e+00,0.000000000000000000e+00,1.110000000000000000e+02
0.000000000000000000e+00,1.000000000000000000e+00,0.000000000000000000e+00,2.000000000000000000e+00,6.890000000000000000e+02,2.689409255981445312e-01,1.999914169311523438e+00,7.431726288530811075e-01,0.000000000000000000e+00,0.000000000000000000e+00,1.110000000000000000e+02
0.000000000000000000e+00,0.000000000000000000e+00,1.000000000000000000e+00,0.000000000000000000e+00,6.880000000000000000e+02,2.440068721771240234e-01,1.812260866165161133e+00,5.889961812799762164e-01,0.000000000000000000e+00,1.000000000000000000e+00,1.120000000000000000e+02
1.000000000000000000e+00,1.000000000000000000e+00,1.000000000000000000e+00,3.000000000000000000e+00,6.900000000000000000e+02,3.034279346466064453e-01,1.677947998046875000e+00,3.836279593325300219e-01,0.000000000000000000e+00,1.000000000000000000e+00,1.110000000000000000e+02
1.000000000000000000e+00,1.000000000000000000e+00,1.000000000000000000e+00,3.000000000000000000e+00,6.920000000000000000e+02,3.331129550933837891e-01,1.783642053604125977e+00,4.508641963471998748e-01,1.000000000000000000e+00,0.000000000000000000e+00,1.110000000000000000e+02
1.000000000000000000e+00,0.000000000000000000e+00,0.000000000000000000e+00,0.000000000000000000e+00,6.910000000000000000e+02,2.909069061279296875e-01,1.670460939407348633e+00,3.881325807969677189e-01,0.000000000000000000e+00,1.000000000000000000e+00,1.120000000000000000e+02
1.000000000000000000e+00,0.000000000000000000e+00,0.000000000000000000e+00,0.000000000000000000e+00,6.900000000000000000e+02,2.592728137969970703e-01,1.692855834960937500e+00,4.476428634413375796e-01,0.000000000000000000e+00,0.000000000000000000e+00,1.120000000000000000e+02
1.000000000000000000e+00,1.000000000000000000e+00,1.000000000000000000e+00,3.000000000000000000e+00,6.920000000000000000e+02,3.759748935699462891e-01,1.762305974960327148e+00,4.100517006298510791e-01,0.000000000000000000e+00,0.000000000000000000e+00,1.120000000000000000e+02
0.000000000000000000e+00,0.000000000000000000e+00,1.000000000000000000e+00,0.000000000000000000e+00,6.910000000000000000e+02,2.913539409637451172e-01,1.659307003021240234e+00,3.861354331590897138e-01,0.000000000000000000e+00,1.000000000000000000e+00,1.110000000000000000e+02
1.000000000000000000e+00,1.000000000000000000e+00,1.000000000000000000e+00,3.000000000000000000e+00,6.930000000000000000e+02,2.876968383789062500e-01,1.568399190902709961e+00,2.880301274256091282e-01,0.000000000000000000e+00,1.000000000000000000e+00,1.120000000000000000e+02
0.000000000000000000e+00,1.000000000000000000e+00,0.000000000000000000e+00,2.000000000000000000e+00,6.940000000000000000e+02,3.381781578063964844e-01,1.598143815994262695e+00,2.695788950703968956e-01,0.000000000000000000e+00,0.000000000000000000e+00,1.120000000000000000e+02
0.000000000000000000e+00,0.000000000000000000e+00,1.000000000000000000e+00,0.000000000000000000e+00,6.930000000000000000e+02,4.702138900756835938e-01,1.960785865783691406e+00,4.968770602793660118e-01,0.000000000000000000e+00,1.000000000000000000e+00,1.110000000000000000e+02
0.000000000000000000e+00,1.000000000000000000e+00,0.000000000000000000e+00,2.000000000000000000e+00,6.940000000000000000e+02,2.822670936584472656e-01,1.797704219818115234e+00,5.279494461649775205e-01,0.000000000000000000e+00,1.000000000000000000e+00,1.120000000000000000e+02
0.000000000000000000e+00,0.000000000000000000e+00,1.000000000000000000e+00,0.000000000000000000e+00,6.930000000000000000e+02,2.713577747344970703e-01,1.995268821716308594e+00,7.397707473081431839e-01,0.000000000000000000e+00,1.000000000000000000e+00,1.110000000000000000e+02
1.000000000000000000e+00,0.000000000000000000e+00,0.000000000000000000e+00,0.000000000000000000e+00,6.920000000000000000e+02,2.623889446258544922e-01,1.825881004333496094e+00,5.825238677733344250e-01,0.000000000000000000e+00,0.000000000000000000e+00,1.110000000000000000e+02
0.000000000000000000e+00,1.000000000000000000e+00,0.000000000000000000e+00,1.000000000000000000e+00,6.920000000000000000e+02,2.161319255828857422e-01,1.486334085464477539e+00,2.692722809525860961e-01,0.000000000000000000e+00,1.000000000000000000e+00,1.120000000000000000e+02
0.000000000000000000e+00,1.000000000000000000e+00,0.000000000000000000e+00,3.000000000000000000e+00,6.940000000000000000e+02,6.258080005645751953e-01,2.075052022933959961e+00,4.608474137200013199e-01,0.000000000000000000e+00,0.000000000000000000e+00,1.120000000000000000e+02
0.000000000000000000e+00,0.000000000000000000e+00,1.000000000000000000e+00,0.000000000000000000e+00,6.930000000000000000e+02,3.162848949432373047e-01,1.742455005645751953e+00,4.367562536727941924e-01,0.000000000000000000e+00,1.000000000000000000e+00,1.110000000000000000e+02
0.000000000000000000e+00,1.000000000000000000e+00,0.000000000000000000e+00,3.000000000000000000e+00,6.950000000000000000e+02,2.454259395599365234e-01,1.697911024093627930e+00,4.513953030332387706e-01,0.000000000000000000e+00,0.000000000000000000e+00,1.110000000000000000e+02
0.000000000000000000e+00,0.000000000000000000e+00,1.000000000000000000e+00,0.000000000000000000e+00,6.940000000000000000e+02,2.574560642242431641e-01,1.964756965637207031e+00,7.159198163907976031e-01,0.000000000000000000e+00,1.000000000000000000e+00,1.120000000000000000e+02
0.000000000000000000e+00,1.000000000000000000e+00,0.000000000000000000e+00,3.000000000000000000e+00,6.960000000000000000e+02,3.458869457244873047e-01,1.781507015228271484e+00,4.311557997970710820e-01,0.000000000000000000e+00,1.000000000000000000e+00,1.110000000000000000e+02
1.000000000000000000e+00,1.000000000000000000e+00,1.000000000000000000e+00,3.000000000000000000e+00,6.980000000000000000e+02,2.953500747680664062e-01,1.909492969512939453e+00,6.238632074817466178e-01,0.000000000000000000e+00,1.000000000000000000e+00,1.120000000000000000e+02
0.000000000000000000e+00,0.000000000000000000e+00,1.000000000000000000e+00,0.000000000000000000e+00,6.970000000000000000e+02,2.836070060729980469e-01,1.539562940597534180e+00,2.638798337243858927e-01,0.000000000000000000e+00,0.000000000000000000e+00,1.120000000000000000e+02
0.000000000000000000e+00,0.000000000000000000e+00,1.000000000000000000e+00,0.000000000000000000e+00,6.960000000000000000e+02,3.613498210906982422e-01,1.927089929580688477e+00,5.906916590200889106e-01,0.000000000000000000e+00,1.000000000000000000e+00,1.110000000000000000e+02
1.000000000000000000e+00,0.000000000000000000e+00,0.000000000000000000e+00,0.000000000000000000e+00,6.950000000000000000e+02,4.161198139190673828e-01,1.752946138381958008e+00,3.439740359212127840e-01,0.000000000000000000e+00,1.000000000000000000e+00,1.120000000000000000e+02
0.000000000000000000e+00,1.000000000000000000e+00,0.000000000000000000e+00,3.000000000000000000e+00,6.970000000000000000e+02,3.191509246826171875e-01,1.784501075744628906e+00,4.783908736435769637e-01,0.000000000000000000e+00,0.000000000000000000e+00,1.120000000000000000e+02
0.000000000000000000e+00,1.000000000000000000e+00,0.000000000000000000e+00,2.000000000000000000e+00,6.980000000000000000e+02,2.858660221099853516e-01,1.831083774566650391e+00,5.594868309173380849e-01,0.000000000000000000e+00,0.000000000000000000e+00,1.120000000000000000e+02
0.000000000000000000e+00,0.000000000000000000e+00,1.000000000000000000e+00,0.000000000000000000e+00,6.970000000000000000e+02,2.776129245758056641e-01,1.558619022369384766e+00,3.017634155027913434e-01,0.000000000000000000e+00,1.000000000000000000e+00,1.110000000000000000e+02
1.000000000000000000e+00,1.000000000000000000e+00,1.000000000000000000e+00,4.000000000000000000e+00,7.000000000000000000e+02,4.300107955932617188e-01,1.866240978240966797e+00,4.345893617146704968e-01,0.000000000000000000e+00,0.000000000000000000e+00,1.110000000000000000e+02
1.000000000000000000e+00,1.000000000000000000e+00,1.000000000000000000e+00,3.000000000000000000e+00,7.020000000000000000e+02,3.183279037475585938e-01,1.704203844070434570e+00,3.889395776073791278e-01,1.000000000000000000e+00,0.000000000000000000e+00,1.110000000000000000e+02
0.000000000000000000e+00,0.000000000000000000e+00,1.000000000000000000e+00,0.000000000000000000e+00,7.010000000000000000e+02,3.203489780426025391e-01,1.916191101074218750e+00,6.049339043329666765e-01,0.000000000000000000e+00,1.000000000000000000e+00,1.120000000000000000e+02
1.000000000000000000e+00,0.000000000000000000e+00,0.000000000000000000e+00,0.000000000000000000e+00,7.000000000000000000e+02,2.758429050445556641e-01,1.799021005630493164e+00,5.374385279540858651e-01,0.000000000000000000e+00,1.000000000000000000e+00,1.110000000000000000e+02
0.000000000000000000e+00,1.000000000000000000e+00,0.000000000000000000e+00,1.000000000000000000e+00,7.000000000000000000e+02,2.608051300048828125e-01,1.533002138137817383e+00,2.874291344883999622e-01,0.000000000000000000e+00,1.000000000000000000e+00,1.120000000000000000e+02
0.000000000000000000e+00,0.000000000000000000e+00,1.000000000000000000e+00,0.000000000000000000e+00,6.990000000000000000e+02,3.385829925537109375e-01,2.045113801956176758e+00,7.155738218679091878e-01,0.000000000000000000e+00,1.000000000000000000e+00,1.110000000000000000e+02
1.000000000000000000e+00,1.000000000000000000e+00,1.000000000000000000e+00,2.000000000000000000e+00,7.000000000000000000e+02,3.397288322448730469e-01,1.953123807907104492e+00,6.188494748653489141e-01,0.000000000000000000e+00,0.000000000000000000e+00,1.110000000000000000e+02
1.000000000000000000e+00,1.000000000000000000e+00,1.000000000000000000e+00,3.000000000000000000e+00,7.020000000000000000e+02,3.199391365051269531e-01,2.012723207473754883e+00,6.982479164739260336e-01,0.000000000000000000e+00,0.000000000000000000e+00,1.110000000000000000e+02
1.000000000000000000e+00,0.000000000000000000e+00,0.000000000000000000e+00,0.000000000000000000e+00,7.010000000000000000e+02,3.339002132415771484e-01,1.926455020904541016e+00,6.081871364290665216e-01,0.000000000000000000e+00,1.000000000000000000e+00,1.120000000000000000e+02
0.000000000000000000e+00,0.000000000000000000e+00,1.000000000000000000e+00,0.000000000000000000e+00,7.000000000000000000e+02,3.215248584747314453e-01,1.928849935531616211e+00,6.203938737360500388e-01,0.000000000000000000e+00,0.000000000000000000e+00,1.120000000000000000e+02
0.000000000000000000e+00,0.000000000000000000e+00,1.000000000000000000e+00,0.000000000000000000e+00,6.990000000000000000e+02,2.182118892669677734e-01,1.613219976425170898e+00,4.006185953606150596e-01,0.000000000000000000e+00,1.000000000000000000e+00,1.110000000000000000e+02
0.000000000000000000e+00,0.000000000000000000e+00,1.000000000000000000e+00,0.000000000000000000e+00,6.980000000000000000e+02,2.446761131286621094e-01,1.843106031417846680e+00,6.102273715958201894e-01,0.000000000000000000e+00,0.000000000000000000e+00,1.110000000000000000e+02
1.000000000000000000e+00,1.000000000000000000e+00,1.000000000000000000e+00,2.000000000000000000e+00,6.990000000000000000e+02,3.323500156402587891e-01,1.906148195266723633e+00,5.831697921112684035e-01,0.000000000000000000e+00,1.000000000000000000e+00,1.120000000000000000e+02
0.000000000000000000e+00,0.000000000000000000e+00,1.000000000000000000e+00,0.000000000000000000e+00,6.980000000000000000e+02,2.607398033142089844e-01,1.899445772171020508e+00,6.492620782316116390e-01,0.000000000000000000e+00,1.000000000000000000e+00,1.110000000000000000e+02
1.000000000000000000e+00,0.000000000000000000e+00,0.000000000000000000e+00,0.000000000000000000e+00,6.970000000000000000e+02,2.608141899108886719e-01,1.863557815551757812e+00,6.129499534657824045e-01,0.000000000000000000e+00,0.000000000000000000e+00,1.110000000000000000e+02
0.000000000000000000e+00,1.000000000000000000e+00,0.000000000000000000e+00,4.000000000000000000e+00,7.000000000000000000e+02,2.849318981170654297e-01,1.885643959045410156e+00,6.153497300925527824e-01,0.000000000000000000e+00,0.000000000000000000e+00,1.110000000000000000e+02
0.000000000000000000e+00,1.000000000000000000e+00,0.000000000000000000e+00,1.000000000000000000e+00,7.000000000000000000e+02,4.279940128326416016e-01,1.860596895217895508e+00,4.429149735332768567e-01,0.000000000000000000e+00,0.000000000000000000e+00,1.110000000000000000e+02
1.000000000000000000e+00,1.000000000000000000e+00,1.000000000000000000e+00,3.000000000000000000e+00,7.020000000000000000e+02,2.920529842376708984e-01,1.907058954238891602e+00,6.331613054677751595e-01,0.000000000000000000e+00,0.000000000000000000e+00,1.110000000000000000e+02
0.000000000000000000e+00,1.000000000000000000e+00,0.000000000000000000e+00,3.000000000000000000e+00,7.040000000000000000e+02,2.675411701202392578e-01,1.945024967193603516e+00,6.781853216285960162e-01,0.000000000000000000e+00,0.000000000000000000e+00,1.110000000000000000e+02
1.000000000000000000e+00,0.000000000000000000e+00,0.000000000000000000e+00,0.000000000000000000e+00,7.030000000000000000e+02,2.901778221130371094e-01,1.548570156097412109e+00,2.772413507866228755e-01,0.000000000000000000e+00,1.000000000000000000e+00,1.120000000000000000e+02
0.000000000000000000e+00,1.000000000000000000e+00,0.000000000000000000e+00,0.000000000000000000e+00,7.020000000000000000e+02,3.752448558807373047e-01,1.854016065597534180e+00,4.977332889393869531e-01,0.000000000000000000e+00,1.000000000000000000e+00,1.110000000000000000e+02
1.000000000000000000e+00,0.000000000000000000e+00,0.000000000000000000e+00,0.000000000000000000e+00,7.010000000000000000e+02,3.033211231231689453e-01,1.540864944458007812e+00,2.556267842935274204e-01,0.000000000000000000e+00,0.000000000000000000e+00,1.110000000000000000e+02
1.000000000000000000e+00,1.000000000000000000e+00,1.000000000000000000e+00,2.000000000000000000e+00,7.020000000000000000e+02,3.043420314788818359e-01,1.716603040695190430e+00,4.221087596423879762e-01,0.000000000000000000e+00,1.000000000000000000e+00,1.120000000000000000e+02
0.000000000000000000e+00,0.000000000000000000e+00,1.000000000000000000e+00,0.000000000000000000e+00,7.010000000000000000e+02,2.637019157409667969e-01,1.634407043457031250e+00,3.733183116591879402e-01,0.000000000000000000e+00,1.000000000000000000e+00,1.110000000000000000e+02
1.000000000000000000e+00,1.000000000000000000e+00,1.000000000000000000e+00,3.000000000000000000e+00,7.030000000000000000e+02,6.484701633453369141e-01,2.325575828552246094e+00,6.819821243156927171e-01,1.000000000000000000e+00,1.000000000000000000e+00,1.120000000000000000e+02
0.000000000000000000e+00,1.000000000000000000e+00,0.000000000000000000e+00,4.000000000000000000e+00,7.060000000000000000e+02,4.271769523620605469e-01,1.963821887969970703e+00,5.460370516903517712e-01,0.000000000000000000e+00,0.000000000000000000e+00,1.120000000000000000e+02
1.000000000000000000e+00,1.000000000000000000e+00,1.000000000000000000e+00,5.000000000000000000e+00,7.100000000000000000e+02,4.992821216583251953e-01,1.947056055068969727e+00,4.599365220895246797e-01,0.000000000000000000e+00,0.000000000000000000e+00,1.120000000000000000e+02
0.000000000000000000e+00,1.000000000000000000e+00,0.000000000000000000e+00,2.000000000000000000e+00,7.110000000000000000e+02,3.444180488586425781e-01,2.016263961791992188e+00,6.760550134008009859e-01,0.000000000000000000e+00,0.000000000000000000e+00,1.120000000000000000e+02
1.000000000000000000e+00,1.000000000000000000e+00,1.000000000000000000e+00,3.000000000000000000e+00,7.130000000000000000e+02,2.949161529541015625e-01,1.851804018020629883e+00,5.613685112247769338e-01,0.000000000000000000e+00,0.000000000000000000e+00,1.120000000000000000e+02
1.000000000000000000e+00,1.000000000000000000e+00,1.000000000000000000e+00,2.000000000000000000e+00,7.140000000000000000e+02,3.168489933013916016e-01,1.938030004501342773e+00,6.327223125062849673e-01,0.000000000000000000e+00,0.000000000000000000e+00,1.120000000000000000e+02
0.000000000000000000e+00,1.000000000000000000e+00,0.000000000000000000e+00,4.000000000000000000e+00,7.170000000000000000e+02,3.280549049377441406e-01,1.993813991546630859e+00,6.599453308675986563e-01,0.000000000000000000e+00,0.000000000000000000e+00,1.120000000000000000e+02
1.000000000000000000e+00,1.000000000000000000e+00,1.000000000000000000e+00,1.000000000000000000e+00,7.170000000000000000e+02,3.176231384277343750e-01,1.939164161682128906e+00,6.325108897268983954e-01,0.000000000000000000e+00,0.000000000000000000e+00,1.120000000000000000e+02
1.000000000000000000e+00,0.000000000000000000e+00,0.000000000000000000e+00,0.000000000000000000e+00,7.160000000000000000e+02,3.416819572448730469e-01,1.861720085144042969e+00,5.277743132550581917e-01,0.000000000000000000e+00,1.000000000000000000e+00,1.110000000000000000e+02
1.000000000000000000e+00,0.000000000000000000e+00,0.000000000000000000e+00,0.000000000000000000e+00,7.150000000000000000e+02,2.928118705749511719e-01,1.599268913269042969e+00,3.273492414442749077e-01,0.000000000000000000e+00,0.000000000000000000e+00,1.110000000000000000e+02
0.000000000000000000e+00,0.000000000000000000e+00,1.000000000000000000e+00,0.000000000000000000e+00,7.140000000000000000e+02,2.529139518737792969e-01,1.920089960098266602e+00,6.804352927511920779e-01,0.000000000000000000e+00,1.000000000000000000e+00,1.120000000000000000e+02
0.000000000000000000e+00,0.000000000000000000e+00,1.000000000000000000e+00,0.000000000000000000e+00,7.130000000000000000e+02,2.783329486846923828e-01,1.730721950531005859e+00,4.614664614318912950e-01,0.000000000000000000e+00,0.000000000000000000e+00,1.120000000000000000e+02
0.000000000000000000e+00,1.000000000000000000e+00,0.000000000000000000e+00,3.000000000000000000e+00,7.150000000000000000e+02,2.839958667755126953e-01,1.531883955001831055e+00,2.603162797638962633e-01,0.000000000000000000e+00,0.000000000000000000e+00,1.120000000000000000e+02
0.000000000000000000e+00,0.000000000000000000e+00,1.000000000000000000e+00,0.000000000000000000e+00,7.140000000000000000e+02,3.227910995483398438e-01,1.991292953491210938e+00,6.845616730309390663e-01,0.000000000000000000e+00,1.000000000000000000e+00,1.110000000000000000e+02
0.000000000000000000e+00,1.000000000000000000e+00,0.000000000000000000e+00,3.000000000000000000e+00,7.160000000000000000e+02,2.517302036285400391e-01,1.726731061935424805e+00,4.782584138992647116e-01,0.000000000000000000e+00,0.000000000000000000e+00,1.110000000000000000e+02
1.000000000000000000e+00,1.000000000000000000e+00,1.000000000000000000e+00,2.000000000000000000e+00,7.170000000000000000e+02,3.752059936523437500e-01,1.839727878570556641e+00,4.847205498075036756e-01,0.000000000000000000e+00,0.000000000000000000e+00,1.110000000000000000e+02
1.000000000000000000e+00,1.000000000000000000e+00,1.000000000000000000e+00,2.000000000000000000e+00,7.180000000000000000e+02,3.162899017333984375e-01,1.913356065750122070e+00,5.980134051393201089e-01,0.000000000000000000e+00,0.000000000000000000e+00,1.110000000000000000e+02
0.000000000000000000e+00,1.000000000000000000e+00,0.000000000000000000e+00,2.000000000000000000e+00,7.190000000000000000e+02,3.013310432434082031e-01,1.743551015853881836e+00,4.584787087198834432e-01,0.000000000000000000e+00,0.000000000000000000e+00,1.110000000000000000e+02
0.000000000000000000e+00,0.000000000000000000e+00,1.000000000000000000e+00,0.000000000000000000e+00,7.180000000000000000e+02,3.233690261840820312e-01,2.057444095611572266e+00,7.490120261614821029e-01,0.000000000000000000e+00,1.000000000000000000e+00,1.120000000000000000e+02
0.000000000000000000e+00,0.000000000000000000e+00,1.000000000000000000e+00,0.000000000000000000e+00,7.170000000000000000e+02,2.677400112152099609e-01,1.910597085952758789e+00,6.431613430448859248e-01,0.000000000000000000e+00,0.000000000000000000e+00,1.120000000000000000e+02
1.000000000000000000e+00,0.000000000000000000e+00,0.000000000000000000e+00,0.000000000000000000e+00,7.160000000000000000e+02,2.458391189575195312e-01,1.767793893814086914e+00,5.277917663895936862e-01,0.000000000000000000e+00,0.000000000000000000e+00,1.120000000000000000e+02
1.000000000000000000e+00,1.000000000000000000e+00,1.000000000000000000e+00,0.000000000000000000e+00,7.150000000000000000e+02,2.712759971618652344e-01,1.952402830123901367e+00,6.967911140086913147e-01,0.000000000000000000e+00,0.000000000000000000e+00,1.120000000000000000e+02
0.000000000000000000e+00,0.000000000000000000e+00,1.000000000000000000e+00,0.000000000000000000e+00,7.140000000000000000e+02,2.702829837799072266e-01,1.871142148971557617e+00,6.180545227432650002e-01,0.000000000000000000e+00,0.000000000000000000e+00,1.120000000000000000e+02
0.000000000000000000e+00,1.000000000000000000e+00,0.000000000000000000e+00,2.000000000000000000e+00,7.150000000000000000e+02,2.949750423431396484e-01,1.766377925872802734e+00,4.846652070706987669e-01,0.000000000000000000e+00,0.000000000000000000e+00,1.120000000000000000e+02
0.000000000000000000e+00,1.000000000000000000e+00,0.000000000000000000e+00,2.000000000000000000e+00,7.160000000000000000e+02,2.684378623962402344e-01,1.756896972656250000e+00,4.916077573128919687e-01,1.000000000000000000e+00,0.000000000000000000e+00,1.120000000000000000e+02
1.000000000000000000e+00,0.000000000000000000e+00,0.000000000000000000e+00,0.000000000000000000e+00,7.150000000000000000e+02,3.015110492706298828e-01,1.577054023742675781e+00,2.856192941606752744e-01,0.000000000000000000e+00,1.000000000000000000e+00,1.110000000000000000e+02
1.000000000000000000e+00,0.000000000000000000e+00,0.000000000000000000e+00,0.000000000000000000e+00,7.140000000000000000e+02,3.372662067413330078e-01,1.740901947021484375e+00,4.097806210443966646e-01,0.000000000000000000e+00,0.000000000000000000e+00,1.110000000000000000e+02
0.000000000000000000e+00,1.000000000000000000e+00,0.000000000000000000e+00,2.000000000000000000e+00,7.150000000000000000e+02,2.669830322265625000e-01,1.548183917999267578e+00,2.914830219768759223e-01,0.000000000000000000e+00,1.000000000000000000e+00,1.120000000000000000e+02
0.000000000000000000e+00,0.000000000000000000e+00,1.000000000000000000e+00,0.000000000000000000e+00,7.140000000000000000e+02,2.930300235748291016e-01,1.758397102355957031e+00,4.830964580847357248e-01,0.000000000000000000e+00,1.000000000000000000e+00,1.110000000000000000e+02
0.000000000000000000e+00,1.000000000000000000e+00,0.000000000000000000e+00,1.000000000000000000e+00,7.140000000000000000e+02,2.203800678253173828e-01,1.697993993759155273e+00,4.811510384084619063e-01,0.000000000000000000e+00,0.000000000000000000e+00,1.110000000000000000e+02
1.000000000000000000e+00,0.000000000000000000e+00,0.000000000000000000e+00,0.000000000000000000e+00,7.130000000000000000e+02,3.102281093597412109e-01,1.750459909439086914e+00,4.650495806994374148e-01,0.000000000000000000e+00,1.000000000000000000e+00,1.120000000000000000e+02
0.000000000000000000e+00,1.000000000000000000e+00,0.000000000000000000e+00,2.000000000000000000e+00,7.140000000000000000e+02,2.662360668182373047e-01,1.961787939071655273e+00,7.100167724733699171e-01,0.000000000000000000e+00,1.000000000000000000e+00,1.110000000000000000e+02
0.000000000000000000e+00,0.000000000000000000e+00,1.000000000000000000e+00,0.000000000000000000e+00,7.130000000000000000e+02,2.476191520690917969e-01,1.833709001541137695e+00,5.938942782275015153e-01,0.000000000000000000e+00,1.000000000000000000e+00,1.120000000000000000e+02
0.000000000000000000e+00,0.000000000000000000e+00,1.000000000000000000e+00,0.000000000000000000e+00,7.120000000000000000e+02,2.433640956878662109e-01,1.521746158599853516e+00,2.993473966002790920e-01,0.000000000000000000e+00,0.000000000000000000e+00,1.120000000000000000e+02
1.000000000000000000e+00,0.000000000000000000e+00,0.000000000000000000e+00,0.000000000000000000e+00,7.110000000000000000e+02,3.420150279998779297e-01,1.737153053283691406e+00,4.031200627334306508e-01,0.000000000000000000e+00,0.000000000000000000e+00,1.120000000000000000e+02
1.000000000000000000e+00,0.000000000000000000e+00,0.000000000000000000e+00,0.000000000000000000e+00,7.100000000000000000e+02,3.137478828430175781e-01,1.850445032119750977e+00,5.368267630237539834e-01,0.000000000000000000e+00,0.000000000000000000e+00,1.120000000000000000e+02
1.000000000000000000e+00,1.000000000000000000e+00,1.000000000000000000e+00,4.000000000000000000e+00,7.130000000000000000e+02,2.908608913421630859e-01,1.682280778884887695e+00,4.027014436952567333e-01,0.000000000000000000e+00,0.000000000000000000e+00,1.120000000000000000e+02
0.000000000000000000e+00,1.000000000000000000e+00,0.000000000000000000e+00,1.000000000000000000e+00,7.130000000000000000e+02,2.665939331054687500e-01,1.700030088424682617e+00,4.360493063778599354e-01,0.000000000000000000e+00,0.000000000000000000e+00,1.120000000000000000e+02
0.000000000000000000e+00,1.000000000000000000e+00,0.000000000000000000e+00,1.000000000000000000e+00,7.130000000000000000e+02,2.726209163665771484e-01,1.522714138031005859e+00,2.590344924144081795e-01,0.000000000000000000e+00,0.000000000000000000e+00,1.120000000000000000e+02
1.000000000000000000e+00,1.000000000000000000e+00,1.000000000000000000e+00,4.000000000000000000e+00,7.160000000000000000e+02,3.420500755310058594e-01,1.766489982604980469e+00,4.420648698063424087e-01,0.000000000000000000e+00,0.000000000000000000e+00,1.120000000000000000e+02
0.000000000000000000e+00,0.000000000000000000e+00,1.000000000000000000e+00,0.000000000000000000e+00,7.150000000000000000e+02,2.544291019439697266e-01,1.669385910034179688e+00,4.281939959564262654e-01,0.000000000000000000e+00,1.000000000000000000e+00,1.110000000000000000e+02
0.000000000000000000e+00,0.000000000000000000e+00,1.000000000000000000e+00,0.000000000000000000e+00,7.140000000000000000e+02,3.167929649353027344e-01,1.582960844039916992e+00,2.780446347333258017e-01,0.000000000000000000e+00,0.000000000000000000e+00,1.110000000000000000e+02
0.000000000000000000e+00,1.000000000000000000e+00,0.000000000000000000e+00,3.000000000000000000e+00,7.160000000000000000e+02,2.935068607330322266e-01,1.645770072937011719e+00,3.737897286675557207e-01,0.000000000000000000e+00,1.000000000000000000e+00,1.120000000000000000e+02
0.000000000000000000e+00,0.000000000000000000e+00,1.000000000000000000e+00,0.000000000000000000e+00,7.150000000000000000e+02,2.195661067962646484e-01,1.709396123886108398e+00,4.997445291739769924e-01,0.000000000000000000e+00,1.000000000000000000e+00,1.110000000000000000e+02
0.000000000000000000e+00,0.000000000000000000e+00,1.000000000000000000e+00,0.000000000000000000e+00,7.140000000000000000e+02,2.699160575866699219e-01,1.935822010040283203e+00,6.688110539202979377e-01,0.000000000000000000e+00,0.000000000000000000e+00,1.110000000000000000e+02
1.000000000000000000e+00,0.000000000000000000e+00,0.000000000000000000e+00,0.000000000000000000e+00,7.130000000000000000e+02,3.207290172576904297e-01,1.648021936416625977e+00,3.339804545603107799e-01,0.000000000000000000e+00,0.000000000000000000e+00,1.110000000000000000e+02
1.000000000000000000e+00,1.000000000000000000e+00,1.000000000000000000e+00,2.000000000000000000e+00,7.140000000000000000e+02,2.247569561004638672e-01,1.929214000701904297e+00,7.128447271494379178e-01,0.000000000000000000e+00,0.000000000000000000e+00,1.110000000000000000e+02
0.000000000000000000e+00,0.000000000000000000e+00,1.000000000000000000e+00,0.000000000000000000e+00,7.130000000000000000e+02,2.181179523468017578e-01,1.467435836791992188e+00,2.641539449897306602e-01,0.000000000000000000e+00,1.000000000000000000e+00,1.120000000000000000e+02
1.000000000000000000e+00,1.000000000000000000e+00,1.000000000000000000e+00,3.000000000000000000e+00,7.150000000000000000e+02,3.225381374359130859e-01,1.998893022537231445e+00,6.959650583662884138e-01,0.000000000000000000e+00,1.000000000000000000e+00,1.110000000000000000e+02
0.000000000000000000e+00,1.000000000000000000e+00,0.000000000000000000e+00,1.000000000000000000e+00,7.150000000000000000e+02,2.146399021148681641e-01,1.734588861465454102e+00,5.308252739247762975e-01,0.000000000000000000e+00,0.000000000000000000e+00,1.110000000000000000e+02
0.000000000000000000e+00,1.000000000000000000e+00,0.000000000000000000e+00,1.000000000000000000e+00,7.150000000000000000e+02,2.303268909454345703e-01,1.743398189544677734e+00,5.242938285884228833e-01,0.000000000000000000e+00,0.000000000000000000e+00,1.110000000000000000e+02
1.000000000000000000e+00,0.000000000000000000e+00,0.000000000000000000e+00,0.000000000000000000e+00,7.140000000000000000e+02,2.963368892669677734e-01,1.842094898223876953e+00,5.497707792528039317e-01,0.000000000000000000e+00,1.000000000000000000e+00,1.120000000000000000e+02
1.000000000000000000e+00,1.000000000000000000e+00,1.000000000000000000e+00,1.000000000000000000e+00,7.140000000000000000e+02,2.974359989166259766e-01,1.672597169876098633e+00,3.726052185675780559e-01,0.000000000000000000e+00,1.000000000000000000e+00,1.110000000000000000e+02
0.000000000000000000e+00,1.000000000000000000e+00,0.000000000000000000e+00,2.000000000000000000e+00,7.150000000000000000e+02,3.138499259948730469e-01,1.562273979187011719e+00,2.517749304370705543e-01,0.000000000000000000e+00,0.000000000000000000e+00,1.110000000000000000e+02
0.000000000000000000e+00,1.000000000000000000e+00,0.000000000000000000e+00,1.000000000000000000e+00,7.150000000000000000e+02,2.612900733947753906e-01,1.524646997451782227e+00,2.764697739639487839e-01,0.000000000000000000e+00,0.000000000000000000e+00,1.110000000000000000e+02
0.000000000000000000e+00,0.000000000000000000e+00,1.000000000000000000e+00,0.000000000000000000e+00,7.140000000000000000e+02,2.975909709930419922e-01,1.659327030181884766e+00,3.690576894785798090e-01,0.000000000000000000e+00,1.000000000000000000e+00,1.120000000000000000e+02
0.000000000000000000e+00,0.000000000000000000e+00,1.000000000000000000e+00,0.000000000000000000e+00,7.130000000000000000e+02,3.600249290466308594e-01,1.659664869308471680e+00,3.121847984976671708e-01,1.000000000000000000e+00,0.000000000000000000e+00,1.120000000000000000e+02
1.000000000000000000e+00,1.000000000000000000e+00,1.000000000000000000e+00,2.000000000000000000e+00,7.140000000000000000e+02,3.620791435241699219e-01,1.786087989807128906e+00,4.315497385490361104e-01,0.000000000000000000e+00,0.000000000000000000e+00,1.120000000000000000e+02
0.000000000000000000e+00,1.000000000000000000e+00,0.000000000000000000e+00,2.000000000000000000e+00,7.150000000000000000e+02,2.558341026306152344e-01,1.833907842636108398e+00,5.987175717845889533e-01,0.000000000000000000e+00,0.000000000000000000e+00,1.120000000000000000e+02
1.000000000000000000e+00,1.000000000000000000e+00,1.000000000000000000e+00,1.000000000000000000e+00,7.150000000000000000e+02,2.838199138641357422e-01,1.743988990783691406e+00,4.595865300359481820e-01,0.000000000000000000e+00,0.000000000000000000e+00,1.120000000000000000e+02
1.000000000000000000e+00,1.000000000000000000e+00,1.000000000000000000e+00,1.000000000000000000e+00,7.150000000000000000e+02,3.646059036254882812e-01,1.654155015945434570e+00,2.973143686710252864e-01,0.000000000000000000e+00,0.000000000000000000e+00,1.120000000000000000e+02
1.000000000000000000e+00,1.000000000000000000e+00,1.000000000000000000e+00,2.000000000000000000e+00,7.160000000000000000e+02,3.156480789184570312e-01,1.845676183700561523e+00,5.427809559564958919e-01,0.000000000000000000e+00,0.000000000000000000e+00,1.120000000000000000e+02
1.000000000000000000e+00,1.000000000000000000e+00,1.000000000000000000e+00,3.000000000000000000e+00,7.180000000000000000e+02,3.256719112396240234e-01,1.696372032165527344e+00,3.893913200551837317e-01,0.000000000000000000e+00,0.000000000000000000e+00,1.120000000000000000e+02
0.000000000000000000e+00,0.000000000000000000e+00,1.000000000000000000e+00,0.000000000000000000e+00,7.170000000000000000e+02,3.167650699615478516e-01,2.039423942565917969e+00,7.285573160082816635e-01,0.000000000000000000e+00,1.000000000000000000e+00,1.110000000000000000e+02
1.000000000000000000e+00,0.000000000000000000e+00,0.000000000000000000e+00,0.000000000000000000e+00,7.160000000000000000e+02,4.994909763336181641e-01,1.736014790534973145e+02,6.204991117212270701e-01,1.000000000000000000e+00,0.000000000000000000e+00,1.110000000000000000e+02
0.000000000000000000e+00,0.000000000000000000e+00,1.000000000000000000e+00,0.000000000000000000e+00,7.150000000000000000e+02,2.819290161132812500e-01,1.905030012130737305e+00,6.255741792288895819e-01,0.000000000000000000e+00,1.000000000000000000e+00,1.120000000000000000e+02
0.000000000000000000e+00,1.000000000000000000e+00,0.000000000000000000e+00,3.000000000000000000e+00,7.170000000000000000e+02,2.309730052947998047e-01,1.924822092056274414e+00,7.004313809937130486e-01,0.000000000000000000e+00,0.000000000000000000e+00,1.120000000000000000e+02
1.000000000000000000e+00,1.000000000000000000e+00,1.000000000000000000e+00,1.000000000000000000e+00,7.170000000000000000e+02,2.686932086944580078e-01,1.970183849334716797e+00,7.040255987168009266e-01,0.000000000000000000e+00,0.000000000000000000e+00,1.120000000000000000e+02
1.000000000000000000e+00,1.000000000000000000e+00,1.000000000000000000e+00,2.000000000000000000e+00,7.180000000000000000e+02,2.871470451354980469e-01,1.839152097702026367e+00,5.600287830565360281e-01,0.000000000000000000e+00,0.000000000000000000e+00,1.120000000000000000e+02
0.000000000000000000e+00,0.000000000000000000e+00,1.000000000000000000e+00,0.000000000000000000e+00,7.170000000000000000e+02,2.688269615173339844e-01,1.591092109680175781e+00,3.347958807710903484e-01,0.000000000000000000e+00,1.000000000000000000e+00,1.110000000000000000e+02
1.000000000000000000e+00,0.000000000000000000e+00,0.000000000000000000e+00,0.000000000000000000e+00,7.160000000000000000e+02,2.848789691925048828e-01,1.952255964279174805e+00,6.701521505318707161e-01,0.000000000000000000e+00,0.000000000000000000e+00,1.110000000000000000e+02
0.000000000000000000e+00,0.000000000000000000e+00,1.000000000000000000e+00,0.000000000000000000e+00,7.150000000000000000e+02,2.579839229583740234e-01,1.595739126205444336e+00,3.495863871642410081e-01,0.000000000000000000e+00,0.000000000000000000e+00,1.110000000000000000e+02
0.000000000000000000e+00,0.000000000000000000e+00,1.000000000000000000e+00,0.000000000000000000e+00,7.140000000000000000e+02,2.751178741455078125e-01,1.841809034347534180e+00,5.745617685749230263e-01,0.000000000000000000e+00,1.000000000000000000e+00,1.120000000000000000e+02
0.000000000000000000e+00,0.000000000000000000e+00,1.000000000000000000e+00,0.000000000000000000e+00,7.130000000000000000e+02,3.217809200286865234e-01,1.709569931030273438e+00,4.010383898031286698e-01,0.000000000000000000e+00,0.000000000000000000e+00,1.120000000000000000e+02
0.000000000000000000e+00,1.000000000000000000e+00,0.000000000000000000e+00,4.000000000000000000e+00,7.160000000000000000e+02,2.321789264678955078e-01,1.878057003021240234e+00,6.455795375381566670e-01,0.000000000000000000e+00,1.000000000000000000e+00,1.110000000000000000e+02
0.000000000000000000e+00,0.000000000000000000e+00,1.000000000000000000e+00,0.000000000000000000e+00,7.150000000000000000e+02,2.015330791473388672e-01,1.901659011840820312e+00,7.139047236877639202e-01,0.000000000000000000e+00,1.000000000000000000e+00,1.120000000000000000e+02
1.000000000000000000e+00,1.000000000000000000e+00,1.000000000000000000e+00,2.000000000000000000e+00,7.160000000000000000e+02,3.085589408874511719e-01,1.577373981475830078e+00,2.917799586824694758e-01,0.000000000000000000e+00,0.000000000000000000e+00,1.120000000000000000e+02
0.000000000000000000e+00,1.000000000000000000e+00,0.000000000000000000e+00,2.000000000000000000e+00,7.170000000000000000e+02,2.523488998413085938e-01,1.988486051559448242e+00,7.465485755638694432e-01,0.000000000000000000e+00,0.000000000000000000e+00,1.120000000000000000e+02
0.000000000000000000e+00,1.000000000000000000e+00,0.000000000000000000e+00,4.000000000000000000e+00,7.200000000000000000e+02,2.260990142822265625e-01,1.949504137039184570e+00,7.460887584338071754e-01,0.000000000000000000e+00,0.000000000000000000e+00,1.120000000000000000e+02
0.000000000000000000e+00,1.000000000000000000e+00,0.000000000000000000e+00,3.000000000000000000e+00,7.220000000000000000e+02,2.655251026153564453e-01,1.652493953704833984e+00,3.990302668738806569e-01,0.000000000000000000e+00,0.000000000000000000e+00,1.120000000000000000e+02
1.000000000000000000e+00,1.000000000000000000e+00,1.000000000000000000e+00,2.000000000000000000e+00,7.230000000000000000e+02,2.994639873504638672e-01,1.977982044219970703e+00,6.768014034544604929e-01,0.000000000000000000e+00,0.000000000000000000e+00,1.120000000000000000e+02
0.000000000000000000e+00,0.000000000000000000e+00,1.000000000000000000e+00,0.000000000000000000e+00,7.220000000000000000e+02,2.558639049530029297e-01,1.895153045654296875e+00,6.554118787240319488e-01,0.000000000000000000e+00,1.000000000000000000e+00,1.110000000000000000e+02
0.000000000000000000e+00,1.000000000000000000e+00,0.000000000000000000e+00,4.000000000000000000e+00,7.250000000000000000e+02,2.400150299072265625e-01,1.893317937850952148e+00,6.654792789773888995e-01,0.000000000000000000e+00,1.000000000000000000e+00,1.120000000000000000e+02
1.000000000000000000e+00,1.000000000000000000e+00,1.000000000000000000e+00,3.000000000000000000e+00,7.270000000000000000e+02,2.880401611328125000e-01,2.013379096984863281e+00,7.288742811814784561e-01,0.000000000000000000e+00,0.000000000000000000e+00,1.120000000000000000e+02
0.000000000000000000e+00,0.000000000000000000e+00,1.000000000000000000e+00,0.000000000000000000e+00,7.260000000000000000e+02,2.510919570922851562e-01,1.940242052078247070e+00,7.025509013078036213e-01,0.000000000000000000e+00,0.000000000000000000e+00,1.120000000000000000e+02
1.000000000000000000e+00,1.000000000000000000e+00,1.000000000000000000e+00,4.000000000000000000e+00,7.290000000000000000e+02,3.901641368865966797e-01,1.860615015029907227e+00,4.801084355727304742e-01,0.000000000000000000e+00,0.000000000000000000e+00,1.120000000000000000e+02
0.000000000000000000e+00,1.000000000000000000e+00,0.000000000000000000e+00,1.000000000000000000e+00,7.290000000000000000e+02,2.762658596038818359e-01,1.987409114837646484e+00,7.340210053747844299e-01,0.000000000000000000e+00,0.000000000000000000e+00,1.120000000000000000e+02
0.000000000000000000e+00,1.000000000000000000e+00,0.000000000000000000e+00,3.000000000000000000e+00,7.310000000000000000e+02,2.772750854492187500e-01,1.609860897064208984e+00,3.443590481604483777e-01,0.000000000000000000e+00,0.000000000000000000e+00,1.120000000000000000e+02
0.000000000000000000e+00,1.000000000000000000e+00,0.000000000000000000e+00,1.000000000000000000e+00,7.310000000000000000e+02,2.823359966278076172e-01,1.875850200653076172e+00,6.033323085130813945e-01,0.000000000000000000e+00,0.000000000000000000e+00,1.120000000000000000e+02
0.000000000000000000e+00,1.000000000000000000e+00,0.000000000000000000e+00,2.000000000000000000e+00,7.320000000000000000e+02,3.070919513702392578e-01,1.773252010345458984e+00,4.767896203023662682e-01,0.000000000000000000e+00,0.000000000000000000e+00,1.120000000000000000e+02
1.000000000000000000e+00,0.000000000000000000e+00,0.000000000000000000e+00,0.000000000000000000e+00,7.310000000000000000e+02,3.225779533386230469e-01,1.832701921463012695e+00,5.261838335314745763e-01,0.000000000000000000e+00,1.000000000000000000e+00,1.110000000000000000e+02
0.000000000000000000e+00,0.000000000000000000e+00,1.000000000000000000e+00,0.000000000000000000e+00,7.300000000000000000e+02,3.421869277954101562e-01,2.045441150665283203e+00,7.214863889529381513e-01,1.000000000000000000e+00,0.000000000000000000e+00,1.110000000000000000e+02
0.000000000000000000e+00,0.000000000000000000e+00,1.000000000000000000e+00,0.000000000000000000e+00,7.290000000000000000e+02,2.162659168243408203e-01,1.560950994491577148e+00,3.495940650587153753e-01,0.000000000000000000e+00,1.000000000000000000e+00,1.120000000000000000e+02
1.000000000000000000e+00,0.000000000000000000e+00,0.000000000000000000e+00,0.000000000000000000e+00,7.280000000000000000e+02,3.356399536132812500e-01,1.957596063613891602e+00,6.236432289105882099e-01,0.000000000000000000e+00,1.000000000000000000e+00,1.110000000000000000e+02
1.000000000000000000e+00,0.000000000000000000e+00,0.000000000000000000e+00,0.000000000000000000e+00,7.270000000000000000e+02,2.977399826049804688e-01,2.041399002075195312e+00,7.483328551135868256e-01,0.000000000000000000e+00,1.000000000000000000e+00,1.120000000000000000e+02
1.000000000000000000e+00,0.000000000000000000e+00,0.000000000000000000e+00,0.000000000000000000e+00,7.260000000000000000e+02,3.204569816589355469e-01,1.948692083358764648e+00,6.472010821522632407e-01,0.000000000000000000e+00,1.000000000000000000e+00,1.110000000000000000e+02
1.000000000000000000e+00,1.000000000000000000e+00,1.000000000000000000e+00,2.000000000000000000e+00,7.270000000000000000e+02,3.085319995880126953e-01,1.989434003829956055e+00,7.033088842245533989e-01,0.000000000000000000e+00,1.000000000000000000e+00,1.120000000000000000e+02
1.000000000000000000e+00,0.000000000000000000e+00,0.000000000000000000e+00,0.000000000000000000e+00,7.260000000000000000e+02,2.756321430206298828e-01,1.955636978149414062e+00,6.924050974555547855e-01,0.000000000000000000e+00,1.000000000000000000e+00,1.110000000000000000e+02
0.000000000000000000e+00,0.000000000000000000e+00,1.000000000000000000e+00,0.000000000000000000e+00,7.250000000000000000e+02,2.646999359130859375e-01,1.869007110595703125e+00,6.115714185204375042e-01,0.000000000000000000e+00,0.000000000000000000e+00,1.110000000000000000e+02
1.000000000000000000e+00,1.000000000000000000e+00,1.000000000000000000e+00,2.000000000000000000e+00,7.260000000000000000e+02,3.270988464355468750e-01,1.954860925674438477e+00,6.497977280587334814e-01,0.000000000000000000e+00,0.000000000000000000e+00,1.110000000000000000e+02
0.000000000000000000e+00,1.000000000000000000e+00,0.000000000000000000e+00,3.000000000000000000e+00,7.280000000000000000e+02,2.534878253936767578e-01,1.917021036148071289e+00,6.668735918981658628e-01,0.000000000000000000e+00,0.000000000000000000e+00,1.110000000000000000e+02
0.000000000000000000e+00,1.000000000000000000e+00,0.000000000000000000e+00,3.000000000000000000e+00,7.300000000000000000e+02,2.719409465789794922e-01,1.543666124343872070e+00,2.776751035721038430e-01,0.000000000000000000e+00,0.000000000000000000e+00,1.110000000000000000e+02
0.000000000000000000e+00,1.000000000000000000e+00,0.000000000000000000e+00,2.000000000000000000e+00,7.310000000000000000e+02,3.445770740509033203e-01,2.018593072891235352e+00,6.958999182976550735e-01,0.000000000000000000e+00,0.000000000000000000e+00,1.110000000000000000e+02
1.000000000000000000e+00,1.000000000000000000e+00,1.000000000000000000e+00,3.000000000000000000e+00,7.330000000000000000e+02,3.450350761413574219e-01,1.959268093109130859e+00,6.223137777209587496e-01,0.000000000000000000e+00,0.000000000000000000e+00,1.110000000000000000e+02
0.000000000000000000e+00,1.000000000000000000e+00,0.000000000000000000e+00,3.000000000000000000e+00,7.350000000000000000e+02,3.164210319519042969e-01,1.756827831268310547e+00,4.457193891549907083e-01,0.000000000000000000e+00,0.000000000000000000e+00,1.110000000000000000e+02
1.000000000000000000e+00,1.000000000000000000e+00,1.000000000000000000e+00,4.000000000000000000e+00,7.380000000000000000e+02,5.914638042449951172e-01,2.225503206253051758e+00,6.544360202273892257e-01,0.000000000000000000e+00,0.000000000000000000e+00,1.110000000000000000e+02
1.000000000000000000e+00,1.000000000000000000e+00,1.000000000000000000e+00,2.000000000000000000e+00,7.390000000000000000e+02,4.073200225830078125e-01,1.977989912033081055e+00,5.825606827203015925e-01,0.000000000000000000e+00,0.000000000000000000e+00,1.110000000000000000e+02
1.000000000000000000e+00,1.000000000000000000e+00,1.000000000000000000e+00,2.000000000000000000e+00,7.400000000000000000e+02,3.559529781341552734e-01,1.875890970230102539e+00,5.253035481110673866e-01,0.000000000000000000e+00,0.000000000000000000e+00,1.110000000000000000e+02
1.000000000000000000e+00,1.000000000000000000e+00,1.000000000000000000e+00,4.000000000000000000e+00,7.430000000000000000e+02,4.003961086273193359e-01,1.794373035430908203e+00,4.031850649636564143e-01,0.000000000000000000e+00,0.000000000000000000e+00,1.110000000000000000e+02
1.000000000000000000e+00,1.000000000000000000e+00,1.000000000000000000e+00,3.000000000000000000e+00,7.450000000000000000e+02,6.104331016540527344e-01,1.858923912048339844e+00,2.623483351596787583e-01,0.000000000000000000e+00,1.000000000000000000e+00,1.120000000000000000e+02
1.000000000000000000e+00,1.000000000000000000e+00,1.000000000000000000e+00,4.000000000000000000e+00,7.480000000000000000e+02,6.485388278961181641e-01,2.183007001876831055e+00,5.450997315093482065e-01,0.000000000000000000e+00,1.000000000000000000e+00,1.110000000000000000e+02
0.000000000000000000e+00,1.000000000000000000e+00,0.000000000000000000e+00,2.000000000000000000e+00,7.490000000000000000e+02,3.982059955596923828e-01,1.904615879058837891e+00,5.165313602635728252e-01,0.000000000000000000e+00,0.000000000000000000e+00,1.110000000000000000e+02
1.000000000000000000e+00,0.000000000000000000e+00,0.000000000000000000e+00,0.000000000000000000e+00,7.480000000000000000e+02,4.606208801269531250e-01,1.829326152801513672e+00,3.794190230542927034e-01,0.000000000000000000e+00,1.000000000000000000e+00,1.120000000000000000e+02
1.000000000000000000e+00,1.000000000000000000e+00,1.000000000000000000e+00,2.000000000000000000e+00,7.490000000000000000e+02,3.519949913024902344e-01,1.770732879638671875e+00,4.335134989652252857e-01,0.000000000000000000e+00,1.000000000000000000e+00,1.110000000000000000e+02
0.000000000000000000e+00,1.000000000000000000e+00,0.000000000000000000e+00,1.000000000000000000e+00,7.490000000000000000e+02,2.687339782714843750e-01,1.906596183776855469e+00,6.399568413716005821e-01,0.000000000000000000e+00,0.000000000000000000e+00,1.110000000000000000e+02
0.000000000000000000e+00,0.000000000000000000e+00,1.000000000000000000e+00,0.000000000000000000e+00,7.480000000000000000e+02,2.748699188232421875e-01,1.659727811813354492e+00,3.999754873276797351e-01,0.000000000000000000e+00,1.000000000000000000e+00,1.120000000000000000e+02
0.000000000000000000e+00,1.000000000000000000e+00,0.000000000000000000e+00,1.000000000000000000e+00,7.480000000000000000e+02,3.513081073760986328e-01,2.003557920455932617e+00,6.533925797134958469e-01,0.000000000000000000e+00,0.000000000000000000e+00,1.120000000000000000e+02
0.000000000000000000e+00,0.000000000000000000e+00,1.000000000000000000e+00,0.000000000000000000e+00,7.470000000000000000e+02,2.773330211639404297e-01,1.840023994445800781e+00,5.768737290947894003e-01,0.000000000000000000e+00,1.000000000000000000e+00,1.110000000000000000e+02
0.000000000000000000e+00,0.000000000000000000e+00,1.000000000000000000e+00,0.000000000000000000e+00,7.460000000000000000e+02,2.512259483337402344e-01,1.714046955108642578e+00,4.744699028823192721e-01,0.000000000000000000e+00,0.000000000000000000e+00,1.110000000000000000e+02
0.000000000000000000e+00,1.000000000000000000e+00,0.000000000000000000e+00,2.000000000000000000e+00,7.470000000000000000e+02,2.585129737854003906e-01,1.639200925827026367e+00,3.971311290752402856e-01,0.000000000000000000e+00,0.000000000000000000e+00,1.110000000000000000e+02
1.000000000000000000e+00,0.000000000000000000e+00,0.000000000000000000e+00,0.000000000000000000e+00,7.460000000000000000e+02,2.752199172973632812e-01,1.843491077423095703e+00,5.904715556527786458e-01,0.000000000000000000e+00,1.000000000000000000e+00,1.120000000000000000e+02
1.000000000000000000e+00,1.000000000000000000e+00,1.000000000000000000e+00,4.000000000000000000e+00,7.490000000000000000e+02,2.983071804046630859e-01,1.763961076736450195e+00,4.713007049082947875e-01,0.000000000000000000e+00,1.000000000000000000e+00,1.110000000000000000e+02
1.000000000000000000e+00,1.000000000000000000e+00,1.000000000000000000e+00,1.000000000000000000e+00,7.490000000000000000e+02,3.026621341705322266e-01,1.749527931213378906e+00,4.542907120076831173e-01,0.000000000000000000e+00,0.000000000000000000e+00,1.110000000000000000e+02
1.000000000000000000e+00,1.000000000000000000e+00,1.000000000000000000e+00,2.000000000000000000e+00,7.500000000000000000e+02,3.977670669555664062e-01,1.678534984588623047e+00,2.830619272021624444e-01,0.000000000000000000e+00,0.000000000000000000e+00,1.110000000000000000e+02
0.000000000000000000e+00,1.000000000000000000e+00,0.000000000000000000e+00,2.000000000000000000e+00,7.510000000000000000e+02,3.765890598297119141e-01,2.034170866012573242e+00,6.669223336661707080e-01,1.000000000000000000e+00,0.000000000000000000e+00,1.110000000000000000e+02
1.000000000000000000e+00,0.000000000000000000e+00,0.000000000000000000e+00,0.000000000000000000e+00,7.500000000000000000e+02,2.592709064483642578e-01,1.767169952392578125e+00,5.176469974160253784e-01,0.000000000000000000e+00,1.000000000000000000e+00,1.120000000000000000e+02
