choice, accuracy, solution,  reward, cumulative_reward, rt,  total_trial_time, iti, cp_with_slow_fast, obs_cp_with_slow_fast, high_val_cue
0.000000000000000000e+00,0.000000000000000000e+00,1.000000000000000000e+00,0.000000000000000000e+00,5.990000000000000000e+02,8.179810047149658203e-01,2.108061075210571289e+00,2.931437870713951011e-01,0.000000000000000000e+00,0.000000000000000000e+00,1.120000000000000000e+02
1.000000000000000000e+00,1.000000000000000000e+00,1.000000000000000000e+00,4.000000000000000000e+00,6.020000000000000000e+02,2.861030101776123047e-01,1.733736038208007812e+00,4.601318850591493703e-01,0.000000000000000000e+00,0.000000000000000000e+00,1.120000000000000000e+02
0.000000000000000000e+00,0.000000000000000000e+00,1.000000000000000000e+00,0.000000000000000000e+00,6.010000000000000000e+02,2.649011611938476562e-01,1.539477109909057617e+00,2.831917460296966005e-01,0.000000000000000000e+00,1.000000000000000000e+00,1.110000000000000000e+02
1.000000000000000000e+00,0.000000000000000000e+00,0.000000000000000000e+00,0.000000000000000000e+00,6.000000000000000000e+02,3.558089733123779297e-01,1.644915103912353516e+00,2.948233338245007662e-01,0.000000000000000000e+00,1.000000000000000000e+00,1.120000000000000000e+02
0.000000000000000000e+00,1.000000000000000000e+00,0.000000000000000000e+00,3.000000000000000000e+00,6.020000000000000000e+02,2.976689338684082031e-01,1.690755844116210938e+00,4.022078528016380661e-01,0.000000000000000000e+00,1.000000000000000000e+00,1.110000000000000000e+02
0.000000000000000000e+00,0.000000000000000000e+00,1.000000000000000000e+00,0.000000000000000000e+00,6.010000000000000000e+02,2.767210006713867188e-01,1.971307039260864258e+00,7.066132263745459330e-01,0.000000000000000000e+00,1.000000000000000000e+00,1.120000000000000000e+02
0.000000000000000000e+00,0.000000000000000000e+00,1.000000000000000000e+00,0.000000000000000000e+00,6.000000000000000000e+02,2.630519866943359375e-01,1.919474124908447266e+00,6.595774871505353243e-01,0.000000000000000000e+00,1.000000000000000000e+00,1.110000000000000000e+02
0.000000000000000000e+00,0.000000000000000000e+00,1.000000000000000000e+00,0.000000000000000000e+00,5.990000000000000000e+02,2.794559001922607422e-01,1.626816987991333008e+00,3.534486877387552628e-01,0.000000000000000000e+00,1.000000000000000000e+00,1.120000000000000000e+02
0.000000000000000000e+00,0.000000000000000000e+00,1.000000000000000000e+00,0.000000000000000000e+00,5.980000000000000000e+02,2.412140369415283203e-01,1.639482975006103516e+00,4.096158175131700552e-01,0.000000000000000000e+00,1.000000000000000000e+00,1.110000000000000000e+02
0.000000000000000000e+00,0.000000000000000000e+00,1.000000000000000000e+00,0.000000000000000000e+00,5.970000000000000000e+02,4.538991451263427734e-01,1.920475006103515625e+00,4.801074624118976120e-01,0.000000000000000000e+00,0.000000000000000000e+00,1.110000000000000000e+02
0.000000000000000000e+00,1.000000000000000000e+00,0.000000000000000000e+00,1.000000000000000000e+00,5.970000000000000000e+02,2.563440799713134766e-01,1.791674852371215820e+00,5.551168804276784829e-01,0.000000000000000000e+00,1.000000000000000000e+00,1.120000000000000000e+02
0.000000000000000000e+00,1.000000000000000000e+00,0.000000000000000000e+00,3.000000000000000000e+00,5.990000000000000000e+02,2.573659420013427734e-01,1.686566114425659180e+00,4.418717350023614876e-01,0.000000000000000000e+00,0.000000000000000000e+00,1.120000000000000000e+02
1.000000000000000000e+00,1.000000000000000000e+00,1.000000000000000000e+00,3.000000000000000000e+00,6.010000000000000000e+02,2.691721916198730469e-01,1.973701953887939453e+00,7.153975153707641255e-01,0.000000000000000000e+00,0.000000000000000000e+00,1.120000000000000000e+02
0.000000000000000000e+00,0.000000000000000000e+00,1.000000000000000000e+00,0.000000000000000000e+00,6.000000000000000000e+02,2.858240604400634766e-01,1.897977113723754883e+00,6.135686265058648559e-01,0.000000000000000000e+00,1.000000000000000000e+00,1.110000000000000000e+02
0.000000000000000000e+00,0.000000000000000000e+00,1.000000000000000000e+00,0.000000000000000000e+00,5.990000000000000000e+02,2.375810146331787109e-01,1.607466936111450195e+00,3.879940940155345852e-01,0.000000000000000000e+00,1.000000000000000000e+00,1.120000000000000000e+02
0.000000000000000000e+00,1.000000000000000000e+00,0.000000000000000000e+00,4.000000000000000000e+00,6.020000000000000000e+02,2.999458312988281250e-01,1.775049924850463867e+00,4.796875444825889900e-01,0.000000000000000000e+00,1.000000000000000000e+00,1.110000000000000000e+02
0.000000000000000000e+00,0.000000000000000000e+00,1.000000000000000000e+00,0.000000000000000000e+00,6.010000000000000000e+02,2.844181060791015625e-01,1.942493915557861328e+00,6.721718742476856523e-01,0.000000000000000000e+00,1.000000000000000000e+00,1.120000000000000000e+02
0.000000000000000000e+00,0.000000000000000000e+00,1.000000000000000000e+00,0.000000000000000000e+00,6.000000000000000000e+02,2.744991779327392578e-01,1.630229949951171875e+00,3.693912412340341622e-01,1.000000000000000000e+00,0.000000000000000000e+00,1.120000000000000000e+02
1.000000000000000000e+00,1.000000000000000000e+00,1.000000000000000000e+00,1.000000000000000000e+00,6.000000000000000000e+02,2.821540832519531250e-01,1.705768108367919922e+00,4.251942368250720139e-01,0.000000000000000000e+00,0.000000000000000000e+00,1.120000000000000000e+02
0.000000000000000000e+00,0.000000000000000000e+00,1.000000000000000000e+00,0.000000000000000000e+00,5.990000000000000000e+02,2.401700019836425781e-01,1.972657918930053711e+00,7.475681067690951309e-01,0.000000000000000000e+00,1.000000000000000000e+00,1.110000000000000000e+02
0.000000000000000000e+00,1.000000000000000000e+00,0.000000000000000000e+00,3.000000000000000000e+00,6.010000000000000000e+02,2.015991210937500000e-01,1.442456007003784180e+00,2.572555468666161138e-01,0.000000000000000000e+00,1.000000000000000000e+00,1.120000000000000000e+02
0.000000000000000000e+00,0.000000000000000000e+00,1.000000000000000000e+00,0.000000000000000000e+00,6.000000000000000000e+02,2.906451225280761719e-01,1.646342039108276367e+00,3.702519774542168407e-01,0.000000000000000000e+00,1.000000000000000000e+00,1.110000000000000000e+02
0.000000000000000000e+00,0.000000000000000000e+00,1.000000000000000000e+00,0.000000000000000000e+00,5.990000000000000000e+02,2.417020797729492188e-01,1.715612173080444336e+00,4.857957263990275165e-01,0.000000000000000000e+00,1.000000000000000000e+00,1.120000000000000000e+02
1.000000000000000000e+00,1.000000000000000000e+00,1.000000000000000000e+00,1.000000000000000000e+00,5.990000000000000000e+02,2.070629596710205078e-01,1.676723003387451172e+00,4.792570920150376335e-01,0.000000000000000000e+00,1.000000000000000000e+00,1.110000000000000000e+02
0.000000000000000000e+00,0.000000000000000000e+00,1.000000000000000000e+00,0.000000000000000000e+00,5.980000000000000000e+02,2.394280433654785156e-01,1.511723995208740234e+00,2.912564415586174627e-01,0.000000000000000000e+00,1.000000000000000000e+00,1.120000000000000000e+02
1.000000000000000000e+00,0.000000000000000000e+00,0.000000000000000000e+00,0.000000000000000000e+00,5.970000000000000000e+02,2.928500175476074219e-01,1.739498138427734375e+00,4.639786050952769414e-01,0.000000000000000000e+00,1.000000000000000000e+00,1.110000000000000000e+02
0.000000000000000000e+00,1.000000000000000000e+00,0.000000000000000000e+00,2.000000000000000000e+00,5.980000000000000000e+02,2.165598869323730469e-01,1.560758829116821289e+00,3.582590415046050247e-01,0.000000000000000000e+00,1.000000000000000000e+00,1.120000000000000000e+02
0.000000000000000000e+00,1.000000000000000000e+00,0.000000000000000000e+00,3.000000000000000000e+00,6.000000000000000000e+02,2.859809398651123047e-01,1.948500871658325195e+00,6.731800786800354874e-01,0.000000000000000000e+00,0.000000000000000000e+00,1.120000000000000000e+02
1.000000000000000000e+00,0.000000000000000000e+00,0.000000000000000000e+00,0.000000000000000000e+00,5.990000000000000000e+02,2.671031951904296875e-01,1.649037122726440430e+00,3.892692636214944990e-01,0.000000000000000000e+00,1.000000000000000000e+00,1.110000000000000000e+02
0.000000000000000000e+00,1.000000000000000000e+00,0.000000000000000000e+00,1.000000000000000000e+00,5.990000000000000000e+02,2.580881118774414062e-01,1.910259008407592773e+00,6.659842458835130152e-01,0.000000000000000000e+00,0.000000000000000000e+00,1.110000000000000000e+02
0.000000000000000000e+00,0.000000000000000000e+00,1.000000000000000000e+00,0.000000000000000000e+00,5.980000000000000000e+02,3.114988803863525391e-01,1.851099014282226562e+00,5.173416154649674858e-01,0.000000000000000000e+00,1.000000000000000000e+00,1.120000000000000000e+02
1.000000000000000000e+00,1.000000000000000000e+00,1.000000000000000000e+00,3.000000000000000000e+00,6.000000000000000000e+02,2.506699562072753906e-01,1.519397974014282227e+00,2.704014657499953511e-01,0.000000000000000000e+00,0.000000000000000000e+00,1.120000000000000000e+02
0.000000000000000000e+00,0.000000000000000000e+00,1.000000000000000000e+00,0.000000000000000000e+00,5.990000000000000000e+02,2.399570941925048828e-01,1.723323106765747070e+00,4.935450750701008138e-01,0.000000000000000000e+00,0.000000000000000000e+00,1.120000000000000000e+02
0.000000000000000000e+00,0.000000000000000000e+00,1.000000000000000000e+00,0.000000000000000000e+00,5.980000000000000000e+02,2.843577861785888672e-01,1.552489995956420898e+00,2.797005270421947243e-01,0.000000000000000000e+00,1.000000000000000000e+00,1.110000000000000000e+02
1.000000000000000000e+00,0.000000000000000000e+00,0.000000000000000000e+00,0.000000000000000000e+00,5.970000000000000000e+02,3.224201202392578125e-01,1.608829021453857422e+00,3.052113826967172150e-01,0.000000000000000000e+00,1.000000000000000000e+00,1.120000000000000000e+02
0.000000000000000000e+00,1.000000000000000000e+00,0.000000000000000000e+00,2.000000000000000000e+00,5.980000000000000000e+02,5.058710575103759766e-01,1.842091798782348633e+00,3.473543483271898658e-01,0.000000000000000000e+00,0.000000000000000000e+00,1.120000000000000000e+02
0.000000000000000000e+00,0.000000000000000000e+00,1.000000000000000000e+00,0.000000000000000000e+00,5.970000000000000000e+02,3.095118999481201172e-01,1.735213994979858398e+00,4.491734593937430908e-01,0.000000000000000000e+00,1.000000000000000000e+00,1.110000000000000000e+02
1.000000000000000000e+00,0.000000000000000000e+00,0.000000000000000000e+00,0.000000000000000000e+00,5.960000000000000000e+02,2.625839710235595703e-01,1.944760799407958984e+00,6.937969559778086603e-01,0.000000000000000000e+00,0.000000000000000000e+00,1.110000000000000000e+02
1.000000000000000000e+00,1.000000000000000000e+00,1.000000000000000000e+00,3.000000000000000000e+00,5.980000000000000000e+02,2.283499240875244141e-01,1.584329843521118164e+00,3.618596371819320923e-01,1.000000000000000000e+00,1.000000000000000000e+00,1.120000000000000000e+02
0.000000000000000000e+00,1.000000000000000000e+00,0.000000000000000000e+00,2.000000000000000000e+00,5.990000000000000000e+02,3.090460300445556641e-01,2.002508878707885742e+00,7.140974455736019966e-01,0.000000000000000000e+00,0.000000000000000000e+00,1.120000000000000000e+02
0.000000000000000000e+00,1.000000000000000000e+00,0.000000000000000000e+00,2.000000000000000000e+00,6.000000000000000000e+02,2.630960941314697266e-01,1.694288969039916992e+00,4.420725730175024681e-01,0.000000000000000000e+00,0.000000000000000000e+00,1.120000000000000000e+02
1.000000000000000000e+00,0.000000000000000000e+00,0.000000000000000000e+00,0.000000000000000000e+00,5.990000000000000000e+02,2.652180194854736328e-01,1.566429853439331055e+00,3.087365483758376938e-01,0.000000000000000000e+00,1.000000000000000000e+00,1.110000000000000000e+02
0.000000000000000000e+00,1.000000000000000000e+00,0.000000000000000000e+00,3.000000000000000000e+00,6.010000000000000000e+02,2.765820026397705078e-01,1.936201095581054688e+00,6.779276410850909595e-01,0.000000000000000000e+00,0.000000000000000000e+00,1.110000000000000000e+02
1.000000000000000000e+00,1.000000000000000000e+00,1.000000000000000000e+00,3.000000000000000000e+00,6.030000000000000000e+02,1.973800659179687500e-01,1.741224050521850586e+00,5.527203709326047321e-01,0.000000000000000000e+00,0.000000000000000000e+00,1.110000000000000000e+02
1.000000000000000000e+00,1.000000000000000000e+00,1.000000000000000000e+00,2.000000000000000000e+00,6.040000000000000000e+02,3.093869686126708984e-01,1.798723936080932617e+00,5.015697599123402073e-01,0.000000000000000000e+00,0.000000000000000000e+00,1.110000000000000000e+02
1.000000000000000000e+00,0.000000000000000000e+00,0.000000000000000000e+00,0.000000000000000000e+00,6.030000000000000000e+02,2.734169960021972656e-01,1.720283985137939453e+00,4.553303765343852949e-01,0.000000000000000000e+00,1.000000000000000000e+00,1.120000000000000000e+02
1.000000000000000000e+00,1.000000000000000000e+00,1.000000000000000000e+00,3.000000000000000000e+00,6.050000000000000000e+02,3.008348941802978516e-01,1.780843019485473633e+00,4.862080267763244090e-01,0.000000000000000000e+00,0.000000000000000000e+00,1.120000000000000000e+02
0.000000000000000000e+00,0.000000000000000000e+00,1.000000000000000000e+00,0.000000000000000000e+00,6.040000000000000000e+02,2.685620784759521484e-01,1.917380809783935547e+00,6.535035381063529769e-01,0.000000000000000000e+00,1.000000000000000000e+00,1.110000000000000000e+02
0.000000000000000000e+00,0.000000000000000000e+00,1.000000000000000000e+00,0.000000000000000000e+00,6.030000000000000000e+02,2.899858951568603516e-01,1.610170841217041016e+00,3.307654408225974008e-01,0.000000000000000000e+00,0.000000000000000000e+00,1.110000000000000000e+02
1.000000000000000000e+00,0.000000000000000000e+00,0.000000000000000000e+00,0.000000000000000000e+00,6.020000000000000000e+02,3.129730224609375000e-01,1.885092020034790039e+00,5.823449690141595525e-01,0.000000000000000000e+00,1.000000000000000000e+00,1.120000000000000000e+02
0.000000000000000000e+00,1.000000000000000000e+00,0.000000000000000000e+00,3.000000000000000000e+00,6.040000000000000000e+02,3.610749244689941406e-01,1.762252807617187500e+00,4.115107604122947293e-01,0.000000000000000000e+00,1.000000000000000000e+00,1.110000000000000000e+02
0.000000000000000000e+00,1.000000000000000000e+00,0.000000000000000000e+00,3.000000000000000000e+00,6.060000000000000000e+02,2.730250358581542969e-01,1.916921138763427734e+00,6.616188487939076435e-01,0.000000000000000000e+00,0.000000000000000000e+00,1.110000000000000000e+02
1.000000000000000000e+00,1.000000000000000000e+00,1.000000000000000000e+00,2.000000000000000000e+00,6.070000000000000000e+02,2.956039905548095703e-01,1.616307020187377930e+00,3.283342586225765358e-01,0.000000000000000000e+00,0.000000000000000000e+00,1.110000000000000000e+02
1.000000000000000000e+00,0.000000000000000000e+00,0.000000000000000000e+00,0.000000000000000000e+00,6.060000000000000000e+02,2.649230957031250000e-01,1.979404926300048828e+00,7.240677823747141417e-01,0.000000000000000000e+00,1.000000000000000000e+00,1.120000000000000000e+02
0.000000000000000000e+00,0.000000000000000000e+00,1.000000000000000000e+00,0.000000000000000000e+00,6.050000000000000000e+02,2.766418457031250000e-01,2.006064891815185547e+00,7.468785109577332770e-01,0.000000000000000000e+00,1.000000000000000000e+00,1.110000000000000000e+02
0.000000000000000000e+00,0.000000000000000000e+00,1.000000000000000000e+00,0.000000000000000000e+00,6.040000000000000000e+02,2.619180679321289062e-01,1.668245077133178711e+00,4.155425621415162474e-01,0.000000000000000000e+00,0.000000000000000000e+00,1.110000000000000000e+02
0.000000000000000000e+00,0.000000000000000000e+00,1.000000000000000000e+00,0.000000000000000000e+00,6.030000000000000000e+02,3.375310897827148438e-01,1.607671976089477539e+00,2.734354977119340946e-01,0.000000000000000000e+00,0.000000000000000000e+00,1.110000000000000000e+02
0.000000000000000000e+00,1.000000000000000000e+00,0.000000000000000000e+00,4.000000000000000000e+00,6.060000000000000000e+02,3.664710521697998047e-01,1.938594102859497070e+00,5.784780600348914392e-01,0.000000000000000000e+00,0.000000000000000000e+00,1.110000000000000000e+02
1.000000000000000000e+00,0.000000000000000000e+00,0.000000000000000000e+00,0.000000000000000000e+00,6.050000000000000000e+02,2.782790660858154297e-01,1.622705936431884766e+00,3.348657891096115669e-01,0.000000000000000000e+00,1.000000000000000000e+00,1.120000000000000000e+02
1.000000000000000000e+00,1.000000000000000000e+00,1.000000000000000000e+00,2.000000000000000000e+00,6.060000000000000000e+02,5.029988288879394531e-01,1.888818979263305664e+00,3.903805385380010318e-01,0.000000000000000000e+00,0.000000000000000000e+00,1.120000000000000000e+02
0.000000000000000000e+00,1.000000000000000000e+00,0.000000000000000000e+00,1.000000000000000000e+00,6.060000000000000000e+02,2.098319530487060547e-01,1.773158073425292969e+00,5.800983952973327584e-01,0.000000000000000000e+00,1.000000000000000000e+00,1.110000000000000000e+02
1.000000000000000000e+00,0.000000000000000000e+00,0.000000000000000000e+00,0.000000000000000000e+00,6.050000000000000000e+02,2.890400886535644531e-01,1.529789924621582031e+00,2.602506170665574992e-01,0.000000000000000000e+00,1.000000000000000000e+00,1.120000000000000000e+02
0.000000000000000000e+00,1.000000000000000000e+00,0.000000000000000000e+00,2.000000000000000000e+00,6.060000000000000000e+02,2.358779907226562500e-01,1.609446048736572266e+00,3.863131901178353256e-01,0.000000000000000000e+00,1.000000000000000000e+00,1.110000000000000000e+02
1.000000000000000000e+00,1.000000000000000000e+00,1.000000000000000000e+00,1.000000000000000000e+00,6.060000000000000000e+02,2.892098426818847656e-01,1.712265014648437500e+00,4.319145688980892128e-01,0.000000000000000000e+00,0.000000000000000000e+00,1.110000000000000000e+02
0.000000000000000000e+00,1.000000000000000000e+00,0.000000000000000000e+00,2.000000000000000000e+00,6.070000000000000000e+02,3.072788715362548828e-01,1.723632812500000000e+00,4.389565523097855859e-01,0.000000000000000000e+00,0.000000000000000000e+00,1.110000000000000000e+02
1.000000000000000000e+00,1.000000000000000000e+00,1.000000000000000000e+00,2.000000000000000000e+00,6.080000000000000000e+02,2.900090217590332031e-01,1.942649841308593750e+00,6.648161056786183742e-01,0.000000000000000000e+00,1.000000000000000000e+00,1.120000000000000000e+02
0.000000000000000000e+00,1.000000000000000000e+00,0.000000000000000000e+00,2.000000000000000000e+00,6.090000000000000000e+02,1.917271614074707031e-01,1.539961099624633789e+00,3.717960288475011255e-01,0.000000000000000000e+00,0.000000000000000000e+00,1.120000000000000000e+02
1.000000000000000000e+00,1.000000000000000000e+00,1.000000000000000000e+00,4.000000000000000000e+00,6.120000000000000000e+02,2.227909564971923828e-01,1.595010995864868164e+00,3.835455402655094104e-01,0.000000000000000000e+00,0.000000000000000000e+00,1.120000000000000000e+02
0.000000000000000000e+00,0.000000000000000000e+00,1.000000000000000000e+00,0.000000000000000000e+00,6.110000000000000000e+02,2.738628387451171875e-01,1.690361022949218750e+00,4.239173408632115336e-01,0.000000000000000000e+00,1.000000000000000000e+00,1.110000000000000000e+02
1.000000000000000000e+00,0.000000000000000000e+00,0.000000000000000000e+00,0.000000000000000000e+00,6.100000000000000000e+02,3.006160259246826172e-01,2.003952026367187500e+00,7.110075194130686116e-01,0.000000000000000000e+00,1.000000000000000000e+00,1.120000000000000000e+02
1.000000000000000000e+00,1.000000000000000000e+00,1.000000000000000000e+00,4.000000000000000000e+00,6.130000000000000000e+02,3.207099437713623047e-01,1.611992120742797852e+00,3.068365768496534862e-01,0.000000000000000000e+00,1.000000000000000000e+00,1.110000000000000000e+02
1.000000000000000000e+00,0.000000000000000000e+00,0.000000000000000000e+00,0.000000000000000000e+00,6.120000000000000000e+02,2.839801311492919922e-01,1.728227853775024414e+00,4.516524365612872294e-01,1.000000000000000000e+00,1.000000000000000000e+00,1.120000000000000000e+02
1.000000000000000000e+00,0.000000000000000000e+00,0.000000000000000000e+00,0.000000000000000000e+00,6.110000000000000000e+02,2.577879428863525391e-01,1.921884775161743164e+00,6.734008841372663978e-01,0.000000000000000000e+00,1.000000000000000000e+00,1.110000000000000000e+02
0.000000000000000000e+00,0.000000000000000000e+00,1.000000000000000000e+00,0.000000000000000000e+00,6.100000000000000000e+02,2.131798267364501953e-01,1.583770036697387695e+00,3.741960429751677863e-01,0.000000000000000000e+00,1.000000000000000000e+00,1.120000000000000000e+02
0.000000000000000000e+00,0.000000000000000000e+00,1.000000000000000000e+00,0.000000000000000000e+00,6.090000000000000000e+02,2.829298973083496094e-01,1.870134830474853516e+00,5.942195463563267888e-01,0.000000000000000000e+00,1.000000000000000000e+00,1.110000000000000000e+02
0.000000000000000000e+00,0.000000000000000000e+00,1.000000000000000000e+00,0.000000000000000000e+00,6.080000000000000000e+02,2.112751007080078125e-01,1.637864828109741211e+00,4.489276464551807400e-01,0.000000000000000000e+00,1.000000000000000000e+00,1.120000000000000000e+02
1.000000000000000000e+00,0.000000000000000000e+00,0.000000000000000000e+00,0.000000000000000000e+00,6.070000000000000000e+02,2.893719673156738281e-01,1.589061975479125977e+00,3.049215555084814899e-01,0.000000000000000000e+00,0.000000000000000000e+00,1.120000000000000000e+02
0.000000000000000000e+00,0.000000000000000000e+00,1.000000000000000000e+00,0.000000000000000000e+00,6.060000000000000000e+02,3.290138244628906250e-01,1.852010011672973633e+00,5.234233282373330631e-01,0.000000000000000000e+00,1.000000000000000000e+00,1.110000000000000000e+02
0.000000000000000000e+00,1.000000000000000000e+00,0.000000000000000000e+00,4.000000000000000000e+00,6.090000000000000000e+02,2.321259975433349609e-01,1.838205099105834961e+00,6.116008085179774900e-01,0.000000000000000000e+00,1.000000000000000000e+00,1.120000000000000000e+02
0.000000000000000000e+00,1.000000000000000000e+00,0.000000000000000000e+00,2.000000000000000000e+00,6.100000000000000000e+02,3.198580741882324219e-01,1.988158941268920898e+00,6.831458195724919857e-01,0.000000000000000000e+00,0.000000000000000000e+00,1.120000000000000000e+02
0.000000000000000000e+00,0.000000000000000000e+00,1.000000000000000000e+00,0.000000000000000000e+00,6.090000000000000000e+02,2.809200286865234375e-01,2.008059024810791016e+00,7.245907786954499663e-01,0.000000000000000000e+00,1.000000000000000000e+00,1.110000000000000000e+02
1.000000000000000000e+00,1.000000000000000000e+00,1.000000000000000000e+00,3.000000000000000000e+00,6.110000000000000000e+02,2.490990161895751953e-01,1.551683902740478516e+00,3.101295044109810828e-01,0.000000000000000000e+00,0.000000000000000000e+00,1.110000000000000000e+02
1.000000000000000000e+00,0.000000000000000000e+00,0.000000000000000000e+00,0.000000000000000000e+00,6.100000000000000000e+02,2.952449321746826172e-01,1.785943984985351562e+00,4.959196313806364387e-01,0.000000000000000000e+00,1.000000000000000000e+00,1.120000000000000000e+02
0.000000000000000000e+00,1.000000000000000000e+00,0.000000000000000000e+00,3.000000000000000000e+00,6.120000000000000000e+02,2.747819423675537109e-01,1.754987001419067383e+00,5.009867979684616834e-01,0.000000000000000000e+00,0.000000000000000000e+00,1.120000000000000000e+02
0.000000000000000000e+00,1.000000000000000000e+00,0.000000000000000000e+00,3.000000000000000000e+00,6.140000000000000000e+02,2.391800880432128906e-01,1.748189926147460938e+00,5.159215592177981424e-01,0.000000000000000000e+00,0.000000000000000000e+00,1.120000000000000000e+02
0.000000000000000000e+00,0.000000000000000000e+00,1.000000000000000000e+00,0.000000000000000000e+00,6.130000000000000000e+02,2.292659282684326172e-01,1.794631958007812500e+00,5.605862500646386914e-01,0.000000000000000000e+00,1.000000000000000000e+00,1.110000000000000000e+02
1.000000000000000000e+00,0.000000000000000000e+00,0.000000000000000000e+00,0.000000000000000000e+00,6.120000000000000000e+02,2.369790077209472656e-01,1.941016197204589844e+00,7.181675561996213597e-01,0.000000000000000000e+00,1.000000000000000000e+00,1.120000000000000000e+02
1.000000000000000000e+00,1.000000000000000000e+00,1.000000000000000000e+00,3.000000000000000000e+00,6.140000000000000000e+02,3.140351772308349609e-01,1.762948989868164062e+00,4.481634776696918343e-01,0.000000000000000000e+00,0.000000000000000000e+00,1.120000000000000000e+02
0.000000000000000000e+00,1.000000000000000000e+00,0.000000000000000000e+00,3.000000000000000000e+00,6.160000000000000000e+02,2.860939502716064453e-01,1.569611072540283203e+00,3.013446196169723978e-01,0.000000000000000000e+00,0.000000000000000000e+00,1.120000000000000000e+02
1.000000000000000000e+00,1.000000000000000000e+00,1.000000000000000000e+00,3.000000000000000000e+00,6.180000000000000000e+02,2.979018688201904297e-01,1.614609956741333008e+00,3.160035518523041098e-01,0.000000000000000000e+00,0.000000000000000000e+00,1.120000000000000000e+02
0.000000000000000000e+00,1.000000000000000000e+00,0.000000000000000000e+00,4.000000000000000000e+00,6.210000000000000000e+02,3.622159957885742188e-01,1.847054958343505859e+00,4.796313538734966464e-01,0.000000000000000000e+00,0.000000000000000000e+00,1.120000000000000000e+02
0.000000000000000000e+00,1.000000000000000000e+00,0.000000000000000000e+00,2.000000000000000000e+00,6.220000000000000000e+02,5.185768604278564453e-01,1.799360990524291992e+00,2.957246149532228308e-01,0.000000000000000000e+00,0.000000000000000000e+00,1.120000000000000000e+02
1.000000000000000000e+00,0.000000000000000000e+00,0.000000000000000000e+00,0.000000000000000000e+00,6.210000000000000000e+02,2.520039081573486328e-01,1.654024839401245117e+00,4.165899886606366231e-01,0.000000000000000000e+00,0.000000000000000000e+00,1.120000000000000000e+02
0.000000000000000000e+00,1.000000000000000000e+00,0.000000000000000000e+00,3.000000000000000000e+00,6.230000000000000000e+02,2.054309844970703125e-01,1.927051067352294922e+00,7.270344055851124532e-01,0.000000000000000000e+00,1.000000000000000000e+00,1.110000000000000000e+02
1.000000000000000000e+00,0.000000000000000000e+00,0.000000000000000000e+00,0.000000000000000000e+00,6.220000000000000000e+02,2.018508911132812500e-01,1.802147150039672852e+00,6.124020232236941919e-01,0.000000000000000000e+00,0.000000000000000000e+00,1.110000000000000000e+02
1.000000000000000000e+00,1.000000000000000000e+00,1.000000000000000000e+00,1.000000000000000000e+00,6.220000000000000000e+02,2.718639373779296875e-01,1.643802881240844727e+00,3.898376619934071918e-01,0.000000000000000000e+00,0.000000000000000000e+00,1.110000000000000000e+02
1.000000000000000000e+00,1.000000000000000000e+00,1.000000000000000000e+00,2.000000000000000000e+00,6.230000000000000000e+02,2.539179325103759766e-01,1.987720012664794922e+00,7.439590261729767118e-01,0.000000000000000000e+00,0.000000000000000000e+00,1.110000000000000000e+02
0.000000000000000000e+00,0.000000000000000000e+00,1.000000000000000000e+00,0.000000000000000000e+00,6.220000000000000000e+02,2.767210006713867188e-01,1.925148963928222656e+00,6.693002124680207388e-01,0.000000000000000000e+00,1.000000000000000000e+00,1.120000000000000000e+02
1.000000000000000000e+00,1.000000000000000000e+00,1.000000000000000000e+00,2.000000000000000000e+00,6.230000000000000000e+02,2.686140537261962891e-01,1.986461162567138672e+00,7.224411204438678791e-01,1.000000000000000000e+00,1.000000000000000000e+00,1.110000000000000000e+02
0.000000000000000000e+00,1.000000000000000000e+00,0.000000000000000000e+00,3.000000000000000000e+00,6.250000000000000000e+02,2.700669765472412109e-01,1.938380002975463867e+00,6.775793735106743210e-01,0.000000000000000000e+00,0.000000000000000000e+00,1.110000000000000000e+02
0.000000000000000000e+00,1.000000000000000000e+00,0.000000000000000000e+00,3.000000000000000000e+00,6.270000000000000000e+02,2.179179191589355469e-01,1.643776893615722656e+00,4.383935595207786862e-01,0.000000000000000000e+00,0.000000000000000000e+00,1.110000000000000000e+02
0.000000000000000000e+00,1.000000000000000000e+00,0.000000000000000000e+00,0.000000000000000000e+00,6.260000000000000000e+02,2.799248695373535156e-01,1.986368894577026367e+00,7.078828529113689871e-01,0.000000000000000000e+00,0.000000000000000000e+00,1.110000000000000000e+02
1.000000000000000000e+00,1.000000000000000000e+00,1.000000000000000000e+00,2.000000000000000000e+00,6.270000000000000000e+02,3.136749267578125000e-01,1.892879009246826172e+00,5.843643591813425520e-01,0.000000000000000000e+00,1.000000000000000000e+00,1.120000000000000000e+02
1.000000000000000000e+00,1.000000000000000000e+00,1.000000000000000000e+00,3.000000000000000000e+00,6.290000000000000000e+02,2.657270431518554688e-01,1.624603986740112305e+00,3.592783086414516047e-01,0.000000000000000000e+00,0.000000000000000000e+00,1.120000000000000000e+02
1.000000000000000000e+00,0.000000000000000000e+00,0.000000000000000000e+00,0.000000000000000000e+00,6.280000000000000000e+02,2.681558132171630859e-01,1.754084825515747070e+00,4.966056418404612427e-01,0.000000000000000000e+00,1.000000000000000000e+00,1.110000000000000000e+02
0.000000000000000000e+00,1.000000000000000000e+00,0.000000000000000000e+00,3.000000000000000000e+00,6.300000000000000000e+02,2.381350994110107422e-01,1.671479940414428711e+00,4.515609005342365867e-01,0.000000000000000000e+00,1.000000000000000000e+00,1.120000000000000000e+02
0.000000000000000000e+00,1.000000000000000000e+00,0.000000000000000000e+00,2.000000000000000000e+00,6.310000000000000000e+02,2.538568973541259766e-01,1.913229942321777344e+00,6.646242796172351364e-01,0.000000000000000000e+00,1.000000000000000000e+00,1.110000000000000000e+02
1.000000000000000000e+00,1.000000000000000000e+00,1.000000000000000000e+00,1.000000000000000000e+00,6.310000000000000000e+02,2.979938983917236328e-01,1.880610227584838867e+00,5.953910622400915287e-01,0.000000000000000000e+00,0.000000000000000000e+00,1.110000000000000000e+02
1.000000000000000000e+00,0.000000000000000000e+00,0.000000000000000000e+00,0.000000000000000000e+00,6.300000000000000000e+02,2.466919422149658203e-01,1.782542943954467773e+00,5.447333206629177971e-01,0.000000000000000000e+00,1.000000000000000000e+00,1.120000000000000000e+02
0.000000000000000000e+00,1.000000000000000000e+00,0.000000000000000000e+00,3.000000000000000000e+00,6.320000000000000000e+02,1.844928264617919922e-01,1.498965024948120117e+00,3.273222100652633526e-01,0.000000000000000000e+00,0.000000000000000000e+00,1.120000000000000000e+02
1.000000000000000000e+00,1.000000000000000000e+00,1.000000000000000000e+00,4.000000000000000000e+00,6.350000000000000000e+02,3.335611820220947266e-01,1.965116024017333984e+00,6.422015749694103270e-01,0.000000000000000000e+00,0.000000000000000000e+00,1.120000000000000000e+02
0.000000000000000000e+00,0.000000000000000000e+00,1.000000000000000000e+00,0.000000000000000000e+00,6.340000000000000000e+02,3.158938884735107422e-01,1.702455043792724609e+00,3.949954393489180648e-01,0.000000000000000000e+00,1.000000000000000000e+00,1.110000000000000000e+02
1.000000000000000000e+00,1.000000000000000000e+00,1.000000000000000000e+00,3.000000000000000000e+00,6.360000000000000000e+02,2.557418346405029297e-01,1.659976005554199219e+00,4.216967453620930062e-01,0.000000000000000000e+00,1.000000000000000000e+00,1.120000000000000000e+02
1.000000000000000000e+00,1.000000000000000000e+00,1.000000000000000000e+00,1.000000000000000000e+00,6.360000000000000000e+02,2.623128890991210938e-01,1.848476171493530273e+00,5.700815967743704249e-01,0.000000000000000000e+00,0.000000000000000000e+00,1.120000000000000000e+02
0.000000000000000000e+00,1.000000000000000000e+00,0.000000000000000000e+00,2.000000000000000000e+00,6.370000000000000000e+02,5.140359401702880859e-01,2.187460899353027344e+00,6.742031688363381292e-01,0.000000000000000000e+00,0.000000000000000000e+00,1.120000000000000000e+02
1.000000000000000000e+00,1.000000000000000000e+00,1.000000000000000000e+00,3.000000000000000000e+00,6.390000000000000000e+02,3.221080303192138672e-01,1.930531024932861328e+00,6.215234645954050841e-01,0.000000000000000000e+00,0.000000000000000000e+00,1.120000000000000000e+02
0.000000000000000000e+00,1.000000000000000000e+00,0.000000000000000000e+00,2.000000000000000000e+00,6.400000000000000000e+02,2.128839492797851562e-01,1.950910091400146484e+00,7.391029537366387014e-01,0.000000000000000000e+00,1.000000000000000000e+00,1.110000000000000000e+02
1.000000000000000000e+00,0.000000000000000000e+00,0.000000000000000000e+00,0.000000000000000000e+00,6.390000000000000000e+02,2.799830436706542969e-01,1.886672019958496094e+00,6.093130296132222012e-01,0.000000000000000000e+00,1.000000000000000000e+00,1.120000000000000000e+02
0.000000000000000000e+00,1.000000000000000000e+00,0.000000000000000000e+00,1.000000000000000000e+00,6.390000000000000000e+02,2.396550178527832031e-01,1.606725931167602539e+00,3.830030149737820300e-01,0.000000000000000000e+00,1.000000000000000000e+00,1.110000000000000000e+02
1.000000000000000000e+00,1.000000000000000000e+00,1.000000000000000000e+00,1.000000000000000000e+00,6.390000000000000000e+02,2.700428962707519531e-01,1.780696153640747070e+00,5.136862009186005107e-01,0.000000000000000000e+00,0.000000000000000000e+00,1.110000000000000000e+02
0.000000000000000000e+00,1.000000000000000000e+00,0.000000000000000000e+00,1.000000000000000000e+00,6.390000000000000000e+02,2.474570274353027344e-01,1.852030992507934570e+00,6.156254789577388919e-01,0.000000000000000000e+00,1.000000000000000000e+00,1.120000000000000000e+02
0.000000000000000000e+00,0.000000000000000000e+00,1.000000000000000000e+00,0.000000000000000000e+00,6.380000000000000000e+02,2.929229736328125000e-01,2.020638942718505859e+00,7.366142783218239121e-01,0.000000000000000000e+00,1.000000000000000000e+00,1.110000000000000000e+02
0.000000000000000000e+00,1.000000000000000000e+00,0.000000000000000000e+00,2.000000000000000000e+00,6.390000000000000000e+02,2.402758598327636719e-01,1.823518037796020508e+00,5.933665018833672589e-01,0.000000000000000000e+00,1.000000000000000000e+00,1.120000000000000000e+02
0.000000000000000000e+00,0.000000000000000000e+00,1.000000000000000000e+00,0.000000000000000000e+00,6.380000000000000000e+02,4.153048992156982422e-01,1.881587028503417969e+00,4.751608664244602043e-01,0.000000000000000000e+00,1.000000000000000000e+00,1.110000000000000000e+02
0.000000000000000000e+00,1.000000000000000000e+00,0.000000000000000000e+00,2.000000000000000000e+00,6.390000000000000000e+02,2.603650093078613281e-01,1.531639099121093750e+00,2.903820971064853818e-01,0.000000000000000000e+00,1.000000000000000000e+00,1.120000000000000000e+02
0.000000000000000000e+00,0.000000000000000000e+00,1.000000000000000000e+00,0.000000000000000000e+00,6.380000000000000000e+02,3.090419769287109375e-01,2.032016992568969727e+00,7.386462512338070052e-01,0.000000000000000000e+00,1.000000000000000000e+00,1.110000000000000000e+02
0.000000000000000000e+00,1.000000000000000000e+00,0.000000000000000000e+00,1.000000000000000000e+00,6.380000000000000000e+02,2.888839244842529297e-01,1.809432983398437500e+00,5.317450610299911951e-01,0.000000000000000000e+00,0.000000000000000000e+00,1.110000000000000000e+02
0.000000000000000000e+00,1.000000000000000000e+00,0.000000000000000000e+00,3.000000000000000000e+00,6.400000000000000000e+02,2.589001655578613281e-01,1.557384967803955078e+00,3.227812578341717753e-01,1.000000000000000000e+00,0.000000000000000000e+00,1.110000000000000000e+02
1.000000000000000000e+00,1.000000000000000000e+00,1.000000000000000000e+00,3.000000000000000000e+00,6.420000000000000000e+02,3.333041667938232422e-01,2.070769071578979492e+00,7.431788560142504885e-01,0.000000000000000000e+00,0.000000000000000000e+00,1.110000000000000000e+02
1.000000000000000000e+00,1.000000000000000000e+00,1.000000000000000000e+00,1.000000000000000000e+00,6.420000000000000000e+02,2.746868133544921875e-01,1.764181137084960938e+00,5.076842806026753419e-01,0.000000000000000000e+00,0.000000000000000000e+00,1.110000000000000000e+02
1.000000000000000000e+00,0.000000000000000000e+00,0.000000000000000000e+00,0.000000000000000000e+00,6.410000000000000000e+02,2.561209201812744141e-01,1.711886882781982422e+00,4.696885765573825533e-01,0.000000000000000000e+00,1.000000000000000000e+00,1.120000000000000000e+02
1.000000000000000000e+00,1.000000000000000000e+00,1.000000000000000000e+00,1.000000000000000000e+00,6.410000000000000000e+02,3.194510936737060547e-01,1.630031108856201172e+00,3.166270335844888484e-01,0.000000000000000000e+00,0.000000000000000000e+00,1.120000000000000000e+02
1.000000000000000000e+00,1.000000000000000000e+00,1.000000000000000000e+00,4.000000000000000000e+00,6.440000000000000000e+02,3.012068271636962891e-01,1.882909059524536133e+00,5.826285555981526310e-01,0.000000000000000000e+00,0.000000000000000000e+00,1.120000000000000000e+02
0.000000000000000000e+00,1.000000000000000000e+00,0.000000000000000000e+00,3.000000000000000000e+00,6.460000000000000000e+02,2.979390621185302734e-01,1.713078022003173828e+00,4.126635529597454943e-01,0.000000000000000000e+00,0.000000000000000000e+00,1.120000000000000000e+02
0.000000000000000000e+00,0.000000000000000000e+00,1.000000000000000000e+00,0.000000000000000000e+00,6.450000000000000000e+02,2.559981346130371094e-01,1.521409988403320312e+00,2.842944756262610895e-01,0.000000000000000000e+00,1.000000000000000000e+00,1.110000000000000000e+02
1.000000000000000000e+00,1.000000000000000000e+00,1.000000000000000000e+00,3.000000000000000000e+00,6.470000000000000000e+02,3.107249736785888672e-01,2.012834072113037109e+00,7.134349562035420256e-01,0.000000000000000000e+00,0.000000000000000000e+00,1.110000000000000000e+02
1.000000000000000000e+00,1.000000000000000000e+00,1.000000000000000000e+00,2.000000000000000000e+00,6.480000000000000000e+02,2.718169689178466797e-01,1.567934036254882812e+00,3.151600050200867309e-01,0.000000000000000000e+00,0.000000000000000000e+00,1.110000000000000000e+02
0.000000000000000000e+00,0.000000000000000000e+00,1.000000000000000000e+00,0.000000000000000000e+00,6.470000000000000000e+02,2.822399139404296875e-01,1.603365898132324219e+00,3.352693792904647418e-01,0.000000000000000000e+00,1.000000000000000000e+00,1.120000000000000000e+02
1.000000000000000000e+00,1.000000000000000000e+00,1.000000000000000000e+00,2.000000000000000000e+00,6.480000000000000000e+02,2.955558300018310547e-01,1.586545944213867188e+00,2.886058175306612239e-01,0.000000000000000000e+00,0.000000000000000000e+00,1.120000000000000000e+02
0.000000000000000000e+00,0.000000000000000000e+00,1.000000000000000000e+00,0.000000000000000000e+00,6.470000000000000000e+02,2.682909965515136719e-01,1.797802925109863281e+00,5.362378074829055041e-01,0.000000000000000000e+00,1.000000000000000000e+00,1.110000000000000000e+02
0.000000000000000000e+00,1.000000000000000000e+00,0.000000000000000000e+00,2.000000000000000000e+00,6.480000000000000000e+02,9.080309867858886719e-01,2.306242942810058594e+00,4.093263929928632194e-01,0.000000000000000000e+00,0.000000000000000000e+00,1.110000000000000000e+02
1.000000000000000000e+00,0.000000000000000000e+00,0.000000000000000000e+00,0.000000000000000000e+00,6.470000000000000000e+02,2.754771709442138672e-01,1.670886039733886719e+00,4.136599220741492000e-01,0.000000000000000000e+00,1.000000000000000000e+00,1.120000000000000000e+02
1.000000000000000000e+00,1.000000000000000000e+00,1.000000000000000000e+00,2.000000000000000000e+00,6.480000000000000000e+02,2.908980846405029297e-01,1.920978069305419922e+00,6.511455758827284779e-01,0.000000000000000000e+00,0.000000000000000000e+00,1.120000000000000000e+02
1.000000000000000000e+00,0.000000000000000000e+00,0.000000000000000000e+00,0.000000000000000000e+00,6.470000000000000000e+02,3.413720130920410156e-01,1.885838031768798828e+00,5.538245391976488463e-01,0.000000000000000000e+00,1.000000000000000000e+00,1.110000000000000000e+02
0.000000000000000000e+00,1.000000000000000000e+00,0.000000000000000000e+00,4.000000000000000000e+00,6.500000000000000000e+02,4.410009384155273438e-01,1.798795938491821289e+00,3.695824164434108328e-01,0.000000000000000000e+00,0.000000000000000000e+00,1.110000000000000000e+02
0.000000000000000000e+00,0.000000000000000000e+00,1.000000000000000000e+00,0.000000000000000000e+00,6.490000000000000000e+02,4.890098571777343750e-01,1.985280990600585938e+00,5.048069238869082875e-01,1.000000000000000000e+00,1.000000000000000000e+00,1.120000000000000000e+02
0.000000000000000000e+00,0.000000000000000000e+00,1.000000000000000000e+00,0.000000000000000000e+00,6.480000000000000000e+02,5.257539749145507812e-01,2.257032155990600586e+00,7.449991882513058439e-01,0.000000000000000000e+00,0.000000000000000000e+00,1.120000000000000000e+02
1.000000000000000000e+00,0.000000000000000000e+00,0.000000000000000000e+00,0.000000000000000000e+00,6.470000000000000000e+02,2.502241134643554688e-01,1.738277912139892578e+00,5.003072416363071317e-01,0.000000000000000000e+00,1.000000000000000000e+00,1.110000000000000000e+02
0.000000000000000000e+00,1.000000000000000000e+00,0.000000000000000000e+00,2.000000000000000000e+00,6.480000000000000000e+02,2.782618999481201172e-01,2.002817153930664062e+00,7.196743232000886170e-01,0.000000000000000000e+00,1.000000000000000000e+00,1.120000000000000000e+02
1.000000000000000000e+00,0.000000000000000000e+00,0.000000000000000000e+00,0.000000000000000000e+00,6.470000000000000000e+02,3.003427982330322266e-01,1.930136919021606445e+00,6.332747641302055586e-01,0.000000000000000000e+00,1.000000000000000000e+00,1.110000000000000000e+02
0.000000000000000000e+00,0.000000000000000000e+00,1.000000000000000000e+00,0.000000000000000000e+00,6.460000000000000000e+02,2.190620899200439453e-01,1.742521047592163086e+00,5.259868971863241871e-01,0.000000000000000000e+00,0.000000000000000000e+00,1.110000000000000000e+02
1.000000000000000000e+00,1.000000000000000000e+00,1.000000000000000000e+00,2.000000000000000000e+00,6.470000000000000000e+02,3.757848739624023438e-01,2.082031965255737305e+00,7.245476048219930965e-01,0.000000000000000000e+00,0.000000000000000000e+00,1.110000000000000000e+02
1.000000000000000000e+00,0.000000000000000000e+00,0.000000000000000000e+00,0.000000000000000000e+00,6.460000000000000000e+02,2.475421428680419922e-01,1.613088130950927734e+00,3.714670868646119950e-01,0.000000000000000000e+00,1.000000000000000000e+00,1.120000000000000000e+02
0.000000000000000000e+00,0.000000000000000000e+00,1.000000000000000000e+00,0.000000000000000000e+00,6.450000000000000000e+02,2.869350910186767578e-01,1.666313886642456055e+00,3.878279327692272238e-01,0.000000000000000000e+00,1.000000000000000000e+00,1.110000000000000000e+02
1.000000000000000000e+00,1.000000000000000000e+00,1.000000000000000000e+00,2.000000000000000000e+00,6.460000000000000000e+02,2.953119277954101562e-01,1.774327993392944336e+00,4.784741079972312239e-01,0.000000000000000000e+00,1.000000000000000000e+00,1.120000000000000000e+02
0.000000000000000000e+00,0.000000000000000000e+00,1.000000000000000000e+00,0.000000000000000000e+00,6.450000000000000000e+02,2.717139720916748047e-01,1.701740026473999023e+00,4.473109095520949041e-01,0.000000000000000000e+00,1.000000000000000000e+00,1.110000000000000000e+02
1.000000000000000000e+00,0.000000000000000000e+00,0.000000000000000000e+00,0.000000000000000000e+00,6.440000000000000000e+02,2.917368412017822266e-01,1.561650037765502930e+00,2.925429057941093536e-01,0.000000000000000000e+00,1.000000000000000000e+00,1.120000000000000000e+02
0.000000000000000000e+00,1.000000000000000000e+00,0.000000000000000000e+00,2.000000000000000000e+00,6.450000000000000000e+02,2.661321163177490234e-01,1.726957082748413086e+00,4.693839117011823214e-01,0.000000000000000000e+00,1.000000000000000000e+00,1.110000000000000000e+02
1.000000000000000000e+00,0.000000000000000000e+00,0.000000000000000000e+00,0.000000000000000000e+00,6.440000000000000000e+02,3.229200839996337891e-01,1.764645099639892578e+00,4.507837974705425355e-01,0.000000000000000000e+00,1.000000000000000000e+00,1.120000000000000000e+02
0.000000000000000000e+00,1.000000000000000000e+00,0.000000000000000000e+00,4.000000000000000000e+00,6.470000000000000000e+02,2.743680477142333984e-01,1.946794033050537109e+00,6.807730632805062410e-01,1.000000000000000000e+00,0.000000000000000000e+00,1.120000000000000000e+02
0.000000000000000000e+00,1.000000000000000000e+00,0.000000000000000000e+00,1.000000000000000000e+00,6.470000000000000000e+02,2.370049953460693359e-01,1.478680849075317383e+00,2.599641439170924384e-01,0.000000000000000000e+00,0.000000000000000000e+00,1.120000000000000000e+02
1.000000000000000000e+00,0.000000000000000000e+00,0.000000000000000000e+00,0.000000000000000000e+00,6.460000000000000000e+02,3.597590923309326172e-01,1.875363826751708984e+00,5.350968856272811935e-01,0.000000000000000000e+00,1.000000000000000000e+00,1.110000000000000000e+02
1.000000000000000000e+00,1.000000000000000000e+00,1.000000000000000000e+00,3.000000000000000000e+00,6.480000000000000000e+02,3.274710178375244141e-01,1.952394008636474609e+00,6.374934884676114466e-01,0.000000000000000000e+00,1.000000000000000000e+00,1.120000000000000000e+02
0.000000000000000000e+00,1.000000000000000000e+00,0.000000000000000000e+00,2.000000000000000000e+00,6.490000000000000000e+02,2.355201244354248047e-01,1.516925811767578125e+00,2.882033802500292841e-01,0.000000000000000000e+00,0.000000000000000000e+00,1.120000000000000000e+02
0.000000000000000000e+00,1.000000000000000000e+00,0.000000000000000000e+00,1.000000000000000000e+00,6.490000000000000000e+02,2.709140777587890625e-01,1.745867013931274414e+00,4.839099714239745165e-01,0.000000000000000000e+00,0.000000000000000000e+00,1.120000000000000000e+02
1.000000000000000000e+00,1.000000000000000000e+00,1.000000000000000000e+00,1.000000000000000000e+00,6.490000000000000000e+02,3.029768466949462891e-01,1.734298944473266602e+00,4.350113268549433143e-01,0.000000000000000000e+00,0.000000000000000000e+00,1.120000000000000000e+02
1.000000000000000000e+00,1.000000000000000000e+00,1.000000000000000000e+00,3.000000000000000000e+00,6.510000000000000000e+02,3.606789112091064453e-01,1.992537975311279297e+00,6.441191684387397309e-01,0.000000000000000000e+00,0.000000000000000000e+00,1.120000000000000000e+02
0.000000000000000000e+00,1.000000000000000000e+00,0.000000000000000000e+00,2.000000000000000000e+00,6.520000000000000000e+02,3.384399414062500000e-01,1.994174003601074219e+00,6.716733355851071119e-01,0.000000000000000000e+00,0.000000000000000000e+00,1.120000000000000000e+02
0.000000000000000000e+00,1.000000000000000000e+00,0.000000000000000000e+00,3.000000000000000000e+00,6.540000000000000000e+02,2.584421634674072266e-01,1.950056791305541992e+00,7.051068746729212133e-01,0.000000000000000000e+00,0.000000000000000000e+00,1.120000000000000000e+02
0.000000000000000000e+00,1.000000000000000000e+00,0.000000000000000000e+00,0.000000000000000000e+00,6.530000000000000000e+02,2.545320987701416016e-01,1.961925983428955078e+00,7.171127451634969896e-01,0.000000000000000000e+00,0.000000000000000000e+00,1.120000000000000000e+02
0.000000000000000000e+00,0.000000000000000000e+00,1.000000000000000000e+00,0.000000000000000000e+00,6.530000000000000000e+02,1.015609979629516602e+00,2.727097988128662109e+00,6.776834245900789089e-01,-1.000000000000000000e+00,-1.000000000000000000e+00,1.120000000000000000e+02
0.000000000000000000e+00,0.000000000000000000e+00,1.000000000000000000e+00,0.000000000000000000e+00,6.520000000000000000e+02,2.373631000518798828e-01,1.921087026596069336e+00,6.988524034166683219e-01,0.000000000000000000e+00,0.000000000000000000e+00,1.120000000000000000e+02
1.000000000000000000e+00,0.000000000000000000e+00,0.000000000000000000e+00,0.000000000000000000e+00,6.510000000000000000e+02,2.550959587097167969e-01,1.685925960540771484e+00,4.351638700737580634e-01,0.000000000000000000e+00,0.000000000000000000e+00,1.120000000000000000e+02
0.000000000000000000e+00,0.000000000000000000e+00,1.000000000000000000e+00,0.000000000000000000e+00,6.500000000000000000e+02,3.057801723480224609e-01,1.975234031677246094e+00,6.768811161706140833e-01,0.000000000000000000e+00,0.000000000000000000e+00,1.120000000000000000e+02
0.000000000000000000e+00,0.000000000000000000e+00,1.000000000000000000e+00,0.000000000000000000e+00,6.490000000000000000e+02,1.953129768371582031e-01,1.747908115386962891e+00,5.583249452041344485e-01,0.000000000000000000e+00,0.000000000000000000e+00,1.120000000000000000e+02
1.000000000000000000e+00,1.000000000000000000e+00,1.000000000000000000e+00,2.000000000000000000e+00,6.500000000000000000e+02,3.993151187896728516e-01,1.731733083724975586e+00,3.403570584063216886e-01,0.000000000000000000e+00,0.000000000000000000e+00,1.120000000000000000e+02
0.000000000000000000e+00,1.000000000000000000e+00,0.000000000000000000e+00,3.000000000000000000e+00,6.520000000000000000e+02,2.840440273284912109e-01,1.624948978424072266e+00,3.487219905767764971e-01,0.000000000000000000e+00,0.000000000000000000e+00,1.120000000000000000e+02
0.000000000000000000e+00,1.000000000000000000e+00,0.000000000000000000e+00,5.000000000000000000e+00,6.560000000000000000e+02,3.007919788360595703e-01,1.776628017425537109e+00,4.752765301795268127e-01,0.000000000000000000e+00,0.000000000000000000e+00,1.120000000000000000e+02
1.000000000000000000e+00,1.000000000000000000e+00,1.000000000000000000e+00,5.000000000000000000e+00,6.600000000000000000e+02,3.041770458221435547e-01,1.666021108627319336e+00,3.748280663306848837e-01,0.000000000000000000e+00,0.000000000000000000e+00,1.120000000000000000e+02
0.000000000000000000e+00,0.000000000000000000e+00,1.000000000000000000e+00,0.000000000000000000e+00,6.590000000000000000e+02,2.556049823760986328e-01,1.976526021957397461e+00,7.344019799680967520e-01,0.000000000000000000e+00,1.000000000000000000e+00,1.110000000000000000e+02
0.000000000000000000e+00,0.000000000000000000e+00,1.000000000000000000e+00,0.000000000000000000e+00,6.580000000000000000e+02,2.672970294952392578e-01,1.754004955291748047e+00,4.889429890762614916e-01,0.000000000000000000e+00,1.000000000000000000e+00,1.120000000000000000e+02
1.000000000000000000e+00,1.000000000000000000e+00,1.000000000000000000e+00,2.000000000000000000e+00,6.590000000000000000e+02,2.873511314392089844e-01,1.836948871612548828e+00,5.590512440890649248e-01,0.000000000000000000e+00,1.000000000000000000e+00,1.110000000000000000e+02
0.000000000000000000e+00,0.000000000000000000e+00,1.000000000000000000e+00,0.000000000000000000e+00,6.580000000000000000e+02,2.551920413970947266e-01,1.833425045013427734e+00,5.925087980241185992e-01,0.000000000000000000e+00,1.000000000000000000e+00,1.120000000000000000e+02
1.000000000000000000e+00,1.000000000000000000e+00,1.000000000000000000e+00,3.000000000000000000e+00,6.600000000000000000e+02,3.336241245269775391e-01,1.829200029373168945e+00,5.052216689343085321e-01,0.000000000000000000e+00,0.000000000000000000e+00,1.120000000000000000e+02
1.000000000000000000e+00,1.000000000000000000e+00,1.000000000000000000e+00,3.000000000000000000e+00,6.620000000000000000e+02,3.015871047973632812e-01,1.586961030960083008e+00,2.924951266956140050e-01,0.000000000000000000e+00,0.000000000000000000e+00,1.120000000000000000e+02
1.000000000000000000e+00,1.000000000000000000e+00,1.000000000000000000e+00,2.000000000000000000e+00,6.630000000000000000e+02,2.413101196289062500e-01,1.655915021896362305e+00,4.316813089507460233e-01,0.000000000000000000e+00,0.000000000000000000e+00,1.120000000000000000e+02
0.000000000000000000e+00,1.000000000000000000e+00,0.000000000000000000e+00,3.000000000000000000e+00,6.650000000000000000e+02,5.600419044494628906e-01,2.050856828689575195e+00,5.158822432995826546e-01,1.000000000000000000e+00,0.000000000000000000e+00,1.120000000000000000e+02
0.000000000000000000e+00,0.000000000000000000e+00,1.000000000000000000e+00,0.000000000000000000e+00,6.640000000000000000e+02,2.184219360351562500e-01,1.801455020904541016e+00,5.839831048097903210e-01,0.000000000000000000e+00,1.000000000000000000e+00,1.110000000000000000e+02
1.000000000000000000e+00,1.000000000000000000e+00,1.000000000000000000e+00,2.000000000000000000e+00,6.650000000000000000e+02,2.498540878295898438e-01,1.606707811355590820e+00,3.576994245546498141e-01,0.000000000000000000e+00,0.000000000000000000e+00,1.110000000000000000e+02
1.000000000000000000e+00,1.000000000000000000e+00,1.000000000000000000e+00,3.000000000000000000e+00,6.670000000000000000e+02,2.948889732360839844e-01,1.848539113998413086e+00,5.560887996259421540e-01,0.000000000000000000e+00,0.000000000000000000e+00,1.110000000000000000e+02
0.000000000000000000e+00,1.000000000000000000e+00,0.000000000000000000e+00,3.000000000000000000e+00,6.690000000000000000e+02,2.989959716796875000e-01,1.896734952926635742e+00,6.028691535086301290e-01,0.000000000000000000e+00,0.000000000000000000e+00,1.110000000000000000e+02
0.000000000000000000e+00,1.000000000000000000e+00,0.000000000000000000e+00,4.000000000000000000e+00,6.720000000000000000e+02,2.690191268920898438e-01,1.839909076690673828e+00,5.762358061576868806e-01,0.000000000000000000e+00,0.000000000000000000e+00,1.110000000000000000e+02
0.000000000000000000e+00,1.000000000000000000e+00,0.000000000000000000e+00,3.000000000000000000e+00,6.740000000000000000e+02,2.918570041656494141e-01,1.632583141326904297e+00,3.591176732108503633e-01,0.000000000000000000e+00,0.000000000000000000e+00,1.110000000000000000e+02
0.000000000000000000e+00,1.000000000000000000e+00,0.000000000000000000e+00,3.000000000000000000e+00,6.760000000000000000e+02,2.325830459594726562e-01,1.668158769607543945e+00,4.439168331798447609e-01,0.000000000000000000e+00,0.000000000000000000e+00,1.110000000000000000e+02
0.000000000000000000e+00,0.000000000000000000e+00,1.000000000000000000e+00,0.000000000000000000e+00,6.760000000000000000e+02,6.886315345764160156e-02,5.737638950347900391e+00,5.483806216190555416e-01,-2.000000000000000000e+00,-2.000000000000000000e+00,1.120000000000000000e+02
0.000000000000000000e+00,1.000000000000000000e+00,0.000000000000000000e+00,3.000000000000000000e+00,6.780000000000000000e+02,2.428090572357177734e-01,1.794727087020874023e+00,5.765217881415316548e-01,0.000000000000000000e+00,1.000000000000000000e+00,1.110000000000000000e+02
0.000000000000000000e+00,1.000000000000000000e+00,0.000000000000000000e+00,3.000000000000000000e+00,6.800000000000000000e+02,3.067779541015625000e-01,1.993107795715332031e+00,7.026124153683414031e-01,0.000000000000000000e+00,0.000000000000000000e+00,1.110000000000000000e+02
1.000000000000000000e+00,1.000000000000000000e+00,1.000000000000000000e+00,0.000000000000000000e+00,6.790000000000000000e+02,3.068940639495849609e-01,1.547537803649902344e+00,2.509686768846901006e-01,0.000000000000000000e+00,0.000000000000000000e+00,1.110000000000000000e+02
0.000000000000000000e+00,0.000000000000000000e+00,1.000000000000000000e+00,0.000000000000000000e+00,6.780000000000000000e+02,3.109588623046875000e-01,1.618457078933715820e+00,3.194419321387265143e-01,0.000000000000000000e+00,1.000000000000000000e+00,1.120000000000000000e+02
0.000000000000000000e+00,0.000000000000000000e+00,1.000000000000000000e+00,0.000000000000000000e+00,6.770000000000000000e+02,2.633390426635742188e-01,1.860416173934936523e+00,5.963363336196511044e-01,0.000000000000000000e+00,0.000000000000000000e+00,1.120000000000000000e+02
0.000000000000000000e+00,0.000000000000000000e+00,1.000000000000000000e+00,0.000000000000000000e+00,6.760000000000000000e+02,2.394700050354003906e-01,1.866216897964477539e+00,6.458774499224853027e-01,0.000000000000000000e+00,1.000000000000000000e+00,1.110000000000000000e+02
0.000000000000000000e+00,1.000000000000000000e+00,0.000000000000000000e+00,2.000000000000000000e+00,6.770000000000000000e+02,2.098619937896728516e-01,1.638696193695068359e+00,4.348984865188438298e-01,0.000000000000000000e+00,1.000000000000000000e+00,1.120000000000000000e+02
0.000000000000000000e+00,1.000000000000000000e+00,0.000000000000000000e+00,2.000000000000000000e+00,6.780000000000000000e+02,2.728600502014160156e-01,1.858551979064941406e+00,5.933332918918579058e-01,0.000000000000000000e+00,0.000000000000000000e+00,1.120000000000000000e+02
0.000000000000000000e+00,1.000000000000000000e+00,0.000000000000000000e+00,2.000000000000000000e+00,6.790000000000000000e+02,4.055249691009521484e-01,1.837651968002319336e+00,4.478802001074844163e-01,1.000000000000000000e+00,0.000000000000000000e+00,1.120000000000000000e+02
0.000000000000000000e+00,1.000000000000000000e+00,0.000000000000000000e+00,4.000000000000000000e+00,6.820000000000000000e+02,2.936248779296875000e-01,1.806185960769653320e+00,5.374114994278235136e-01,0.000000000000000000e+00,0.000000000000000000e+00,1.120000000000000000e+02
0.000000000000000000e+00,0.000000000000000000e+00,1.000000000000000000e+00,0.000000000000000000e+00,6.810000000000000000e+02,2.440710067749023438e-01,1.962295770645141602e+00,7.162616341716896429e-01,0.000000000000000000e+00,1.000000000000000000e+00,1.110000000000000000e+02
1.000000000000000000e+00,1.000000000000000000e+00,1.000000000000000000e+00,1.000000000000000000e+00,6.810000000000000000e+02,2.955589294433593750e-01,1.790490865707397461e+00,4.904191694348782327e-01,0.000000000000000000e+00,0.000000000000000000e+00,1.110000000000000000e+02
0.000000000000000000e+00,0.000000000000000000e+00,1.000000000000000000e+00,0.000000000000000000e+00,6.800000000000000000e+02,2.801551818847656250e-01,1.729739189147949219e+00,4.536022139520798913e-01,0.000000000000000000e+00,1.000000000000000000e+00,1.120000000000000000e+02
0.000000000000000000e+00,1.000000000000000000e+00,0.000000000000000000e+00,3.000000000000000000e+00,6.820000000000000000e+02,2.479109764099121094e-01,1.831552982330322266e+00,5.850914550135276615e-01,0.000000000000000000e+00,1.000000000000000000e+00,1.110000000000000000e+02
0.000000000000000000e+00,1.000000000000000000e+00,0.000000000000000000e+00,2.000000000000000000e+00,6.830000000000000000e+02,2.286710739135742188e-01,1.938101053237915039e+00,7.064934994505882582e-01,0.000000000000000000e+00,0.000000000000000000e+00,1.110000000000000000e+02
0.000000000000000000e+00,1.000000000000000000e+00,0.000000000000000000e+00,0.000000000000000000e+00,6.830000000000000000e+02,2.138209342956542969e-02,5.445929050445556641e+00,3.031016185600676760e-01,-2.000000000000000000e+00,-2.000000000000000000e+00,1.110000000000000000e+02
0.000000000000000000e+00,1.000000000000000000e+00,0.000000000000000000e+00,3.000000000000000000e+00,6.850000000000000000e+02,1.986877918243408203e-01,1.902018070220947266e+00,7.047559692426477174e-01,0.000000000000000000e+00,0.000000000000000000e+00,1.110000000000000000e+02
0.000000000000000000e+00,1.000000000000000000e+00,0.000000000000000000e+00,2.000000000000000000e+00,6.860000000000000000e+02,2.725980281829833984e-01,1.681245803833007812e+00,4.197194712964320007e-01,0.000000000000000000e+00,0.000000000000000000e+00,1.110000000000000000e+02
0.000000000000000000e+00,1.000000000000000000e+00,0.000000000000000000e+00,3.000000000000000000e+00,6.880000000000000000e+02,2.423470020294189453e-01,1.879526138305664062e+00,6.491101674617697492e-01,0.000000000000000000e+00,0.000000000000000000e+00,1.110000000000000000e+02
0.000000000000000000e+00,1.000000000000000000e+00,0.000000000000000000e+00,3.000000000000000000e+00,6.900000000000000000e+02,2.110469341278076172e-01,1.738090038299560547e+00,5.373738571496478045e-01,0.000000000000000000e+00,1.000000000000000000e+00,1.120000000000000000e+02
0.000000000000000000e+00,0.000000000000000000e+00,1.000000000000000000e+00,0.000000000000000000e+00,6.890000000000000000e+02,2.558050155639648438e-01,1.677370071411132812e+00,4.316421639623803652e-01,0.000000000000000000e+00,1.000000000000000000e+00,1.110000000000000000e+02
0.000000000000000000e+00,0.000000000000000000e+00,1.000000000000000000e+00,0.000000000000000000e+00,6.880000000000000000e+02,3.232710361480712891e-01,1.745177984237670898e+00,4.435322556725517229e-01,0.000000000000000000e+00,1.000000000000000000e+00,1.120000000000000000e+02
0.000000000000000000e+00,0.000000000000000000e+00,1.000000000000000000e+00,0.000000000000000000e+00,6.870000000000000000e+02,1.752710342407226562e-01,1.612350940704345703e+00,4.559366055321870670e-01,0.000000000000000000e+00,0.000000000000000000e+00,1.120000000000000000e+02
1.000000000000000000e+00,1.000000000000000000e+00,1.000000000000000000e+00,3.000000000000000000e+00,6.890000000000000000e+02,3.226330280303955078e-01,2.000642061233520508e+00,6.897338973946911533e-01,0.000000000000000000e+00,0.000000000000000000e+00,1.120000000000000000e+02
0.000000000000000000e+00,0.000000000000000000e+00,1.000000000000000000e+00,0.000000000000000000e+00,6.880000000000000000e+02,2.097620964050292969e-01,1.658296108245849609e+00,4.650409283930514448e-01,0.000000000000000000e+00,0.000000000000000000e+00,1.120000000000000000e+02
0.000000000000000000e+00,0.000000000000000000e+00,1.000000000000000000e+00,0.000000000000000000e+00,6.870000000000000000e+02,2.287778854370117188e-01,1.660594940185546875e+00,4.590304541442903341e-01,0.000000000000000000e+00,0.000000000000000000e+00,1.120000000000000000e+02
0.000000000000000000e+00,0.000000000000000000e+00,1.000000000000000000e+00,0.000000000000000000e+00,6.860000000000000000e+02,4.122400283813476562e-01,2.053861141204833984e+00,6.627787179815464169e-01,0.000000000000000000e+00,1.000000000000000000e+00,1.110000000000000000e+02
0.000000000000000000e+00,1.000000000000000000e+00,0.000000000000000000e+00,1.000000000000000000e+00,6.860000000000000000e+02,3.842689990997314453e-01,1.629624843597412109e+00,2.595790743660925659e-01,0.000000000000000000e+00,1.000000000000000000e+00,1.120000000000000000e+02
0.000000000000000000e+00,1.000000000000000000e+00,0.000000000000000000e+00,0.000000000000000000e+00,6.850000000000000000e+02,3.140041828155517578e-01,2.029141187667846680e+00,7.216604602241549760e-01,0.000000000000000000e+00,1.000000000000000000e+00,1.110000000000000000e+02
1.000000000000000000e+00,1.000000000000000000e+00,1.000000000000000000e+00,3.000000000000000000e+00,6.870000000000000000e+02,2.797667980194091797e-01,1.638309001922607422e+00,3.604557395669767961e-01,0.000000000000000000e+00,1.000000000000000000e+00,1.120000000000000000e+02
1.000000000000000000e+00,1.000000000000000000e+00,1.000000000000000000e+00,2.000000000000000000e+00,6.880000000000000000e+02,3.264770507812500000e-01,1.613173007965087891e+00,3.070648810059415923e-01,0.000000000000000000e+00,0.000000000000000000e+00,1.120000000000000000e+02
0.000000000000000000e+00,0.000000000000000000e+00,1.000000000000000000e+00,0.000000000000000000e+00,6.870000000000000000e+02,2.988259792327880859e-01,1.641680002212524414e+00,3.487660377741644280e-01,0.000000000000000000e+00,1.000000000000000000e+00,1.110000000000000000e+02
1.000000000000000000e+00,1.000000000000000000e+00,1.000000000000000000e+00,3.000000000000000000e+00,6.890000000000000000e+02,3.989179134368896484e-01,1.901972055435180664e+00,5.006495930021965801e-01,0.000000000000000000e+00,0.000000000000000000e+00,1.110000000000000000e+02
1.000000000000000000e+00,1.000000000000000000e+00,1.000000000000000000e+00,4.000000000000000000e+00,6.920000000000000000e+02,3.009190559387207031e-01,1.754150867462158203e+00,4.549438584096006655e-01,0.000000000000000000e+00,0.000000000000000000e+00,1.110000000000000000e+02
0.000000000000000000e+00,1.000000000000000000e+00,0.000000000000000000e+00,4.000000000000000000e+00,6.950000000000000000e+02,3.040199279785156250e-01,1.878461122512817383e+00,5.833347962129187270e-01,0.000000000000000000e+00,0.000000000000000000e+00,1.110000000000000000e+02
0.000000000000000000e+00,1.000000000000000000e+00,0.000000000000000000e+00,3.000000000000000000e+00,6.970000000000000000e+02,2.698400020599365234e-01,1.823163986206054688e+00,5.566209350982898041e-01,0.000000000000000000e+00,0.000000000000000000e+00,1.110000000000000000e+02
1.000000000000000000e+00,0.000000000000000000e+00,0.000000000000000000e+00,0.000000000000000000e+00,6.960000000000000000e+02,5.180938243865966797e-01,2.257086038589477539e+00,7.469454889668774022e-01,0.000000000000000000e+00,1.000000000000000000e+00,1.120000000000000000e+02
0.000000000000000000e+00,0.000000000000000000e+00,1.000000000000000000e+00,0.000000000000000000e+00,6.950000000000000000e+02,1.401259899139404297e-01,1.592536211013793945e+00,4.731849086325336518e-01,0.000000000000000000e+00,1.000000000000000000e+00,1.110000000000000000e+02
0.000000000000000000e+00,0.000000000000000000e+00,1.000000000000000000e+00,0.000000000000000000e+00,6.940000000000000000e+02,2.852199077606201172e-01,1.962496995925903320e+00,6.855503474344872838e-01,0.000000000000000000e+00,1.000000000000000000e+00,1.120000000000000000e+02
1.000000000000000000e+00,0.000000000000000000e+00,0.000000000000000000e+00,0.000000000000000000e+00,6.930000000000000000e+02,3.506269454956054688e-01,1.705904006958007812e+00,3.585446631972410980e-01,0.000000000000000000e+00,1.000000000000000000e+00,1.110000000000000000e+02
0.000000000000000000e+00,1.000000000000000000e+00,0.000000000000000000e+00,3.000000000000000000e+00,6.950000000000000000e+02,5.446648597717285156e-01,1.862734079360961914e+00,3.214039867701767861e-01,1.000000000000000000e+00,1.000000000000000000e+00,1.120000000000000000e+02
1.000000000000000000e+00,1.000000000000000000e+00,1.000000000000000000e+00,2.000000000000000000e+00,6.960000000000000000e+02,3.671491146087646484e-01,1.707463026046752930e+00,3.455653753343189694e-01,0.000000000000000000e+00,0.000000000000000000e+00,1.120000000000000000e+02
0.000000000000000000e+00,1.000000000000000000e+00,0.000000000000000000e+00,2.000000000000000000e+00,6.970000000000000000e+02,3.221468925476074219e-01,1.668213129043579102e+00,3.638611498970769631e-01,0.000000000000000000e+00,0.000000000000000000e+00,1.120000000000000000e+02
0.000000000000000000e+00,1.000000000000000000e+00,0.000000000000000000e+00,3.000000000000000000e+00,6.990000000000000000e+02,2.675561904907226562e-01,1.670224905014038086e+00,4.174113345895522631e-01,0.000000000000000000e+00,0.000000000000000000e+00,1.120000000000000000e+02
0.000000000000000000e+00,0.000000000000000000e+00,1.000000000000000000e+00,0.000000000000000000e+00,6.980000000000000000e+02,2.532498836517333984e-01,1.921346902847290039e+00,6.719354461257083244e-01,0.000000000000000000e+00,1.000000000000000000e+00,1.110000000000000000e+02
0.000000000000000000e+00,0.000000000000000000e+00,1.000000000000000000e+00,0.000000000000000000e+00,6.970000000000000000e+02,2.566080093383789062e-01,1.976719141006469727e+00,7.319644872817908654e-01,0.000000000000000000e+00,1.000000000000000000e+00,1.120000000000000000e+02
1.000000000000000000e+00,0.000000000000000000e+00,0.000000000000000000e+00,0.000000000000000000e+00,6.960000000000000000e+02,2.534499168395996094e-01,1.601501941680908203e+00,3.506512500581377978e-01,0.000000000000000000e+00,0.000000000000000000e+00,1.120000000000000000e+02
0.000000000000000000e+00,1.000000000000000000e+00,0.000000000000000000e+00,3.000000000000000000e+00,6.980000000000000000e+02,4.204339981079101562e-01,1.966874122619628906e+00,5.507337053761027779e-01,0.000000000000000000e+00,0.000000000000000000e+00,1.120000000000000000e+02
0.000000000000000000e+00,1.000000000000000000e+00,0.000000000000000000e+00,0.000000000000000000e+00,6.980000000000000000e+02,4.782295227050781250e-02,5.836081027984619141e+00,6.702664619847964467e-01,-2.000000000000000000e+00,-2.000000000000000000e+00,1.120000000000000000e+02
0.000000000000000000e+00,1.000000000000000000e+00,0.000000000000000000e+00,3.000000000000000000e+00,7.000000000000000000e+02,3.428587913513183594e-01,1.741722822189331055e+00,4.123445125673701472e-01,0.000000000000000000e+00,0.000000000000000000e+00,1.120000000000000000e+02
1.000000000000000000e+00,1.000000000000000000e+00,1.000000000000000000e+00,3.000000000000000000e+00,7.020000000000000000e+02,2.965619564056396484e-01,2.010052919387817383e+00,7.221602410568465080e-01,0.000000000000000000e+00,0.000000000000000000e+00,1.120000000000000000e+02
0.000000000000000000e+00,1.000000000000000000e+00,0.000000000000000000e+00,2.000000000000000000e+00,7.030000000000000000e+02,5.190248489379882812e-01,2.191499948501586914e+00,6.804716415989402467e-01,0.000000000000000000e+00,1.000000000000000000e+00,1.110000000000000000e+02
0.000000000000000000e+00,1.000000000000000000e+00,0.000000000000000000e+00,3.000000000000000000e+00,7.050000000000000000e+02,2.747929096221923828e-01,1.522154092788696289e+00,2.698109639006646687e-01,0.000000000000000000e+00,0.000000000000000000e+00,1.110000000000000000e+02
1.000000000000000000e+00,0.000000000000000000e+00,0.000000000000000000e+00,0.000000000000000000e+00,7.040000000000000000e+02,3.395068645477294922e-01,2.014120101928710938e+00,6.835383478016441305e-01,0.000000000000000000e+00,1.000000000000000000e+00,1.120000000000000000e+02
0.000000000000000000e+00,0.000000000000000000e+00,1.000000000000000000e+00,0.000000000000000000e+00,7.030000000000000000e+02,2.718141078948974609e-01,1.678314924240112305e+00,4.122565214004512701e-01,0.000000000000000000e+00,1.000000000000000000e+00,1.110000000000000000e+02
0.000000000000000000e+00,0.000000000000000000e+00,1.000000000000000000e+00,0.000000000000000000e+00,7.020000000000000000e+02,2.702448368072509766e-01,1.875540018081665039e+00,6.210014674875272700e-01,0.000000000000000000e+00,1.000000000000000000e+00,1.120000000000000000e+02
0.000000000000000000e+00,1.000000000000000000e+00,0.000000000000000000e+00,1.000000000000000000e+00,7.020000000000000000e+02,2.079439163208007812e-01,1.598191976547241211e+00,4.028198984223633206e-01,0.000000000000000000e+00,0.000000000000000000e+00,1.120000000000000000e+02
0.000000000000000000e+00,1.000000000000000000e+00,0.000000000000000000e+00,2.000000000000000000e+00,7.030000000000000000e+02,3.710010051727294922e-01,1.807013034820556641e+00,4.432497725201374195e-01,0.000000000000000000e+00,0.000000000000000000e+00,1.120000000000000000e+02
0.000000000000000000e+00,1.000000000000000000e+00,0.000000000000000000e+00,2.000000000000000000e+00,7.040000000000000000e+02,2.790460586547851562e-01,1.652631044387817383e+00,3.793081922042572662e-01,0.000000000000000000e+00,0.000000000000000000e+00,1.120000000000000000e+02
1.000000000000000000e+00,0.000000000000000000e+00,0.000000000000000000e+00,0.000000000000000000e+00,7.030000000000000000e+02,3.291339874267578125e-01,1.865410089492797852e+00,5.446281924471019220e-01,0.000000000000000000e+00,1.000000000000000000e+00,1.110000000000000000e+02
0.000000000000000000e+00,0.000000000000000000e+00,1.000000000000000000e+00,0.000000000000000000e+00,7.020000000000000000e+02,2.694909572601318359e-01,1.789280891418457031e+00,5.340280256218978838e-01,0.000000000000000000e+00,1.000000000000000000e+00,1.120000000000000000e+02
1.000000000000000000e+00,1.000000000000000000e+00,1.000000000000000000e+00,5.000000000000000000e+00,7.060000000000000000e+02,5.145769119262695312e-01,1.949055910110473633e+00,4.332378277000921707e-01,0.000000000000000000e+00,0.000000000000000000e+00,1.120000000000000000e+02
1.000000000000000000e+00,1.000000000000000000e+00,1.000000000000000000e+00,3.000000000000000000e+00,7.080000000000000000e+02,2.316250801086425781e-01,1.962707042694091797e+00,7.290677252013597620e-01,0.000000000000000000e+00,0.000000000000000000e+00,1.120000000000000000e+02
1.000000000000000000e+00,1.000000000000000000e+00,1.000000000000000000e+00,2.000000000000000000e+00,7.090000000000000000e+02,2.827451229095458984e-01,1.831485986709594727e+00,5.608176156463799966e-01,0.000000000000000000e+00,0.000000000000000000e+00,1.120000000000000000e+02
0.000000000000000000e+00,1.000000000000000000e+00,0.000000000000000000e+00,2.000000000000000000e+00,7.100000000000000000e+02,3.114111423492431641e-01,1.980551004409790039e+00,6.912968566709309925e-01,0.000000000000000000e+00,0.000000000000000000e+00,1.120000000000000000e+02
1.000000000000000000e+00,1.000000000000000000e+00,1.000000000000000000e+00,5.000000000000000000e+00,7.140000000000000000e+02,2.641599178314208984e-01,1.628093957901000977e+00,3.698461638694084397e-01,0.000000000000000000e+00,0.000000000000000000e+00,1.120000000000000000e+02
1.000000000000000000e+00,1.000000000000000000e+00,1.000000000000000000e+00,2.000000000000000000e+00,7.150000000000000000e+02,3.518369197845458984e-01,1.822468996047973633e+00,4.755784320685443878e-01,0.000000000000000000e+00,0.000000000000000000e+00,1.120000000000000000e+02
1.000000000000000000e+00,1.000000000000000000e+00,1.000000000000000000e+00,2.000000000000000000e+00,7.160000000000000000e+02,2.562751770019531250e-01,1.506300926208496094e+00,2.655247122218700739e-01,0.000000000000000000e+00,0.000000000000000000e+00,1.120000000000000000e+02
1.000000000000000000e+00,1.000000000000000000e+00,1.000000000000000000e+00,1.000000000000000000e+00,7.160000000000000000e+02,3.147048950195312500e-01,1.602960109710693359e+00,2.852218557510688424e-01,0.000000000000000000e+00,0.000000000000000000e+00,1.120000000000000000e+02
1.000000000000000000e+00,1.000000000000000000e+00,1.000000000000000000e+00,3.000000000000000000e+00,7.180000000000000000e+02,2.727091312408447266e-01,1.917330980300903320e+00,6.521997702413835363e-01,0.000000000000000000e+00,1.000000000000000000e+00,1.110000000000000000e+02
0.000000000000000000e+00,1.000000000000000000e+00,0.000000000000000000e+00,4.000000000000000000e+00,7.210000000000000000e+02,4.041008949279785156e-01,1.977930068969726562e+00,5.803164911375640056e-01,0.000000000000000000e+00,0.000000000000000000e+00,1.110000000000000000e+02
0.000000000000000000e+00,1.000000000000000000e+00,0.000000000000000000e+00,1.000000000000000000e+00,7.210000000000000000e+02,3.315451145172119141e-01,2.055576801300048828e+00,7.358005920648869047e-01,1.000000000000000000e+00,0.000000000000000000e+00,1.110000000000000000e+02
0.000000000000000000e+00,0.000000000000000000e+00,1.000000000000000000e+00,0.000000000000000000e+00,7.200000000000000000e+02,2.550170421600341797e-01,1.568295955657958984e+00,3.212551176193066405e-01,0.000000000000000000e+00,0.000000000000000000e+00,1.110000000000000000e+02
1.000000000000000000e+00,0.000000000000000000e+00,0.000000000000000000e+00,0.000000000000000000e+00,7.190000000000000000e+02,2.742509841918945312e-01,1.536422014236450195e+00,2.745113131877728874e-01,0.000000000000000000e+00,0.000000000000000000e+00,1.110000000000000000e+02
1.000000000000000000e+00,1.000000000000000000e+00,1.000000000000000000e+00,3.000000000000000000e+00,7.210000000000000000e+02,2.730851173400878906e-01,1.559117078781127930e+00,3.003383349123540103e-01,0.000000000000000000e+00,0.000000000000000000e+00,1.110000000000000000e+02
0.000000000000000000e+00,0.000000000000000000e+00,1.000000000000000000e+00,0.000000000000000000e+00,7.200000000000000000e+02,2.134258747100830078e-01,1.935304880142211914e+00,7.186113634542798945e-01,0.000000000000000000e+00,1.000000000000000000e+00,1.120000000000000000e+02
0.000000000000000000e+00,1.000000000000000000e+00,0.000000000000000000e+00,4.000000000000000000e+00,7.230000000000000000e+02,2.262020111083984375e-01,1.476767063140869141e+00,2.626174181239441241e-01,0.000000000000000000e+00,0.000000000000000000e+00,1.120000000000000000e+02
1.000000000000000000e+00,1.000000000000000000e+00,1.000000000000000000e+00,2.000000000000000000e+00,7.240000000000000000e+02,2.905278205871582031e-01,1.884639978408813477e+00,6.136110509976392402e-01,0.000000000000000000e+00,0.000000000000000000e+00,1.120000000000000000e+02
1.000000000000000000e+00,0.000000000000000000e+00,0.000000000000000000e+00,0.000000000000000000e+00,7.230000000000000000e+02,2.663061618804931641e-01,1.695031881332397461e+00,4.421516356015859350e-01,0.000000000000000000e+00,1.000000000000000000e+00,1.110000000000000000e+02
0.000000000000000000e+00,1.000000000000000000e+00,0.000000000000000000e+00,3.000000000000000000e+00,7.250000000000000000e+02,3.203999996185302734e-01,2.017969131469726562e+00,7.099750116148566548e-01,0.000000000000000000e+00,1.000000000000000000e+00,1.120000000000000000e+02
0.000000000000000000e+00,1.000000000000000000e+00,0.000000000000000000e+00,4.000000000000000000e+00,7.280000000000000000e+02,2.468619346618652344e-01,1.564319849014282227e+00,3.248311008013661794e-01,0.000000000000000000e+00,1.000000000000000000e+00,1.110000000000000000e+02
0.000000000000000000e+00,1.000000000000000000e+00,0.000000000000000000e+00,3.000000000000000000e+00,7.300000000000000000e+02,2.951109409332275391e-01,1.678195953369140625e+00,3.863636942944018715e-01,0.000000000000000000e+00,1.000000000000000000e+00,1.120000000000000000e+02
0.000000000000000000e+00,1.000000000000000000e+00,0.000000000000000000e+00,3.000000000000000000e+00,7.320000000000000000e+02,2.268509864807128906e-01,1.498642921447753906e+00,2.851880433594051745e-01,0.000000000000000000e+00,0.000000000000000000e+00,1.120000000000000000e+02
0.000000000000000000e+00,1.000000000000000000e+00,0.000000000000000000e+00,4.000000000000000000e+00,7.350000000000000000e+02,3.149778842926025391e-01,1.580116033554077148e+00,2.654040130043888723e-01,0.000000000000000000e+00,0.000000000000000000e+00,1.120000000000000000e+02
0.000000000000000000e+00,0.000000000000000000e+00,1.000000000000000000e+00,0.000000000000000000e+00,7.340000000000000000e+02,2.642819881439208984e-01,1.869240045547485352e+00,6.176484321396418231e-01,0.000000000000000000e+00,1.000000000000000000e+00,1.110000000000000000e+02
1.000000000000000000e+00,0.000000000000000000e+00,0.000000000000000000e+00,0.000000000000000000e+00,7.330000000000000000e+02,2.670750617980957031e-01,1.804755926132202148e+00,5.392591727568220028e-01,0.000000000000000000e+00,1.000000000000000000e+00,1.120000000000000000e+02
0.000000000000000000e+00,1.000000000000000000e+00,0.000000000000000000e+00,3.000000000000000000e+00,7.350000000000000000e+02,2.401371002197265625e-01,1.547155857086181641e+00,3.200637692261555367e-01,0.000000000000000000e+00,0.000000000000000000e+00,1.120000000000000000e+02
1.000000000000000000e+00,1.000000000000000000e+00,1.000000000000000000e+00,5.000000000000000000e+00,7.390000000000000000e+02,3.201761245727539062e-01,1.694114208221435547e+00,3.808530007548211471e-01,0.000000000000000000e+00,0.000000000000000000e+00,1.120000000000000000e+02
0.000000000000000000e+00,0.000000000000000000e+00,1.000000000000000000e+00,0.000000000000000000e+00,7.380000000000000000e+02,2.478899955749511719e-01,1.681891918182373047e+00,4.460879510824204419e-01,0.000000000000000000e+00,1.000000000000000000e+00,1.110000000000000000e+02
0.000000000000000000e+00,1.000000000000000000e+00,0.000000000000000000e+00,4.000000000000000000e+00,7.410000000000000000e+02,2.275888919830322266e-01,1.500792980194091797e+00,2.970932684546228608e-01,0.000000000000000000e+00,0.000000000000000000e+00,1.110000000000000000e+02
1.000000000000000000e+00,0.000000000000000000e+00,0.000000000000000000e+00,0.000000000000000000e+00,7.400000000000000000e+02,2.466509342193603516e-01,1.745100021362304688e+00,5.087066257842631778e-01,0.000000000000000000e+00,0.000000000000000000e+00,1.110000000000000000e+02
0.000000000000000000e+00,1.000000000000000000e+00,0.000000000000000000e+00,4.000000000000000000e+00,7.430000000000000000e+02,1.826751232147216797e-01,1.464305162429809570e+00,2.899825764138035944e-01,0.000000000000000000e+00,0.000000000000000000e+00,1.110000000000000000e+02
0.000000000000000000e+00,0.000000000000000000e+00,1.000000000000000000e+00,0.000000000000000000e+00,7.420000000000000000e+02,2.430608272552490234e-01,1.545284986495971680e+00,3.186314103536747044e-01,0.000000000000000000e+00,1.000000000000000000e+00,1.120000000000000000e+02
1.000000000000000000e+00,1.000000000000000000e+00,1.000000000000000000e+00,1.000000000000000000e+00,7.420000000000000000e+02,2.691719532012939453e-01,1.812443017959594727e+00,5.475670340060785346e-01,0.000000000000000000e+00,1.000000000000000000e+00,1.110000000000000000e+02
0.000000000000000000e+00,1.000000000000000000e+00,0.000000000000000000e+00,0.000000000000000000e+00,7.420000000000000000e+02,5.621218681335449219e-02,5.801656961441040039e+00,6.327905869222314461e-01,-2.000000000000000000e+00,-2.000000000000000000e+00,1.110000000000000000e+02
0.000000000000000000e+00,1.000000000000000000e+00,0.000000000000000000e+00,0.000000000000000000e+00,7.410000000000000000e+02,2.967410087585449219e-01,1.856000900268554688e+00,5.555983133636976934e-01,0.000000000000000000e+00,0.000000000000000000e+00,1.110000000000000000e+02
0.000000000000000000e+00,0.000000000000000000e+00,1.000000000000000000e+00,0.000000000000000000e+00,7.400000000000000000e+02,2.687890529632568359e-01,1.691942930221557617e+00,4.310811465308880264e-01,0.000000000000000000e+00,0.000000000000000000e+00,1.110000000000000000e+02
0.000000000000000000e+00,1.000000000000000000e+00,0.000000000000000000e+00,2.000000000000000000e+00,7.410000000000000000e+02,2.195219993591308594e-01,1.559655904769897461e+00,3.575461387378793265e-01,0.000000000000000000e+00,1.000000000000000000e+00,1.120000000000000000e+02
0.000000000000000000e+00,0.000000000000000000e+00,1.000000000000000000e+00,0.000000000000000000e+00,7.400000000000000000e+02,2.729399204254150391e-01,1.900761127471923828e+00,6.414068612491143906e-01,0.000000000000000000e+00,1.000000000000000000e+00,1.110000000000000000e+02
1.000000000000000000e+00,1.000000000000000000e+00,1.000000000000000000e+00,2.000000000000000000e+00,7.410000000000000000e+02,2.629818916320800781e-01,1.801311969757080078e+00,5.429092398883259563e-01,0.000000000000000000e+00,0.000000000000000000e+00,1.110000000000000000e+02
1.000000000000000000e+00,0.000000000000000000e+00,0.000000000000000000e+00,0.000000000000000000e+00,7.400000000000000000e+02,2.760548591613769531e-01,1.636758089065551758e+00,3.799247327744861846e-01,0.000000000000000000e+00,1.000000000000000000e+00,1.120000000000000000e+02
0.000000000000000000e+00,0.000000000000000000e+00,1.000000000000000000e+00,0.000000000000000000e+00,7.390000000000000000e+02,2.668061256408691406e-01,2.001514911651611328e+00,7.477900240998714976e-01,0.000000000000000000e+00,1.000000000000000000e+00,1.110000000000000000e+02
1.000000000000000000e+00,0.000000000000000000e+00,0.000000000000000000e+00,0.000000000000000000e+00,7.380000000000000000e+02,2.458219528198242188e-01,1.978438854217529297e+00,7.263310834999953114e-01,1.000000000000000000e+00,0.000000000000000000e+00,1.110000000000000000e+02
1.000000000000000000e+00,1.000000000000000000e+00,1.000000000000000000e+00,2.000000000000000000e+00,7.390000000000000000e+02,3.105218410491943359e-01,1.832073211669921875e+00,5.420423929029447585e-01,0.000000000000000000e+00,0.000000000000000000e+00,1.110000000000000000e+02
1.000000000000000000e+00,0.000000000000000000e+00,0.000000000000000000e+00,0.000000000000000000e+00,7.380000000000000000e+02,2.562708854675292969e-01,1.775631904602050781e+00,5.343888439414126168e-01,0.000000000000000000e+00,1.000000000000000000e+00,1.120000000000000000e+02
0.000000000000000000e+00,0.000000000000000000e+00,1.000000000000000000e+00,0.000000000000000000e+00,7.370000000000000000e+02,2.120239734649658203e-01,1.830013990402221680e+00,6.310822023168667361e-01,0.000000000000000000e+00,0.000000000000000000e+00,1.120000000000000000e+02
0.000000000000000000e+00,1.000000000000000000e+00,0.000000000000000000e+00,4.000000000000000000e+00,7.400000000000000000e+02,2.544608116149902344e-01,1.645522117614746094e+00,4.102150227393726589e-01,0.000000000000000000e+00,0.000000000000000000e+00,1.120000000000000000e+02
1.000000000000000000e+00,1.000000000000000000e+00,1.000000000000000000e+00,3.000000000000000000e+00,7.420000000000000000e+02,2.934908866882324219e-01,1.773655891418457031e+00,5.005554224819941389e-01,0.000000000000000000e+00,0.000000000000000000e+00,1.120000000000000000e+02
0.000000000000000000e+00,0.000000000000000000e+00,1.000000000000000000e+00,0.000000000000000000e+00,7.410000000000000000e+02,2.372221946716308594e-01,1.754796028137207031e+00,5.220506138851987998e-01,0.000000000000000000e+00,1.000000000000000000e+00,1.110000000000000000e+02
0.000000000000000000e+00,1.000000000000000000e+00,0.000000000000000000e+00,2.000000000000000000e+00,7.420000000000000000e+02,2.252609729766845703e-01,1.845191001892089844e+00,6.338678306541128959e-01,0.000000000000000000e+00,0.000000000000000000e+00,1.110000000000000000e+02
0.000000000000000000e+00,1.000000000000000000e+00,0.000000000000000000e+00,3.000000000000000000e+00,7.440000000000000000e+02,3.901319503784179688e-01,4.323546171188354492e+00,6.409784619092382396e-01,1.000000000000000000e+00,1.000000000000000000e+00,1.120000000000000000e+02
0.000000000000000000e+00,1.000000000000000000e+00,0.000000000000000000e+00,4.000000000000000000e+00,7.470000000000000000e+02,2.077999114990234375e-01,1.624620914459228516e+00,4.325391175908078756e-01,0.000000000000000000e+00,0.000000000000000000e+00,1.120000000000000000e+02
0.000000000000000000e+00,0.000000000000000000e+00,1.000000000000000000e+00,0.000000000000000000e+00,7.460000000000000000e+02,2.405450344085693359e-01,1.551718950271606445e+00,3.177717468888940910e-01,0.000000000000000000e+00,1.000000000000000000e+00,1.110000000000000000e+02
0.000000000000000000e+00,1.000000000000000000e+00,0.000000000000000000e+00,2.000000000000000000e+00,7.470000000000000000e+02,2.455840110778808594e-01,1.868082046508789062e+00,6.189409561108853985e-01,0.000000000000000000e+00,0.000000000000000000e+00,1.110000000000000000e+02
0.000000000000000000e+00,1.000000000000000000e+00,0.000000000000000000e+00,2.000000000000000000e+00,7.480000000000000000e+02,2.700748443603515625e-01,1.757774114608764648e+00,4.935937713541058702e-01,0.000000000000000000e+00,0.000000000000000000e+00,1.110000000000000000e+02
1.000000000000000000e+00,0.000000000000000000e+00,0.000000000000000000e+00,0.000000000000000000e+00,7.470000000000000000e+02,2.400228977203369141e-01,1.682163000106811523e+00,4.591785438122831242e-01,0.000000000000000000e+00,1.000000000000000000e+00,1.120000000000000000e+02
1.000000000000000000e+00,0.000000000000000000e+00,0.000000000000000000e+00,0.000000000000000000e+00,7.460000000000000000e+02,2.857909202575683594e-01,1.613984107971191406e+00,3.400588541089938355e-01,0.000000000000000000e+00,1.000000000000000000e+00,1.110000000000000000e+02
1.000000000000000000e+00,0.000000000000000000e+00,0.000000000000000000e+00,0.000000000000000000e+00,7.450000000000000000e+02,3.071689605712890625e-01,1.876806974411010742e+00,5.833469348823491218e-01,0.000000000000000000e+00,1.000000000000000000e+00,1.120000000000000000e+02
1.000000000000000000e+00,1.000000000000000000e+00,1.000000000000000000e+00,3.000000000000000000e+00,7.470000000000000000e+02,3.579089641571044922e-01,2.053886890411376953e+00,7.038554393402076670e-01,0.000000000000000000e+00,0.000000000000000000e+00,1.120000000000000000e+02
0.000000000000000000e+00,1.000000000000000000e+00,0.000000000000000000e+00,2.000000000000000000e+00,7.480000000000000000e+02,3.039579391479492188e-01,1.765163898468017578e+00,4.693714454700450567e-01,0.000000000000000000e+00,0.000000000000000000e+00,1.120000000000000000e+02
1.000000000000000000e+00,1.000000000000000000e+00,1.000000000000000000e+00,1.000000000000000000e+00,7.480000000000000000e+02,2.623128890991210938e-01,1.906746149063110352e+00,6.593289496434386887e-01,0.000000000000000000e+00,0.000000000000000000e+00,1.120000000000000000e+02
1.000000000000000000e+00,1.000000000000000000e+00,1.000000000000000000e+00,4.000000000000000000e+00,7.510000000000000000e+02,2.954208850860595703e-01,2.027334928512573242e+00,7.366728955049948180e-01,0.000000000000000000e+00,0.000000000000000000e+00,1.120000000000000000e+02
0.000000000000000000e+00,0.000000000000000000e+00,1.000000000000000000e+00,0.000000000000000000e+00,7.500000000000000000e+02,2.651669979095458984e-01,1.935722112655639648e+00,6.725449796302820360e-01,0.000000000000000000e+00,1.000000000000000000e+00,1.110000000000000000e+02
1.000000000000000000e+00,0.000000000000000000e+00,0.000000000000000000e+00,0.000000000000000000e+00,7.490000000000000000e+02,2.869651317596435547e-01,1.741653919219970703e+00,4.645164685456249498e-01,0.000000000000000000e+00,1.000000000000000000e+00,1.120000000000000000e+02
1.000000000000000000e+00,1.000000000000000000e+00,1.000000000000000000e+00,2.000000000000000000e+00,7.500000000000000000e+02,3.306369781494140625e-01,1.692162990570068359e+00,3.735200796995918338e-01,0.000000000000000000e+00,1.000000000000000000e+00,1.110000000000000000e+02
0.000000000000000000e+00,0.000000000000000000e+00,1.000000000000000000e+00,0.000000000000000000e+00,7.490000000000000000e+02,6.133439540863037109e-01,1.991953849792480469e+00,3.822209239113392165e-01,0.000000000000000000e+00,1.000000000000000000e+00,1.120000000000000000e+02
1.000000000000000000e+00,1.000000000000000000e+00,1.000000000000000000e+00,0.000000000000000000e+00,7.480000000000000000e+02,3.587720394134521484e-01,1.812983989715576172e+00,4.618874222828577292e-01,0.000000000000000000e+00,0.000000000000000000e+00,1.120000000000000000e+02
1.000000000000000000e+00,0.000000000000000000e+00,0.000000000000000000e+00,0.000000000000000000e+00,7.470000000000000000e+02,2.748930454254150391e-01,1.889481782913208008e+00,6.346030871984360555e-01,0.000000000000000000e+00,0.000000000000000000e+00,1.120000000000000000e+02
1.000000000000000000e+00,1.000000000000000000e+00,1.000000000000000000e+00,1.000000000000000000e+00,7.470000000000000000e+02,2.828531265258789062e-01,1.744499921798706055e+00,4.626882526188518252e-01,0.000000000000000000e+00,0.000000000000000000e+00,1.120000000000000000e+02
0.000000000000000000e+00,1.000000000000000000e+00,0.000000000000000000e+00,3.000000000000000000e+00,7.490000000000000000e+02,2.886240482330322266e-01,1.965122938156127930e+00,6.943216965834235754e-01,0.000000000000000000e+00,0.000000000000000000e+00,1.120000000000000000e+02
1.000000000000000000e+00,0.000000000000000000e+00,0.000000000000000000e+00,0.000000000000000000e+00,7.480000000000000000e+02,2.119469642639160156e-01,1.819545030593872070e+00,6.140078962602667501e-01,0.000000000000000000e+00,0.000000000000000000e+00,1.120000000000000000e+02
0.000000000000000000e+00,0.000000000000000000e+00,1.000000000000000000e+00,0.000000000000000000e+00,7.470000000000000000e+02,3.494219779968261719e-01,1.659422874450683594e+00,3.238351327340223684e-01,1.000000000000000000e+00,1.000000000000000000e+00,1.110000000000000000e+02
0.000000000000000000e+00,0.000000000000000000e+00,1.000000000000000000e+00,0.000000000000000000e+00,7.460000000000000000e+02,6.047999858856201172e-01,1.914160013198852539e+00,3.214066019838618948e-01,0.000000000000000000e+00,0.000000000000000000e+00,1.110000000000000000e+02
1.000000000000000000e+00,0.000000000000000000e+00,0.000000000000000000e+00,0.000000000000000000e+00,7.450000000000000000e+02,3.182389736175537109e-01,1.568176031112670898e+00,2.563728565607212295e-01,0.000000000000000000e+00,0.000000000000000000e+00,1.110000000000000000e+02
0.000000000000000000e+00,0.000000000000000000e+00,1.000000000000000000e+00,0.000000000000000000e+00,7.440000000000000000e+02,3.266570568084716797e-01,1.994549036026000977e+00,6.839274080130854916e-01,0.000000000000000000e+00,0.000000000000000000e+00,1.110000000000000000e+02
1.000000000000000000e+00,1.000000000000000000e+00,1.000000000000000000e+00,2.000000000000000000e+00,7.450000000000000000e+02,2.877881526947021484e-01,1.714065074920654297e+00,4.316545411150014000e-01,0.000000000000000000e+00,0.000000000000000000e+00,1.110000000000000000e+02
0.000000000000000000e+00,0.000000000000000000e+00,1.000000000000000000e+00,0.000000000000000000e+00,7.440000000000000000e+02,2.667369842529296875e-01,1.672107934951782227e+00,4.205270599971923096e-01,0.000000000000000000e+00,1.000000000000000000e+00,1.120000000000000000e+02
1.000000000000000000e+00,1.000000000000000000e+00,1.000000000000000000e+00,1.000000000000000000e+00,7.440000000000000000e+02,3.064789772033691406e-01,1.829710006713867188e+00,5.335358538044732146e-01,0.000000000000000000e+00,0.000000000000000000e+00,1.120000000000000000e+02
0.000000000000000000e+00,0.000000000000000000e+00,1.000000000000000000e+00,0.000000000000000000e+00,7.430000000000000000e+02,2.431809902191162109e-01,1.520745038986206055e+00,2.879407337409495837e-01,0.000000000000000000e+00,1.000000000000000000e+00,1.110000000000000000e+02
0.000000000000000000e+00,1.000000000000000000e+00,0.000000000000000000e+00,0.000000000000000000e+00,7.420000000000000000e+02,3.215739727020263672e-01,1.691069841384887695e+00,3.789978635516468852e-01,0.000000000000000000e+00,1.000000000000000000e+00,1.120000000000000000e+02
1.000000000000000000e+00,1.000000000000000000e+00,1.000000000000000000e+00,2.000000000000000000e+00,7.430000000000000000e+02,2.633080482482910156e-01,1.975079059600830078e+00,7.204314672490044202e-01,0.000000000000000000e+00,0.000000000000000000e+00,1.120000000000000000e+02
1.000000000000000000e+00,1.000000000000000000e+00,1.000000000000000000e+00,4.000000000000000000e+00,7.460000000000000000e+02,4.520509243011474609e-01,2.099193096160888672e+00,6.531344307978556030e-01,0.000000000000000000e+00,0.000000000000000000e+00,1.120000000000000000e+02
0.000000000000000000e+00,1.000000000000000000e+00,0.000000000000000000e+00,4.000000000000000000e+00,7.490000000000000000e+02,3.251700401306152344e-01,1.857696056365966797e+00,5.443676880430625697e-01,0.000000000000000000e+00,1.000000000000000000e+00,1.110000000000000000e+02
1.000000000000000000e+00,1.000000000000000000e+00,1.000000000000000000e+00,4.000000000000000000e+00,7.520000000000000000e+02,2.731668949127197266e-01,1.684759855270385742e+00,4.293274809125137148e-01,0.000000000000000000e+00,0.000000000000000000e+00,1.110000000000000000e+02
1.000000000000000000e+00,1.000000000000000000e+00,1.000000000000000000e+00,2.000000000000000000e+00,7.530000000000000000e+02,3.589041233062744141e-01,1.884750127792358398e+00,5.473651925390903283e-01,0.000000000000000000e+00,0.000000000000000000e+00,1.110000000000000000e+02
0.000000000000000000e+00,0.000000000000000000e+00,1.000000000000000000e+00,0.000000000000000000e+00,7.520000000000000000e+02,2.726569175720214844e-01,1.961281061172485352e+00,7.085733062850790853e-01,0.000000000000000000e+00,1.000000000000000000e+00,1.120000000000000000e+02
1.000000000000000000e+00,1.000000000000000000e+00,1.000000000000000000e+00,2.000000000000000000e+00,7.530000000000000000e+02,2.681140899658203125e-01,1.707712888717651367e+00,4.499848663149923489e-01,0.000000000000000000e+00,0.000000000000000000e+00,1.120000000000000000e+02
0.000000000000000000e+00,0.000000000000000000e+00,1.000000000000000000e+00,0.000000000000000000e+00,7.520000000000000000e+02,3.113291263580322266e-01,1.969586133956909180e+00,6.694288342816533399e-01,0.000000000000000000e+00,1.000000000000000000e+00,1.110000000000000000e+02
0.000000000000000000e+00,0.000000000000000000e+00,1.000000000000000000e+00,0.000000000000000000e+00,7.510000000000000000e+02,2.827410697937011719e-01,2.024941921234130859e+00,7.446881158268801038e-01,0.000000000000000000e+00,1.000000000000000000e+00,1.120000000000000000e+02
1.000000000000000000e+00,0.000000000000000000e+00,0.000000000000000000e+00,0.000000000000000000e+00,7.500000000000000000e+02,3.082280158996582031e-01,1.574547052383422852e+00,2.861533605750276599e-01,0.000000000000000000e+00,0.000000000000000000e+00,1.120000000000000000e+02
0.000000000000000000e+00,1.000000000000000000e+00,0.000000000000000000e+00,3.000000000000000000e+00,7.520000000000000000e+02,3.099620342254638672e-01,2.046039104461669922e+00,7.484666497859212564e-01,0.000000000000000000e+00,1.000000000000000000e+00,1.110000000000000000e+02
1.000000000000000000e+00,0.000000000000000000e+00,0.000000000000000000e+00,0.000000000000000000e+00,7.510000000000000000e+02,2.891349792480468750e-01,2.010922908782958984e+00,7.261512567311112498e-01,0.000000000000000000e+00,1.000000000000000000e+00,1.120000000000000000e+02
0.000000000000000000e+00,0.000000000000000000e+00,1.000000000000000000e+00,0.000000000000000000e+00,7.500000000000000000e+02,3.360021114349365234e-01,1.993830919265747070e+00,6.701549237686049709e-01,0.000000000000000000e+00,0.000000000000000000e+00,1.120000000000000000e+02
0.000000000000000000e+00,1.000000000000000000e+00,0.000000000000000000e+00,2.000000000000000000e+00,7.510000000000000000e+02,2.291178703308105469e-01,1.739597082138061523e+00,5.099757973731278149e-01,0.000000000000000000e+00,1.000000000000000000e+00,1.110000000000000000e+02
0.000000000000000000e+00,1.000000000000000000e+00,0.000000000000000000e+00,3.000000000000000000e+00,7.530000000000000000e+02,3.198759555816650391e-01,1.925386905670166016e+00,6.186621080060451527e-01,0.000000000000000000e+00,0.000000000000000000e+00,1.110000000000000000e+02
1.000000000000000000e+00,0.000000000000000000e+00,0.000000000000000000e+00,0.000000000000000000e+00,7.520000000000000000e+02,2.966318130493164062e-01,1.990761041641235352e+00,6.928033321784886622e-01,0.000000000000000000e+00,1.000000000000000000e+00,1.120000000000000000e+02
1.000000000000000000e+00,0.000000000000000000e+00,0.000000000000000000e+00,0.000000000000000000e+00,7.510000000000000000e+02,2.743780612945556641e-01,1.514826059341430664e+00,2.581333137883073947e-01,0.000000000000000000e+00,1.000000000000000000e+00,1.110000000000000000e+02
0.000000000000000000e+00,0.000000000000000000e+00,1.000000000000000000e+00,0.000000000000000000e+00,7.500000000000000000e+02,2.587490081787109375e-01,1.859816074371337891e+00,6.176576460081089071e-01,0.000000000000000000e+00,0.000000000000000000e+00,1.110000000000000000e+02
0.000000000000000000e+00,1.000000000000000000e+00,0.000000000000000000e+00,2.000000000000000000e+00,7.510000000000000000e+02,2.000789642333984375e-01,1.628288984298706055e+00,4.295089039930192754e-01,0.000000000000000000e+00,0.000000000000000000e+00,1.110000000000000000e+02
0.000000000000000000e+00,0.000000000000000000e+00,1.000000000000000000e+00,0.000000000000000000e+00,7.500000000000000000e+02,2.493810653686523438e-01,1.946027994155883789e+00,7.086659036957874136e-01,0.000000000000000000e+00,1.000000000000000000e+00,1.120000000000000000e+02
1.000000000000000000e+00,0.000000000000000000e+00,0.000000000000000000e+00,0.000000000000000000e+00,7.490000000000000000e+02,2.516870498657226562e-01,1.582181930541992188e+00,3.413588548241408560e-01,0.000000000000000000e+00,1.000000000000000000e+00,1.110000000000000000e+02
0.000000000000000000e+00,1.000000000000000000e+00,0.000000000000000000e+00,4.000000000000000000e+00,7.520000000000000000e+02,4.519751071929931641e-01,1.907444000244140625e+00,4.654225961299620629e-01,0.000000000000000000e+00,0.000000000000000000e+00,1.110000000000000000e+02
0.000000000000000000e+00,0.000000000000000000e+00,1.000000000000000000e+00,0.000000000000000000e+00,7.510000000000000000e+02,3.377289772033691406e-01,1.671458959579467773e+00,3.370892989219538838e-01,0.000000000000000000e+00,1.000000000000000000e+00,1.120000000000000000e+02
0.000000000000000000e+00,1.000000000000000000e+00,0.000000000000000000e+00,1.000000000000000000e+00,7.510000000000000000e+02,2.891211509704589844e-01,1.711807966232299805e+00,4.321918652360374202e-01,0.000000000000000000e+00,1.000000000000000000e+00,1.110000000000000000e+02
1.000000000000000000e+00,0.000000000000000000e+00,0.000000000000000000e+00,0.000000000000000000e+00,7.500000000000000000e+02,3.024840354919433594e-01,1.760174036026000977e+00,4.590930086274589983e-01,0.000000000000000000e+00,0.000000000000000000e+00,1.110000000000000000e+02
0.000000000000000000e+00,1.000000000000000000e+00,0.000000000000000000e+00,3.000000000000000000e+00,7.520000000000000000e+02,2.585759162902832031e-01,1.498439073562622070e+00,2.578255130312505639e-01,1.000000000000000000e+00,0.000000000000000000e+00,1.110000000000000000e+02
0.000000000000000000e+00,0.000000000000000000e+00,1.000000000000000000e+00,0.000000000000000000e+00,7.510000000000000000e+02,2.347030639648437500e-01,1.490274906158447266e+00,2.648263103525228535e-01,0.000000000000000000e+00,1.000000000000000000e+00,1.120000000000000000e+02
0.000000000000000000e+00,1.000000000000000000e+00,0.000000000000000000e+00,1.000000000000000000e+00,7.510000000000000000e+02,3.263828754425048828e-01,1.831291913986206055e+00,5.125958853880417943e-01,0.000000000000000000e+00,0.000000000000000000e+00,1.120000000000000000e+02
