choice, accuracy, solution,  reward, cumulative_reward, rt,  total_trial_time, iti, cp_with_slow_fast, obs_cp_with_slow_fast, high_val_cue
1.000000000000000000e+00,1.000000000000000000e+00,1.000000000000000000e+00,3.000000000000000000e+00,6.020000000000000000e+02,4.038269519805908203e-01,1.861339092254638672e+00,4.630437052409661636e-01,0.000000000000000000e+00,0.000000000000000000e+00,1.120000000000000000e+02
1.000000000000000000e+00,1.000000000000000000e+00,1.000000000000000000e+00,5.000000000000000000e+00,6.060000000000000000e+02,3.519320487976074219e-01,2.007265090942382812e+00,6.701860947278110991e-01,0.000000000000000000e+00,0.000000000000000000e+00,1.120000000000000000e+02
1.000000000000000000e+00,1.000000000000000000e+00,1.000000000000000000e+00,1.000000000000000000e+00,6.060000000000000000e+02,2.893240451812744141e-01,1.803412914276123047e+00,5.238024234949094637e-01,0.000000000000000000e+00,0.000000000000000000e+00,1.120000000000000000e+02
0.000000000000000000e+00,0.000000000000000000e+00,1.000000000000000000e+00,0.000000000000000000e+00,6.050000000000000000e+02,2.893931865692138672e-01,1.754763126373291016e+00,4.786884435342496635e-01,0.000000000000000000e+00,1.000000000000000000e+00,1.110000000000000000e+02
0.000000000000000000e+00,0.000000000000000000e+00,1.000000000000000000e+00,0.000000000000000000e+00,6.040000000000000000e+02,3.034460544586181641e-01,1.912801027297973633e+00,6.247294745299399876e-01,0.000000000000000000e+00,1.000000000000000000e+00,1.120000000000000000e+02
1.000000000000000000e+00,1.000000000000000000e+00,1.000000000000000000e+00,3.000000000000000000e+00,6.060000000000000000e+02,2.958610057830810547e-01,1.704469919204711914e+00,4.127979592658178043e-01,0.000000000000000000e+00,0.000000000000000000e+00,1.120000000000000000e+02
0.000000000000000000e+00,1.000000000000000000e+00,0.000000000000000000e+00,2.000000000000000000e+00,6.070000000000000000e+02,3.159101009368896484e-01,1.804647922515869141e+00,5.007566295561065584e-01,0.000000000000000000e+00,0.000000000000000000e+00,1.120000000000000000e+02
1.000000000000000000e+00,1.000000000000000000e+00,1.000000000000000000e+00,2.000000000000000000e+00,6.080000000000000000e+02,2.592661380767822266e-01,1.697088956832885742e+00,4.479510017457606907e-01,0.000000000000000000e+00,0.000000000000000000e+00,1.120000000000000000e+02
1.000000000000000000e+00,1.000000000000000000e+00,1.000000000000000000e+00,4.000000000000000000e+00,6.110000000000000000e+02,2.810490131378173828e-01,1.687397956848144531e+00,4.187953396087230606e-01,0.000000000000000000e+00,0.000000000000000000e+00,1.120000000000000000e+02
1.000000000000000000e+00,0.000000000000000000e+00,0.000000000000000000e+00,0.000000000000000000e+00,6.100000000000000000e+02,2.921049594879150391e-01,1.826828956604003906e+00,5.455426217527628019e-01,1.000000000000000000e+00,1.000000000000000000e+00,1.110000000000000000e+02
1.000000000000000000e+00,1.000000000000000000e+00,1.000000000000000000e+00,3.000000000000000000e+00,6.120000000000000000e+02,2.895081043243408203e-01,1.939037084579467773e+00,6.678702513424628062e-01,0.000000000000000000e+00,0.000000000000000000e+00,1.110000000000000000e+02
0.000000000000000000e+00,1.000000000000000000e+00,0.000000000000000000e+00,1.000000000000000000e+00,6.120000000000000000e+02,2.165520191192626953e-01,1.774991035461425781e+00,5.596843808860543223e-01,0.000000000000000000e+00,0.000000000000000000e+00,1.110000000000000000e+02
0.000000000000000000e+00,1.000000000000000000e+00,0.000000000000000000e+00,2.000000000000000000e+00,6.130000000000000000e+02,3.060979843139648438e-01,1.636835098266601562e+00,3.468244346884937213e-01,0.000000000000000000e+00,0.000000000000000000e+00,1.110000000000000000e+02
0.000000000000000000e+00,1.000000000000000000e+00,0.000000000000000000e+00,2.000000000000000000e+00,6.140000000000000000e+02,3.176710605621337891e-01,1.901269912719726562e+00,5.979077307242626205e-01,0.000000000000000000e+00,0.000000000000000000e+00,1.110000000000000000e+02
1.000000000000000000e+00,1.000000000000000000e+00,1.000000000000000000e+00,1.000000000000000000e+00,6.140000000000000000e+02,2.936391830444335938e-01,1.976665973663330078e+00,7.078652915939918078e-01,0.000000000000000000e+00,0.000000000000000000e+00,1.110000000000000000e+02
0.000000000000000000e+00,1.000000000000000000e+00,0.000000000000000000e+00,3.000000000000000000e+00,6.160000000000000000e+02,2.644619941711425781e-01,1.774276018142700195e+00,5.157233034325805487e-01,0.000000000000000000e+00,0.000000000000000000e+00,1.110000000000000000e+02
1.000000000000000000e+00,1.000000000000000000e+00,1.000000000000000000e+00,3.000000000000000000e+00,6.180000000000000000e+02,2.651610374450683594e-01,1.844098091125488281e+00,5.764991540659907265e-01,0.000000000000000000e+00,0.000000000000000000e+00,1.110000000000000000e+02
1.000000000000000000e+00,1.000000000000000000e+00,1.000000000000000000e+00,3.000000000000000000e+00,6.200000000000000000e+02,3.269340991973876953e-01,1.880964994430541992e+00,5.742069241289911030e-01,0.000000000000000000e+00,0.000000000000000000e+00,1.110000000000000000e+02
1.000000000000000000e+00,1.000000000000000000e+00,1.000000000000000000e+00,2.000000000000000000e+00,6.210000000000000000e+02,3.156151771545410156e-01,1.883258819580078125e+00,5.742040045892229383e-01,0.000000000000000000e+00,0.000000000000000000e+00,1.110000000000000000e+02
0.000000000000000000e+00,1.000000000000000000e+00,0.000000000000000000e+00,3.000000000000000000e+00,6.230000000000000000e+02,3.893640041351318359e-01,2.121833086013793945e+00,7.459629596449834921e-01,0.000000000000000000e+00,0.000000000000000000e+00,1.110000000000000000e+02
0.000000000000000000e+00,0.000000000000000000e+00,1.000000000000000000e+00,0.000000000000000000e+00,6.220000000000000000e+02,2.778561115264892578e-01,1.975960969924926758e+00,7.219888765693599497e-01,0.000000000000000000e+00,1.000000000000000000e+00,1.120000000000000000e+02
1.000000000000000000e+00,0.000000000000000000e+00,0.000000000000000000e+00,0.000000000000000000e+00,6.210000000000000000e+02,2.726619243621826172e-01,1.906372070312500000e+00,6.451989764650215564e-01,0.000000000000000000e+00,1.000000000000000000e+00,1.110000000000000000e+02
0.000000000000000000e+00,1.000000000000000000e+00,0.000000000000000000e+00,2.000000000000000000e+00,6.220000000000000000e+02,3.285839557647705078e-01,1.749737024307250977e+00,4.452026976881958698e-01,0.000000000000000000e+00,0.000000000000000000e+00,1.110000000000000000e+02
1.000000000000000000e+00,1.000000000000000000e+00,1.000000000000000000e+00,3.000000000000000000e+00,6.240000000000000000e+02,4.286329746246337891e-01,2.120349168777465820e+00,6.987280919157501380e-01,0.000000000000000000e+00,0.000000000000000000e+00,1.110000000000000000e+02
1.000000000000000000e+00,0.000000000000000000e+00,0.000000000000000000e+00,0.000000000000000000e+00,6.230000000000000000e+02,3.363499641418457031e-01,1.746947765350341797e+00,4.126412685666049351e-01,0.000000000000000000e+00,1.000000000000000000e+00,1.120000000000000000e+02
0.000000000000000000e+00,0.000000000000000000e+00,1.000000000000000000e+00,0.000000000000000000e+00,6.220000000000000000e+02,3.360528945922851562e-01,1.730154991149902344e+00,4.095614180118174463e-01,0.000000000000000000e+00,1.000000000000000000e+00,1.110000000000000000e+02
0.000000000000000000e+00,0.000000000000000000e+00,1.000000000000000000e+00,0.000000000000000000e+00,6.210000000000000000e+02,5.057919025421142578e-01,1.975035905838012695e+00,4.845878632591172352e-01,0.000000000000000000e+00,0.000000000000000000e+00,1.110000000000000000e+02
1.000000000000000000e+00,1.000000000000000000e+00,1.000000000000000000e+00,1.000000000000000000e+00,6.210000000000000000e+02,2.946181297302246094e-01,1.927524089813232422e+00,6.453397323389433726e-01,0.000000000000000000e+00,0.000000000000000000e+00,1.110000000000000000e+02
0.000000000000000000e+00,0.000000000000000000e+00,1.000000000000000000e+00,0.000000000000000000e+00,6.200000000000000000e+02,2.869870662689208984e-01,1.953175067901611328e+00,6.818726448455457723e-01,1.000000000000000000e+00,1.000000000000000000e+00,1.120000000000000000e+02
0.000000000000000000e+00,1.000000000000000000e+00,0.000000000000000000e+00,2.000000000000000000e+00,6.210000000000000000e+02,2.914621829986572266e-01,1.795336008071899414e+00,5.108040856767874782e-01,0.000000000000000000e+00,0.000000000000000000e+00,1.120000000000000000e+02
1.000000000000000000e+00,1.000000000000000000e+00,1.000000000000000000e+00,2.000000000000000000e+00,6.220000000000000000e+02,3.551421165466308594e-01,2.025294065475463867e+00,6.860097706522385597e-01,0.000000000000000000e+00,0.000000000000000000e+00,1.120000000000000000e+02
0.000000000000000000e+00,1.000000000000000000e+00,0.000000000000000000e+00,3.000000000000000000e+00,6.240000000000000000e+02,2.438988685607910156e-01,1.605099916458129883e+00,3.748180194338032178e-01,0.000000000000000000e+00,0.000000000000000000e+00,1.120000000000000000e+02
0.000000000000000000e+00,1.000000000000000000e+00,0.000000000000000000e+00,2.000000000000000000e+00,6.250000000000000000e+02,3.179419040679931641e-01,1.852297067642211914e+00,5.436899243103454626e-01,0.000000000000000000e+00,0.000000000000000000e+00,1.120000000000000000e+02
1.000000000000000000e+00,1.000000000000000000e+00,1.000000000000000000e+00,2.000000000000000000e+00,6.260000000000000000e+02,2.699711322784423828e-01,1.641988992691040039e+00,3.858694537886709908e-01,0.000000000000000000e+00,0.000000000000000000e+00,1.120000000000000000e+02
0.000000000000000000e+00,1.000000000000000000e+00,0.000000000000000000e+00,3.000000000000000000e+00,6.280000000000000000e+02,2.831649780273437500e-01,1.535864114761352539e+00,2.552505728549696040e-01,0.000000000000000000e+00,0.000000000000000000e+00,1.120000000000000000e+02
1.000000000000000000e+00,0.000000000000000000e+00,0.000000000000000000e+00,0.000000000000000000e+00,6.270000000000000000e+02,3.267898559570312500e-01,1.716716051101684570e+00,3.885870959889658471e-01,0.000000000000000000e+00,1.000000000000000000e+00,1.110000000000000000e+02
1.000000000000000000e+00,0.000000000000000000e+00,0.000000000000000000e+00,0.000000000000000000e+00,6.260000000000000000e+02,3.502299785614013672e-01,1.706568002700805664e+00,3.619081844583747487e-01,0.000000000000000000e+00,0.000000000000000000e+00,1.110000000000000000e+02
0.000000000000000000e+00,1.000000000000000000e+00,0.000000000000000000e+00,4.000000000000000000e+00,6.290000000000000000e+02,3.212409019470214844e-01,1.851114034652709961e+00,5.462072085820495193e-01,0.000000000000000000e+00,1.000000000000000000e+00,1.120000000000000000e+02
0.000000000000000000e+00,1.000000000000000000e+00,0.000000000000000000e+00,1.000000000000000000e+00,6.290000000000000000e+02,2.913300991058349609e-01,1.561560153961181641e+00,2.914652994166513911e-01,0.000000000000000000e+00,0.000000000000000000e+00,1.120000000000000000e+02
0.000000000000000000e+00,1.000000000000000000e+00,0.000000000000000000e+00,3.000000000000000000e+00,6.310000000000000000e+02,5.986981391906738281e-01,2.190727949142456055e+00,5.986015732872166373e-01,0.000000000000000000e+00,0.000000000000000000e+00,1.120000000000000000e+02
0.000000000000000000e+00,0.000000000000000000e+00,1.000000000000000000e+00,0.000000000000000000e+00,6.300000000000000000e+02,3.338050842285156250e-01,1.761224985122680664e+00,4.266940561359282569e-01,0.000000000000000000e+00,1.000000000000000000e+00,1.110000000000000000e+02
0.000000000000000000e+00,0.000000000000000000e+00,1.000000000000000000e+00,0.000000000000000000e+00,6.290000000000000000e+02,3.768849372863769531e-01,1.909943103790283203e+00,5.532610989750395003e-01,0.000000000000000000e+00,1.000000000000000000e+00,1.120000000000000000e+02
1.000000000000000000e+00,1.000000000000000000e+00,1.000000000000000000e+00,2.000000000000000000e+00,6.300000000000000000e+02,3.362390995025634766e-01,1.735835075378417969e+00,4.059923927658024567e-01,0.000000000000000000e+00,0.000000000000000000e+00,1.120000000000000000e+02
1.000000000000000000e+00,1.000000000000000000e+00,1.000000000000000000e+00,2.000000000000000000e+00,6.310000000000000000e+02,3.710119724273681641e-01,1.847791910171508789e+00,4.870986911676070674e-01,0.000000000000000000e+00,0.000000000000000000e+00,1.120000000000000000e+02
1.000000000000000000e+00,0.000000000000000000e+00,0.000000000000000000e+00,0.000000000000000000e+00,6.300000000000000000e+02,3.290629386901855469e-01,1.671566009521484375e+00,3.422279036666079910e-01,1.000000000000000000e+00,1.000000000000000000e+00,1.110000000000000000e+02
0.000000000000000000e+00,1.000000000000000000e+00,0.000000000000000000e+00,2.000000000000000000e+00,6.310000000000000000e+02,3.494019508361816406e-01,1.900321006774902344e+00,5.590570062108934923e-01,0.000000000000000000e+00,0.000000000000000000e+00,1.110000000000000000e+02
0.000000000000000000e+00,1.000000000000000000e+00,0.000000000000000000e+00,2.000000000000000000e+00,6.320000000000000000e+02,2.594728469848632812e-01,1.692384958267211914e+00,4.515968175227748627e-01,0.000000000000000000e+00,0.000000000000000000e+00,1.110000000000000000e+02
0.000000000000000000e+00,0.000000000000000000e+00,1.000000000000000000e+00,0.000000000000000000e+00,6.310000000000000000e+02,3.825638294219970703e-01,1.646039009094238281e+00,2.645718235640240890e-01,0.000000000000000000e+00,0.000000000000000000e+00,1.110000000000000000e+02
0.000000000000000000e+00,1.000000000000000000e+00,0.000000000000000000e+00,3.000000000000000000e+00,6.330000000000000000e+02,3.542900085449218750e-01,1.588567018508911133e+00,2.532248607162876919e-01,0.000000000000000000e+00,0.000000000000000000e+00,1.110000000000000000e+02
1.000000000000000000e+00,1.000000000000000000e+00,1.000000000000000000e+00,1.000000000000000000e+00,6.330000000000000000e+02,3.703382015228271484e-01,1.861362934112548828e+00,4.977056520757380809e-01,0.000000000000000000e+00,0.000000000000000000e+00,1.110000000000000000e+02
1.000000000000000000e+00,1.000000000000000000e+00,1.000000000000000000e+00,4.000000000000000000e+00,6.360000000000000000e+02,3.333048820495605469e-01,1.908643960952758789e+00,5.896447660504930965e-01,0.000000000000000000e+00,0.000000000000000000e+00,1.110000000000000000e+02
0.000000000000000000e+00,1.000000000000000000e+00,0.000000000000000000e+00,3.000000000000000000e+00,6.380000000000000000e+02,2.628650665283203125e-01,1.781701087951660156e+00,5.215010137949931401e-01,0.000000000000000000e+00,0.000000000000000000e+00,1.110000000000000000e+02
1.000000000000000000e+00,1.000000000000000000e+00,1.000000000000000000e+00,1.000000000000000000e+00,6.380000000000000000e+02,2.726490497589111328e-01,1.997357845306396484e+00,7.353826421767372112e-01,0.000000000000000000e+00,0.000000000000000000e+00,1.110000000000000000e+02
0.000000000000000000e+00,1.000000000000000000e+00,0.000000000000000000e+00,3.000000000000000000e+00,6.400000000000000000e+02,2.536871433258056641e-01,1.749809026718139648e+00,5.021621526865926999e-01,0.000000000000000000e+00,0.000000000000000000e+00,1.110000000000000000e+02
1.000000000000000000e+00,1.000000000000000000e+00,1.000000000000000000e+00,3.000000000000000000e+00,6.420000000000000000e+02,3.417429924011230469e-01,1.705430030822753906e+00,3.744470305234384178e-01,0.000000000000000000e+00,0.000000000000000000e+00,1.110000000000000000e+02
1.000000000000000000e+00,0.000000000000000000e+00,0.000000000000000000e+00,0.000000000000000000e+00,6.410000000000000000e+02,3.946940898895263672e-01,2.041568994522094727e+00,6.491634574109989009e-01,1.000000000000000000e+00,1.000000000000000000e+00,1.120000000000000000e+02
0.000000000000000000e+00,1.000000000000000000e+00,0.000000000000000000e+00,2.000000000000000000e+00,6.420000000000000000e+02,2.897729873657226562e-01,1.800247192382812500e+00,5.162709836669250318e-01,0.000000000000000000e+00,0.000000000000000000e+00,1.120000000000000000e+02
1.000000000000000000e+00,0.000000000000000000e+00,0.000000000000000000e+00,0.000000000000000000e+00,6.410000000000000000e+02,2.348818778991699219e-01,1.579026937484741211e+00,3.455069401568921506e-01,0.000000000000000000e+00,1.000000000000000000e+00,1.110000000000000000e+02
0.000000000000000000e+00,1.000000000000000000e+00,0.000000000000000000e+00,2.000000000000000000e+00,6.420000000000000000e+02,3.012309074401855469e-01,1.620019912719726562e+00,3.323061166970712743e-01,0.000000000000000000e+00,0.000000000000000000e+00,1.110000000000000000e+02
1.000000000000000000e+00,0.000000000000000000e+00,0.000000000000000000e+00,0.000000000000000000e+00,6.410000000000000000e+02,3.049089908599853516e-01,1.585538864135742188e+00,2.845761950632679782e-01,0.000000000000000000e+00,1.000000000000000000e+00,1.120000000000000000e+02
1.000000000000000000e+00,1.000000000000000000e+00,1.000000000000000000e+00,3.000000000000000000e+00,6.430000000000000000e+02,4.216630458831787109e-01,1.842048168182373047e+00,4.265755088023185371e-01,0.000000000000000000e+00,0.000000000000000000e+00,1.120000000000000000e+02
0.000000000000000000e+00,1.000000000000000000e+00,0.000000000000000000e+00,5.000000000000000000e+00,6.470000000000000000e+02,3.213930130004882812e-01,1.847990036010742188e+00,5.411627654468011972e-01,0.000000000000000000e+00,0.000000000000000000e+00,1.120000000000000000e+02
1.000000000000000000e+00,1.000000000000000000e+00,1.000000000000000000e+00,3.000000000000000000e+00,6.490000000000000000e+02,3.323800563812255859e-01,1.740772008895874023e+00,4.154938879259920670e-01,0.000000000000000000e+00,0.000000000000000000e+00,1.120000000000000000e+02
0.000000000000000000e+00,1.000000000000000000e+00,0.000000000000000000e+00,4.000000000000000000e+00,6.520000000000000000e+02,2.915301322937011719e-01,1.939598083496093750e+00,6.548663573306219288e-01,0.000000000000000000e+00,0.000000000000000000e+00,1.120000000000000000e+02
1.000000000000000000e+00,1.000000000000000000e+00,1.000000000000000000e+00,3.000000000000000000e+00,6.540000000000000000e+02,2.271609306335449219e-01,1.478675842285156250e+00,2.673767383842092782e-01,0.000000000000000000e+00,0.000000000000000000e+00,1.120000000000000000e+02
1.000000000000000000e+00,1.000000000000000000e+00,1.000000000000000000e+00,2.000000000000000000e+00,6.550000000000000000e+02,3.949179649353027344e-01,1.691951990127563477e+00,2.926867461878502885e-01,0.000000000000000000e+00,0.000000000000000000e+00,1.120000000000000000e+02
0.000000000000000000e+00,1.000000000000000000e+00,0.000000000000000000e+00,2.000000000000000000e+00,6.560000000000000000e+02,3.266050815582275391e-01,1.945172071456909180e+00,6.375656473987625361e-01,0.000000000000000000e+00,0.000000000000000000e+00,1.120000000000000000e+02
1.000000000000000000e+00,0.000000000000000000e+00,0.000000000000000000e+00,0.000000000000000000e+00,6.550000000000000000e+02,1.907269954681396484e-01,1.712632179260253906e+00,5.336868276371626862e-01,0.000000000000000000e+00,1.000000000000000000e+00,1.110000000000000000e+02
0.000000000000000000e+00,0.000000000000000000e+00,1.000000000000000000e+00,0.000000000000000000e+00,6.540000000000000000e+02,2.881441116333007812e-01,1.564705848693847656e+00,2.820695958021655625e-01,0.000000000000000000e+00,1.000000000000000000e+00,1.120000000000000000e+02
0.000000000000000000e+00,1.000000000000000000e+00,0.000000000000000000e+00,4.000000000000000000e+00,6.570000000000000000e+02,3.152320384979248047e-01,1.984130859375000000e+00,6.824879083087127540e-01,0.000000000000000000e+00,1.000000000000000000e+00,1.110000000000000000e+02
0.000000000000000000e+00,0.000000000000000000e+00,1.000000000000000000e+00,0.000000000000000000e+00,6.560000000000000000e+02,3.143119812011718750e-01,1.831186056137084961e+00,5.139207039062604343e-01,0.000000000000000000e+00,1.000000000000000000e+00,1.120000000000000000e+02
0.000000000000000000e+00,1.000000000000000000e+00,0.000000000000000000e+00,1.000000000000000000e+00,6.560000000000000000e+02,3.087229728698730469e-01,1.889766931533813477e+00,6.036908724127845183e-01,0.000000000000000000e+00,0.000000000000000000e+00,1.120000000000000000e+02
1.000000000000000000e+00,1.000000000000000000e+00,1.000000000000000000e+00,3.000000000000000000e+00,6.580000000000000000e+02,2.436590194702148438e-01,1.679258823394775391e+00,4.498256802663326281e-01,0.000000000000000000e+00,0.000000000000000000e+00,1.120000000000000000e+02
0.000000000000000000e+00,1.000000000000000000e+00,0.000000000000000000e+00,1.000000000000000000e+00,6.580000000000000000e+02,4.184079170227050781e-01,2.074028015136718750e+00,6.570396848479116425e-01,0.000000000000000000e+00,0.000000000000000000e+00,1.120000000000000000e+02
0.000000000000000000e+00,0.000000000000000000e+00,1.000000000000000000e+00,0.000000000000000000e+00,6.570000000000000000e+02,2.317919731140136719e-01,1.692464828491210938e+00,4.664452374422986547e-01,0.000000000000000000e+00,1.000000000000000000e+00,1.110000000000000000e+02
1.000000000000000000e+00,1.000000000000000000e+00,1.000000000000000000e+00,3.000000000000000000e+00,6.590000000000000000e+02,3.168740272521972656e-01,1.710372209548950195e+00,3.936182296371792955e-01,1.000000000000000000e+00,0.000000000000000000e+00,1.110000000000000000e+02
0.000000000000000000e+00,1.000000000000000000e+00,0.000000000000000000e+00,3.000000000000000000e+00,6.610000000000000000e+02,2.800140380859375000e-01,1.552707910537719727e+00,2.798419236147473566e-01,0.000000000000000000e+00,0.000000000000000000e+00,1.110000000000000000e+02
0.000000000000000000e+00,1.000000000000000000e+00,0.000000000000000000e+00,4.000000000000000000e+00,6.640000000000000000e+02,3.500978946685791016e-01,2.083822011947631836e+00,7.465679355479692969e-01,0.000000000000000000e+00,0.000000000000000000e+00,1.110000000000000000e+02
0.000000000000000000e+00,1.000000000000000000e+00,0.000000000000000000e+00,1.000000000000000000e+00,6.640000000000000000e+02,3.007009029388427734e-01,1.555837869644165039e+00,2.696640779657045184e-01,0.000000000000000000e+00,0.000000000000000000e+00,1.110000000000000000e+02
1.000000000000000000e+00,1.000000000000000000e+00,1.000000000000000000e+00,2.000000000000000000e+00,6.650000000000000000e+02,3.760740756988525391e-01,1.657171964645385742e+00,2.935275775518392805e-01,0.000000000000000000e+00,0.000000000000000000e+00,1.110000000000000000e+02
0.000000000000000000e+00,0.000000000000000000e+00,1.000000000000000000e+00,0.000000000000000000e+00,6.640000000000000000e+02,2.732620239257812500e-01,1.641409873962402344e+00,3.848896370426128088e-01,0.000000000000000000e+00,1.000000000000000000e+00,1.120000000000000000e+02
0.000000000000000000e+00,0.000000000000000000e+00,1.000000000000000000e+00,0.000000000000000000e+00,6.630000000000000000e+02,4.171988964080810547e-01,1.733693838119506836e+00,3.187315548634006568e-01,0.000000000000000000e+00,1.000000000000000000e+00,1.110000000000000000e+02
1.000000000000000000e+00,1.000000000000000000e+00,1.000000000000000000e+00,2.000000000000000000e+00,6.640000000000000000e+02,5.040440559387207031e-01,1.767630100250244141e+00,2.698054006202183497e-01,0.000000000000000000e+00,0.000000000000000000e+00,1.110000000000000000e+02
1.000000000000000000e+00,0.000000000000000000e+00,0.000000000000000000e+00,0.000000000000000000e+00,6.630000000000000000e+02,3.804430961608886719e-01,1.995856046676635742e+00,6.153558995791520436e-01,0.000000000000000000e+00,1.000000000000000000e+00,1.120000000000000000e+02
1.000000000000000000e+00,1.000000000000000000e+00,1.000000000000000000e+00,2.000000000000000000e+00,6.640000000000000000e+02,3.595027923583984375e-01,1.637331962585449219e+00,2.864531081218885666e-01,0.000000000000000000e+00,0.000000000000000000e+00,1.120000000000000000e+02
0.000000000000000000e+00,0.000000000000000000e+00,1.000000000000000000e+00,0.000000000000000000e+00,6.630000000000000000e+02,4.191908836364746094e-01,1.941849231719970703e+00,5.280977746401989137e-01,0.000000000000000000e+00,0.000000000000000000e+00,1.120000000000000000e+02
1.000000000000000000e+00,0.000000000000000000e+00,0.000000000000000000e+00,0.000000000000000000e+00,6.620000000000000000e+02,2.869691848754882812e-01,1.802549839019775391e+00,5.307311135095544863e-01,0.000000000000000000e+00,1.000000000000000000e+00,1.110000000000000000e+02
1.000000000000000000e+00,1.000000000000000000e+00,1.000000000000000000e+00,3.000000000000000000e+00,6.640000000000000000e+02,3.160359859466552734e-01,1.710303783416748047e+00,4.078830006435615885e-01,0.000000000000000000e+00,0.000000000000000000e+00,1.110000000000000000e+02
0.000000000000000000e+00,1.000000000000000000e+00,0.000000000000000000e+00,2.000000000000000000e+00,6.650000000000000000e+02,4.654588699340820312e-01,2.062592029571533203e+00,6.036648918449254442e-01,0.000000000000000000e+00,1.000000000000000000e+00,1.120000000000000000e+02
0.000000000000000000e+00,0.000000000000000000e+00,1.000000000000000000e+00,0.000000000000000000e+00,6.640000000000000000e+02,3.178260326385498047e-01,1.797333955764770508e+00,4.845390329264711027e-01,0.000000000000000000e+00,1.000000000000000000e+00,1.110000000000000000e+02
0.000000000000000000e+00,1.000000000000000000e+00,0.000000000000000000e+00,3.000000000000000000e+00,6.660000000000000000e+02,3.388929367065429688e-01,1.872889995574951172e+00,5.407565027037410932e-01,0.000000000000000000e+00,0.000000000000000000e+00,1.110000000000000000e+02
1.000000000000000000e+00,1.000000000000000000e+00,1.000000000000000000e+00,2.000000000000000000e+00,6.670000000000000000e+02,2.212591171264648438e-01,1.665106058120727539e+00,4.560077962083632364e-01,0.000000000000000000e+00,0.000000000000000000e+00,1.110000000000000000e+02
0.000000000000000000e+00,0.000000000000000000e+00,1.000000000000000000e+00,0.000000000000000000e+00,6.660000000000000000e+02,2.386670112609863281e-01,1.502822875976562500e+00,2.757743975871032593e-01,0.000000000000000000e+00,1.000000000000000000e+00,1.120000000000000000e+02
1.000000000000000000e+00,0.000000000000000000e+00,0.000000000000000000e+00,0.000000000000000000e+00,6.650000000000000000e+02,4.777150154113769531e-01,1.755332946777343750e+00,2.978093103311835743e-01,1.000000000000000000e+00,0.000000000000000000e+00,1.120000000000000000e+02
0.000000000000000000e+00,0.000000000000000000e+00,1.000000000000000000e+00,0.000000000000000000e+00,6.640000000000000000e+02,2.967791557312011719e-01,1.881193876266479492e+00,5.953983480664122308e-01,0.000000000000000000e+00,1.000000000000000000e+00,1.110000000000000000e+02
0.000000000000000000e+00,1.000000000000000000e+00,0.000000000000000000e+00,2.000000000000000000e+00,6.650000000000000000e+02,4.094080924987792969e-01,1.749215841293334961e+00,3.616163071952531727e-01,0.000000000000000000e+00,0.000000000000000000e+00,1.110000000000000000e+02
1.000000000000000000e+00,0.000000000000000000e+00,0.000000000000000000e+00,0.000000000000000000e+00,6.640000000000000000e+02,2.874810695648193359e-01,1.592898130416870117e+00,3.212783170653978893e-01,0.000000000000000000e+00,1.000000000000000000e+00,1.120000000000000000e+02
1.000000000000000000e+00,1.000000000000000000e+00,1.000000000000000000e+00,4.000000000000000000e+00,6.670000000000000000e+02,4.446129798889160156e-01,1.910022020339965820e+00,4.645512624670929958e-01,0.000000000000000000e+00,0.000000000000000000e+00,1.120000000000000000e+02
0.000000000000000000e+00,0.000000000000000000e+00,1.000000000000000000e+00,0.000000000000000000e+00,6.660000000000000000e+02,2.986049652099609375e-01,1.715770959854125977e+00,4.303854400837303085e-01,0.000000000000000000e+00,1.000000000000000000e+00,1.110000000000000000e+02
1.000000000000000000e+00,0.000000000000000000e+00,0.000000000000000000e+00,0.000000000000000000e+00,6.650000000000000000e+02,4.790449142456054688e-01,2.057729959487915039e+00,5.883566212140360907e-01,0.000000000000000000e+00,1.000000000000000000e+00,1.120000000000000000e+02
0.000000000000000000e+00,1.000000000000000000e+00,0.000000000000000000e+00,3.000000000000000000e+00,6.670000000000000000e+02,2.803609371185302734e-01,1.927257061004638672e+00,6.486359125162222128e-01,0.000000000000000000e+00,0.000000000000000000e+00,1.120000000000000000e+02
1.000000000000000000e+00,1.000000000000000000e+00,1.000000000000000000e+00,2.000000000000000000e+00,6.680000000000000000e+02,2.522261142730712891e-01,1.630113124847412109e+00,3.790807031669000127e-01,0.000000000000000000e+00,0.000000000000000000e+00,1.120000000000000000e+02
1.000000000000000000e+00,1.000000000000000000e+00,1.000000000000000000e+00,3.000000000000000000e+00,6.700000000000000000e+02,3.437027931213378906e-01,1.881321907043457031e+00,5.603379361031768369e-01,0.000000000000000000e+00,0.000000000000000000e+00,1.120000000000000000e+02
1.000000000000000000e+00,1.000000000000000000e+00,1.000000000000000000e+00,4.000000000000000000e+00,6.730000000000000000e+02,3.523559570312500000e-01,1.940709114074707031e+00,6.010545682286495550e-01,0.000000000000000000e+00,0.000000000000000000e+00,1.120000000000000000e+02
0.000000000000000000e+00,1.000000000000000000e+00,0.000000000000000000e+00,2.000000000000000000e+00,6.740000000000000000e+02,2.824201583862304688e-01,1.855412960052490234e+00,5.732490600329873676e-01,0.000000000000000000e+00,0.000000000000000000e+00,1.120000000000000000e+02
1.000000000000000000e+00,0.000000000000000000e+00,0.000000000000000000e+00,0.000000000000000000e+00,6.730000000000000000e+02,2.634608745574951172e-01,1.524434089660644531e+00,2.647318558869756755e-01,0.000000000000000000e+00,1.000000000000000000e+00,1.110000000000000000e+02
1.000000000000000000e+00,0.000000000000000000e+00,0.000000000000000000e+00,0.000000000000000000e+00,6.720000000000000000e+02,4.928820133209228516e-01,1.754869937896728516e+00,2.862925824226132399e-01,0.000000000000000000e+00,1.000000000000000000e+00,1.120000000000000000e+02
0.000000000000000000e+00,0.000000000000000000e+00,1.000000000000000000e+00,0.000000000000000000e+00,6.710000000000000000e+02,3.282878398895263672e-01,1.775567054748535156e+00,4.617536960075740993e-01,1.000000000000000000e+00,1.000000000000000000e+00,1.110000000000000000e+02
0.000000000000000000e+00,1.000000000000000000e+00,0.000000000000000000e+00,4.000000000000000000e+00,6.740000000000000000e+02,3.397030830383300781e-01,1.870408058166503906e+00,5.487921034825233857e-01,0.000000000000000000e+00,0.000000000000000000e+00,1.110000000000000000e+02
0.000000000000000000e+00,1.000000000000000000e+00,0.000000000000000000e+00,3.000000000000000000e+00,6.760000000000000000e+02,3.613991737365722656e-01,2.077158927917480469e+00,7.092077731626681425e-01,0.000000000000000000e+00,0.000000000000000000e+00,1.110000000000000000e+02
1.000000000000000000e+00,0.000000000000000000e+00,0.000000000000000000e+00,0.000000000000000000e+00,6.750000000000000000e+02,2.227499485015869141e-01,1.899977922439575195e+00,6.925983236785335784e-01,0.000000000000000000e+00,1.000000000000000000e+00,1.120000000000000000e+02
0.000000000000000000e+00,0.000000000000000000e+00,1.000000000000000000e+00,0.000000000000000000e+00,6.740000000000000000e+02,2.318491935729980469e-01,1.474513053894042969e+00,2.509553443992710298e-01,0.000000000000000000e+00,1.000000000000000000e+00,1.110000000000000000e+02
0.000000000000000000e+00,1.000000000000000000e+00,0.000000000000000000e+00,2.000000000000000000e+00,6.750000000000000000e+02,5.265290737152099609e-01,2.125885009765625000e+00,6.098687581854305151e-01,0.000000000000000000e+00,0.000000000000000000e+00,1.110000000000000000e+02
1.000000000000000000e+00,1.000000000000000000e+00,1.000000000000000000e+00,3.000000000000000000e+00,6.770000000000000000e+02,3.729970455169677734e-01,1.954691171646118164e+00,5.979587532779936376e-01,0.000000000000000000e+00,0.000000000000000000e+00,1.110000000000000000e+02
0.000000000000000000e+00,1.000000000000000000e+00,0.000000000000000000e+00,2.000000000000000000e+00,6.780000000000000000e+02,2.800879478454589844e-01,1.713349819183349609e+00,4.448733272385783089e-01,0.000000000000000000e+00,0.000000000000000000e+00,1.110000000000000000e+02
0.000000000000000000e+00,0.000000000000000000e+00,1.000000000000000000e+00,0.000000000000000000e+00,6.770000000000000000e+02,3.274760246276855469e-01,1.616028785705566406e+00,3.111078930120795838e-01,0.000000000000000000e+00,1.000000000000000000e+00,1.120000000000000000e+02
1.000000000000000000e+00,0.000000000000000000e+00,0.000000000000000000e+00,0.000000000000000000e+00,6.760000000000000000e+02,3.958270549774169922e-01,2.092688083648681641e+00,7.201242609561886443e-01,0.000000000000000000e+00,1.000000000000000000e+00,1.110000000000000000e+02
0.000000000000000000e+00,0.000000000000000000e+00,1.000000000000000000e+00,0.000000000000000000e+00,6.750000000000000000e+02,2.749009132385253906e-01,1.873865127563476562e+00,6.108319589174722175e-01,0.000000000000000000e+00,0.000000000000000000e+00,1.110000000000000000e+02
1.000000000000000000e+00,1.000000000000000000e+00,1.000000000000000000e+00,3.000000000000000000e+00,6.770000000000000000e+02,3.233098983764648438e-01,1.591289997100830078e+00,2.858439512700966523e-01,0.000000000000000000e+00,0.000000000000000000e+00,1.110000000000000000e+02
1.000000000000000000e+00,1.000000000000000000e+00,1.000000000000000000e+00,2.000000000000000000e+00,6.780000000000000000e+02,4.595608711242675781e-01,2.033055067062377930e+00,5.853757291400748519e-01,0.000000000000000000e+00,0.000000000000000000e+00,1.110000000000000000e+02
0.000000000000000000e+00,1.000000000000000000e+00,0.000000000000000000e+00,3.000000000000000000e+00,6.800000000000000000e+02,2.401440143585205078e-01,1.636692047119140625e+00,4.056104267532721908e-01,0.000000000000000000e+00,0.000000000000000000e+00,1.110000000000000000e+02
0.000000000000000000e+00,1.000000000000000000e+00,0.000000000000000000e+00,3.000000000000000000e+00,6.820000000000000000e+02,2.747390270233154297e-01,1.529196977615356445e+00,2.683707158286026129e-01,0.000000000000000000e+00,0.000000000000000000e+00,1.110000000000000000e+02
0.000000000000000000e+00,1.000000000000000000e+00,0.000000000000000000e+00,3.000000000000000000e+00,6.840000000000000000e+02,2.885770797729492188e-01,1.971448183059692383e+00,6.893707645779059145e-01,0.000000000000000000e+00,0.000000000000000000e+00,1.110000000000000000e+02
1.000000000000000000e+00,1.000000000000000000e+00,1.000000000000000000e+00,2.000000000000000000e+00,6.850000000000000000e+02,2.519459724426269531e-01,1.794297933578491211e+00,5.505791944793301251e-01,0.000000000000000000e+00,0.000000000000000000e+00,1.110000000000000000e+02
0.000000000000000000e+00,1.000000000000000000e+00,0.000000000000000000e+00,5.000000000000000000e+00,6.890000000000000000e+02,1.540119647979736328e-01,1.754655122756958008e+00,6.052630596137953400e-01,0.000000000000000000e+00,1.000000000000000000e+00,1.120000000000000000e+02
0.000000000000000000e+00,0.000000000000000000e+00,1.000000000000000000e+00,0.000000000000000000e+00,6.880000000000000000e+02,4.121091365814208984e-01,1.996742010116577148e+00,5.854279121759689009e-01,0.000000000000000000e+00,1.000000000000000000e+00,1.110000000000000000e+02
0.000000000000000000e+00,1.000000000000000000e+00,0.000000000000000000e+00,3.000000000000000000e+00,6.900000000000000000e+02,4.021902084350585938e-01,2.134320974349975586e+00,7.363348139737020404e-01,0.000000000000000000e+00,0.000000000000000000e+00,1.110000000000000000e+02
1.000000000000000000e+00,1.000000000000000000e+00,1.000000000000000000e+00,3.000000000000000000e+00,6.920000000000000000e+02,1.740131378173828125e-01,1.822946071624755859e+00,6.594447685015867311e-01,0.000000000000000000e+00,0.000000000000000000e+00,1.110000000000000000e+02
0.000000000000000000e+00,0.000000000000000000e+00,1.000000000000000000e+00,0.000000000000000000e+00,6.910000000000000000e+02,1.922788619995117188e-01,1.905276060104370117e+00,7.313810723945546322e-01,0.000000000000000000e+00,0.000000000000000000e+00,1.110000000000000000e+02
0.000000000000000000e+00,1.000000000000000000e+00,0.000000000000000000e+00,1.000000000000000000e+00,6.910000000000000000e+02,2.863550186157226562e-01,1.940859079360961914e+00,6.723758191997730727e-01,1.000000000000000000e+00,0.000000000000000000e+00,1.110000000000000000e+02
0.000000000000000000e+00,0.000000000000000000e+00,1.000000000000000000e+00,0.000000000000000000e+00,6.900000000000000000e+02,4.714901447296142578e-01,2.084547996520996094e+00,6.237089065965382151e-01,0.000000000000000000e+00,1.000000000000000000e+00,1.120000000000000000e+02
0.000000000000000000e+00,1.000000000000000000e+00,0.000000000000000000e+00,2.000000000000000000e+00,6.910000000000000000e+02,3.201611042022705078e-01,2.004691123962402344e+00,6.950479772293420844e-01,0.000000000000000000e+00,0.000000000000000000e+00,1.120000000000000000e+02
1.000000000000000000e+00,0.000000000000000000e+00,0.000000000000000000e+00,0.000000000000000000e+00,6.900000000000000000e+02,2.342290878295898438e-01,1.704485893249511719e+00,4.831515409354983359e-01,0.000000000000000000e+00,1.000000000000000000e+00,1.110000000000000000e+02
0.000000000000000000e+00,0.000000000000000000e+00,1.000000000000000000e+00,0.000000000000000000e+00,6.890000000000000000e+02,3.336150646209716797e-01,1.881572008132934570e+00,5.480269601084070130e-01,0.000000000000000000e+00,1.000000000000000000e+00,1.120000000000000000e+02
1.000000000000000000e+00,0.000000000000000000e+00,0.000000000000000000e+00,0.000000000000000000e+00,6.880000000000000000e+02,7.449951171875000000e-01,2.147780895233154297e+00,4.293133043047264730e-01,0.000000000000000000e+00,1.000000000000000000e+00,1.110000000000000000e+02
0.000000000000000000e+00,1.000000000000000000e+00,0.000000000000000000e+00,3.000000000000000000e+00,6.900000000000000000e+02,2.310509681701660156e-01,1.721204996109008789e+00,5.005530194916876230e-01,0.000000000000000000e+00,1.000000000000000000e+00,1.120000000000000000e+02
1.000000000000000000e+00,1.000000000000000000e+00,1.000000000000000000e+00,1.000000000000000000e+00,6.900000000000000000e+02,2.967929840087890625e-01,1.638396024703979492e+00,3.391744138852182955e-01,0.000000000000000000e+00,0.000000000000000000e+00,1.120000000000000000e+02
1.000000000000000000e+00,1.000000000000000000e+00,1.000000000000000000e+00,2.000000000000000000e+00,6.910000000000000000e+02,3.084979057312011719e-01,1.721286773681640625e+00,4.270761569528430668e-01,0.000000000000000000e+00,0.000000000000000000e+00,1.120000000000000000e+02
1.000000000000000000e+00,0.000000000000000000e+00,0.000000000000000000e+00,0.000000000000000000e+00,6.900000000000000000e+02,3.309209346771240234e-01,1.734733819961547852e+00,4.119020625320137241e-01,0.000000000000000000e+00,1.000000000000000000e+00,1.110000000000000000e+02
0.000000000000000000e+00,0.000000000000000000e+00,1.000000000000000000e+00,0.000000000000000000e+00,6.890000000000000000e+02,2.886400222778320312e-01,1.651232957839965820e+00,3.798763513633831024e-01,0.000000000000000000e+00,1.000000000000000000e+00,1.120000000000000000e+02
0.000000000000000000e+00,1.000000000000000000e+00,0.000000000000000000e+00,2.000000000000000000e+00,6.900000000000000000e+02,3.786830902099609375e-01,2.057540893554687500e+00,6.871947435023050277e-01,0.000000000000000000e+00,0.000000000000000000e+00,1.120000000000000000e+02
1.000000000000000000e+00,1.000000000000000000e+00,1.000000000000000000e+00,2.000000000000000000e+00,6.910000000000000000e+02,2.070970535278320312e-01,1.517060041427612305e+00,3.213522767046984585e-01,0.000000000000000000e+00,0.000000000000000000e+00,1.120000000000000000e+02
0.000000000000000000e+00,0.000000000000000000e+00,1.000000000000000000e+00,0.000000000000000000e+00,6.900000000000000000e+02,2.704730033874511719e-01,1.590164184570312500e+00,3.282490851827846168e-01,0.000000000000000000e+00,1.000000000000000000e+00,1.110000000000000000e+02
1.000000000000000000e+00,0.000000000000000000e+00,0.000000000000000000e+00,0.000000000000000000e+00,6.890000000000000000e+02,4.312019348144531250e-01,2.010251045227050781e+00,5.883244409649156514e-01,0.000000000000000000e+00,1.000000000000000000e+00,1.120000000000000000e+02
1.000000000000000000e+00,0.000000000000000000e+00,0.000000000000000000e+00,0.000000000000000000e+00,6.880000000000000000e+02,3.695778846740722656e-01,2.021925926208496094e+00,6.602033425086164531e-01,0.000000000000000000e+00,1.000000000000000000e+00,1.110000000000000000e+02
0.000000000000000000e+00,0.000000000000000000e+00,1.000000000000000000e+00,0.000000000000000000e+00,6.870000000000000000e+02,4.470098018646240234e-01,1.835268974304199219e+00,3.958449241332778201e-01,0.000000000000000000e+00,1.000000000000000000e+00,1.120000000000000000e+02
0.000000000000000000e+00,1.000000000000000000e+00,0.000000000000000000e+00,4.000000000000000000e+00,6.900000000000000000e+02,4.106161594390869141e-01,1.749188899993896484e+00,3.618227730230588191e-01,0.000000000000000000e+00,1.000000000000000000e+00,1.110000000000000000e+02
0.000000000000000000e+00,1.000000000000000000e+00,0.000000000000000000e+00,1.000000000000000000e+00,6.900000000000000000e+02,5.478270053863525391e-01,2.271492004394531250e+00,7.329867767513913446e-01,1.000000000000000000e+00,0.000000000000000000e+00,1.110000000000000000e+02
0.000000000000000000e+00,1.000000000000000000e+00,0.000000000000000000e+00,1.000000000000000000e+00,6.900000000000000000e+02,5.066211223602294922e-01,2.122921228408813477e+00,6.227364243620689965e-01,0.000000000000000000e+00,0.000000000000000000e+00,1.110000000000000000e+02
1.000000000000000000e+00,1.000000000000000000e+00,1.000000000000000000e+00,3.000000000000000000e+00,6.920000000000000000e+02,5.199720859527587891e-01,2.081094026565551758e+00,5.706854377688992397e-01,0.000000000000000000e+00,0.000000000000000000e+00,1.110000000000000000e+02
1.000000000000000000e+00,1.000000000000000000e+00,1.000000000000000000e+00,4.000000000000000000e+00,6.950000000000000000e+02,4.167211055755615234e-01,2.033176898956298828e+00,6.205066382004017500e-01,0.000000000000000000e+00,0.000000000000000000e+00,1.110000000000000000e+02
1.000000000000000000e+00,1.000000000000000000e+00,1.000000000000000000e+00,2.000000000000000000e+00,6.960000000000000000e+02,3.853969573974609375e-01,1.995707988739013672e+00,6.163340439722694297e-01,0.000000000000000000e+00,0.000000000000000000e+00,1.110000000000000000e+02
0.000000000000000000e+00,0.000000000000000000e+00,1.000000000000000000e+00,0.000000000000000000e+00,6.950000000000000000e+02,2.954819202423095703e-01,1.819235086441040039e+00,5.190539376594780485e-01,0.000000000000000000e+00,1.000000000000000000e+00,1.120000000000000000e+02
1.000000000000000000e+00,0.000000000000000000e+00,0.000000000000000000e+00,0.000000000000000000e+00,6.940000000000000000e+02,3.819429874420166016e-01,1.782247066497802734e+00,4.014601134321161835e-01,0.000000000000000000e+00,1.000000000000000000e+00,1.110000000000000000e+02
0.000000000000000000e+00,0.000000000000000000e+00,1.000000000000000000e+00,0.000000000000000000e+00,6.930000000000000000e+02,2.686569690704345703e-01,1.878451108932495117e+00,6.131480046171349230e-01,0.000000000000000000e+00,0.000000000000000000e+00,1.110000000000000000e+02
0.000000000000000000e+00,1.000000000000000000e+00,0.000000000000000000e+00,4.000000000000000000e+00,6.960000000000000000e+02,3.360950946807861328e-01,2.045593023300170898e+00,7.253469432636159286e-01,0.000000000000000000e+00,0.000000000000000000e+00,1.110000000000000000e+02
1.000000000000000000e+00,1.000000000000000000e+00,1.000000000000000000e+00,4.000000000000000000e+00,6.990000000000000000e+02,6.550889015197753906e-01,2.320967912673950195e+00,6.797699178556586563e-01,0.000000000000000000e+00,0.000000000000000000e+00,1.110000000000000000e+02
0.000000000000000000e+00,1.000000000000000000e+00,0.000000000000000000e+00,3.000000000000000000e+00,7.010000000000000000e+02,3.975691795349121094e-01,1.711543083190917969e+00,3.250990673742631953e-01,0.000000000000000000e+00,0.000000000000000000e+00,1.110000000000000000e+02
1.000000000000000000e+00,1.000000000000000000e+00,1.000000000000000000e+00,1.000000000000000000e+00,7.010000000000000000e+02,4.499781131744384766e-01,1.799540996551513672e+00,3.580038638804718953e-01,0.000000000000000000e+00,0.000000000000000000e+00,1.110000000000000000e+02
0.000000000000000000e+00,0.000000000000000000e+00,1.000000000000000000e+00,0.000000000000000000e+00,7.000000000000000000e+02,3.500430583953857422e-01,1.823117017745971680e+00,4.810222331924104422e-01,0.000000000000000000e+00,1.000000000000000000e+00,1.120000000000000000e+02
1.000000000000000000e+00,0.000000000000000000e+00,0.000000000000000000e+00,0.000000000000000000e+00,6.990000000000000000e+02,4.484200477600097656e-01,1.840559959411621094e+00,4.050776125192717125e-01,0.000000000000000000e+00,1.000000000000000000e+00,1.110000000000000000e+02
0.000000000000000000e+00,1.000000000000000000e+00,0.000000000000000000e+00,3.000000000000000000e+00,7.010000000000000000e+02,3.114218711853027344e-01,1.896893024444580078e+00,6.018227339660453534e-01,0.000000000000000000e+00,0.000000000000000000e+00,1.110000000000000000e+02
0.000000000000000000e+00,1.000000000000000000e+00,0.000000000000000000e+00,3.000000000000000000e+00,7.030000000000000000e+02,2.745110988616943359e-01,1.604751825332641602e+00,3.402714085744923400e-01,0.000000000000000000e+00,0.000000000000000000e+00,1.110000000000000000e+02
1.000000000000000000e+00,0.000000000000000000e+00,0.000000000000000000e+00,0.000000000000000000e+00,7.020000000000000000e+02,6.615719795227050781e-01,2.184586048126220703e+00,5.247259327070152857e-01,0.000000000000000000e+00,0.000000000000000000e+00,1.110000000000000000e+02
0.000000000000000000e+00,1.000000000000000000e+00,0.000000000000000000e+00,2.000000000000000000e+00,7.030000000000000000e+02,2.402780055999755859e-01,1.561964035034179688e+00,3.369715604904220951e-01,0.000000000000000000e+00,0.000000000000000000e+00,1.110000000000000000e+02
0.000000000000000000e+00,1.000000000000000000e+00,0.000000000000000000e+00,1.000000000000000000e+00,7.030000000000000000e+02,3.296799659729003906e-01,1.819885969161987305e+00,4.900746651599993675e-01,0.000000000000000000e+00,0.000000000000000000e+00,1.110000000000000000e+02
0.000000000000000000e+00,0.000000000000000000e+00,1.000000000000000000e+00,0.000000000000000000e+00,7.020000000000000000e+02,2.621009349822998047e-01,1.738558053970336914e+00,4.787033135987537880e-01,1.000000000000000000e+00,1.000000000000000000e+00,1.120000000000000000e+02
1.000000000000000000e+00,1.000000000000000000e+00,1.000000000000000000e+00,2.000000000000000000e+00,7.030000000000000000e+02,3.847770690917968750e-01,1.652256965637207031e+00,2.812480972045814376e-01,0.000000000000000000e+00,0.000000000000000000e+00,1.120000000000000000e+02
1.000000000000000000e+00,1.000000000000000000e+00,1.000000000000000000e+00,3.000000000000000000e+00,7.050000000000000000e+02,4.330120086669921875e-01,1.716557025909423828e+00,2.978580286021681456e-01,0.000000000000000000e+00,0.000000000000000000e+00,1.120000000000000000e+02
1.000000000000000000e+00,1.000000000000000000e+00,1.000000000000000000e+00,3.000000000000000000e+00,7.070000000000000000e+02,5.482850074768066406e-01,2.070990800857543945e+00,5.353163649115204592e-01,0.000000000000000000e+00,0.000000000000000000e+00,1.120000000000000000e+02
0.000000000000000000e+00,1.000000000000000000e+00,0.000000000000000000e+00,0.000000000000000000e+00,7.070000000000000000e+02,1.386076927185058594e+00,2.833547830581665039e+00,4.190750866994187307e-01,-1.000000000000000000e+00,-1.000000000000000000e+00,1.120000000000000000e+02
0.000000000000000000e+00,1.000000000000000000e+00,0.000000000000000000e+00,3.000000000000000000e+00,7.090000000000000000e+02,2.567520141601562500e-01,1.844835996627807617e+00,5.971402412803240578e-01,0.000000000000000000e+00,0.000000000000000000e+00,1.120000000000000000e+02
1.000000000000000000e+00,1.000000000000000000e+00,1.000000000000000000e+00,3.000000000000000000e+00,7.110000000000000000e+02,3.095088005065917969e-01,1.934571981430053711e+00,6.484086843199089456e-01,0.000000000000000000e+00,0.000000000000000000e+00,1.120000000000000000e+02
0.000000000000000000e+00,1.000000000000000000e+00,0.000000000000000000e+00,3.000000000000000000e+00,7.130000000000000000e+02,2.502629756927490234e-01,1.525761842727661133e+00,2.912754215817289216e-01,0.000000000000000000e+00,0.000000000000000000e+00,1.120000000000000000e+02
0.000000000000000000e+00,0.000000000000000000e+00,1.000000000000000000e+00,0.000000000000000000e+00,7.120000000000000000e+02,3.349719047546386719e-01,1.589305162429809570e+00,2.639949896510158101e-01,0.000000000000000000e+00,1.000000000000000000e+00,1.110000000000000000e+02
1.000000000000000000e+00,0.000000000000000000e+00,0.000000000000000000e+00,0.000000000000000000e+00,7.110000000000000000e+02,3.126277923583984375e-01,1.722539901733398438e+00,4.197683077925275508e-01,0.000000000000000000e+00,1.000000000000000000e+00,1.120000000000000000e+02
1.000000000000000000e+00,1.000000000000000000e+00,1.000000000000000000e+00,4.000000000000000000e+00,7.140000000000000000e+02,2.804310321807861328e-01,1.769809007644653320e+00,4.895702720571816768e-01,0.000000000000000000e+00,0.000000000000000000e+00,1.120000000000000000e+02
0.000000000000000000e+00,1.000000000000000000e+00,0.000000000000000000e+00,5.000000000000000000e+00,7.180000000000000000e+02,2.578139305114746094e-01,1.881074905395507812e+00,6.372033868802260415e-01,0.000000000000000000e+00,0.000000000000000000e+00,1.120000000000000000e+02
0.000000000000000000e+00,1.000000000000000000e+00,0.000000000000000000e+00,3.000000000000000000e+00,7.200000000000000000e+02,3.994760513305664062e-01,1.909438133239746094e+00,5.134662073706868224e-01,0.000000000000000000e+00,0.000000000000000000e+00,1.120000000000000000e+02
1.000000000000000000e+00,1.000000000000000000e+00,1.000000000000000000e+00,4.000000000000000000e+00,7.230000000000000000e+02,2.085800170898437500e-01,1.923295974731445312e+00,7.366504369000101970e-01,1.000000000000000000e+00,0.000000000000000000e+00,1.120000000000000000e+02
1.000000000000000000e+00,1.000000000000000000e+00,1.000000000000000000e+00,2.000000000000000000e+00,7.240000000000000000e+02,3.722360134124755859e-01,1.732975006103515625e+00,3.700428752118014031e-01,0.000000000000000000e+00,0.000000000000000000e+00,1.120000000000000000e+02
1.000000000000000000e+00,0.000000000000000000e+00,0.000000000000000000e+00,0.000000000000000000e+00,7.230000000000000000e+02,3.670251369476318359e-01,1.807581901550292969e+00,4.442668340209830480e-01,0.000000000000000000e+00,1.000000000000000000e+00,1.110000000000000000e+02
0.000000000000000000e+00,0.000000000000000000e+00,1.000000000000000000e+00,0.000000000000000000e+00,7.220000000000000000e+02,5.410799980163574219e-01,2.047828912734985352e+00,5.254066254585119111e-01,0.000000000000000000e+00,0.000000000000000000e+00,1.110000000000000000e+02
1.000000000000000000e+00,1.000000000000000000e+00,1.000000000000000000e+00,3.000000000000000000e+00,7.240000000000000000e+02,4.001190662384033203e-01,1.926139116287231445e+00,5.349753063769635553e-01,0.000000000000000000e+00,0.000000000000000000e+00,1.110000000000000000e+02
0.000000000000000000e+00,0.000000000000000000e+00,1.000000000000000000e+00,0.000000000000000000e+00,7.230000000000000000e+02,3.369538784027099609e-01,1.991044044494628906e+00,6.593100351385350333e-01,0.000000000000000000e+00,1.000000000000000000e+00,1.120000000000000000e+02
1.000000000000000000e+00,0.000000000000000000e+00,0.000000000000000000e+00,0.000000000000000000e+00,7.220000000000000000e+02,2.975947856903076172e-01,1.697530984878540039e+00,4.071382840847608819e-01,0.000000000000000000e+00,0.000000000000000000e+00,1.120000000000000000e+02
0.000000000000000000e+00,0.000000000000000000e+00,1.000000000000000000e+00,0.000000000000000000e+00,7.210000000000000000e+02,2.776701450347900391e-01,1.739475965499877930e+00,4.799406492198043384e-01,0.000000000000000000e+00,1.000000000000000000e+00,1.110000000000000000e+02
0.000000000000000000e+00,0.000000000000000000e+00,1.000000000000000000e+00,0.000000000000000000e+00,7.200000000000000000e+02,4.084341526031494141e-01,1.805434942245483398e+00,4.190648088020693107e-01,0.000000000000000000e+00,0.000000000000000000e+00,1.110000000000000000e+02
1.000000000000000000e+00,1.000000000000000000e+00,1.000000000000000000e+00,4.000000000000000000e+00,7.230000000000000000e+02,2.558078765869140625e-01,1.567281961441040039e+00,3.196161980691663573e-01,0.000000000000000000e+00,0.000000000000000000e+00,1.110000000000000000e+02
1.000000000000000000e+00,1.000000000000000000e+00,1.000000000000000000e+00,3.000000000000000000e+00,7.250000000000000000e+02,2.762041091918945312e-01,1.647808790206909180e+00,3.841056672838981667e-01,0.000000000000000000e+00,0.000000000000000000e+00,1.110000000000000000e+02
1.000000000000000000e+00,1.000000000000000000e+00,1.000000000000000000e+00,3.000000000000000000e+00,7.270000000000000000e+02,3.802480697631835938e-01,1.980423927307128906e+00,5.977267599169230339e-01,0.000000000000000000e+00,0.000000000000000000e+00,1.110000000000000000e+02
1.000000000000000000e+00,1.000000000000000000e+00,1.000000000000000000e+00,2.000000000000000000e+00,7.280000000000000000e+02,4.436988830566406250e-01,1.944310903549194336e+00,5.088387586962660469e-01,1.000000000000000000e+00,1.000000000000000000e+00,1.120000000000000000e+02
0.000000000000000000e+00,1.000000000000000000e+00,0.000000000000000000e+00,3.000000000000000000e+00,7.300000000000000000e+02,3.197031021118164062e-01,1.883510828018188477e+00,5.756916367669309142e-01,0.000000000000000000e+00,0.000000000000000000e+00,1.120000000000000000e+02
1.000000000000000000e+00,0.000000000000000000e+00,0.000000000000000000e+00,0.000000000000000000e+00,7.290000000000000000e+02,7.174479961395263672e-01,2.380952835083007812e+00,6.732892267747703219e-01,0.000000000000000000e+00,0.000000000000000000e+00,1.120000000000000000e+02
0.000000000000000000e+00,1.000000000000000000e+00,0.000000000000000000e+00,3.000000000000000000e+00,7.310000000000000000e+02,2.582120895385742188e-01,1.815017223358154297e+00,5.718512228056316093e-01,0.000000000000000000e+00,0.000000000000000000e+00,1.120000000000000000e+02
0.000000000000000000e+00,0.000000000000000000e+00,1.000000000000000000e+00,0.000000000000000000e+00,7.300000000000000000e+02,4.656190872192382812e-01,2.018507003784179688e+00,5.570754538130653355e-01,0.000000000000000000e+00,0.000000000000000000e+00,1.120000000000000000e+02
1.000000000000000000e+00,0.000000000000000000e+00,0.000000000000000000e+00,0.000000000000000000e+00,7.290000000000000000e+02,3.540430068969726562e-01,1.997077941894531250e+00,6.541318082799560951e-01,0.000000000000000000e+00,1.000000000000000000e+00,1.110000000000000000e+02
0.000000000000000000e+00,1.000000000000000000e+00,0.000000000000000000e+00,2.000000000000000000e+00,7.300000000000000000e+02,2.700850963592529297e-01,1.602230072021484375e+00,3.400657886997197621e-01,0.000000000000000000e+00,0.000000000000000000e+00,1.110000000000000000e+02
0.000000000000000000e+00,0.000000000000000000e+00,1.000000000000000000e+00,0.000000000000000000e+00,7.290000000000000000e+02,5.971269607543945312e-01,2.167605876922607422e+00,5.741482128403163632e-01,0.000000000000000000e+00,1.000000000000000000e+00,1.120000000000000000e+02
1.000000000000000000e+00,1.000000000000000000e+00,1.000000000000000000e+00,4.000000000000000000e+00,7.320000000000000000e+02,2.825350761413574219e-01,2.025010108947753906e+00,7.490926979732150937e-01,0.000000000000000000e+00,0.000000000000000000e+00,1.120000000000000000e+02
1.000000000000000000e+00,1.000000000000000000e+00,1.000000000000000000e+00,3.000000000000000000e+00,7.340000000000000000e+02,2.972447872161865234e-01,1.920424938201904297e+00,6.197311822102824497e-01,0.000000000000000000e+00,0.000000000000000000e+00,1.120000000000000000e+02
1.000000000000000000e+00,1.000000000000000000e+00,1.000000000000000000e+00,1.000000000000000000e+00,7.340000000000000000e+02,3.307130336761474609e-01,1.804474830627441406e+00,4.743996524958923877e-01,0.000000000000000000e+00,0.000000000000000000e+00,1.120000000000000000e+02
1.000000000000000000e+00,1.000000000000000000e+00,1.000000000000000000e+00,4.000000000000000000e+00,7.370000000000000000e+02,3.967499732971191406e-01,1.738211154937744141e+00,3.461564203312613719e-01,0.000000000000000000e+00,0.000000000000000000e+00,1.120000000000000000e+02
0.000000000000000000e+00,0.000000000000000000e+00,1.000000000000000000e+00,0.000000000000000000e+00,7.360000000000000000e+02,5.824439525604248047e-01,2.155133008956909180e+00,5.845455115050315342e-01,0.000000000000000000e+00,0.000000000000000000e+00,1.120000000000000000e+02
1.000000000000000000e+00,0.000000000000000000e+00,0.000000000000000000e+00,0.000000000000000000e+00,7.350000000000000000e+02,9.608809947967529297e-01,2.569612979888916016e+00,6.207601036849990095e-01,1.000000000000000000e+00,1.000000000000000000e+00,1.110000000000000000e+02
0.000000000000000000e+00,1.000000000000000000e+00,0.000000000000000000e+00,2.000000000000000000e+00,7.360000000000000000e+02,2.843120098114013672e-01,2.024863004684448242e+00,7.455897855341910851e-01,0.000000000000000000e+00,0.000000000000000000e+00,1.110000000000000000e+02
1.000000000000000000e+00,1.000000000000000000e+00,1.000000000000000000e+00,3.000000000000000000e+00,7.380000000000000000e+02,2.996830940246582031e-01,1.694477081298828125e+00,4.071357629144148893e-01,0.000000000000000000e+00,0.000000000000000000e+00,1.110000000000000000e+02
0.000000000000000000e+00,1.000000000000000000e+00,0.000000000000000000e+00,0.000000000000000000e+00,7.380000000000000000e+02,1.168818950653076172e+00,2.750066041946411133e+00,5.571642245217105494e-01,-1.000000000000000000e+00,-1.000000000000000000e+00,1.110000000000000000e+02
0.000000000000000000e+00,1.000000000000000000e+00,0.000000000000000000e+00,2.000000000000000000e+00,7.390000000000000000e+02,2.948839664459228516e-01,1.899280071258544922e+00,6.064851582064039182e-01,0.000000000000000000e+00,0.000000000000000000e+00,1.110000000000000000e+02
0.000000000000000000e+00,1.000000000000000000e+00,0.000000000000000000e+00,2.000000000000000000e+00,7.400000000000000000e+02,3.059318065643310547e-01,1.857221126556396484e+00,5.638084139349921475e-01,0.000000000000000000e+00,0.000000000000000000e+00,1.110000000000000000e+02
0.000000000000000000e+00,1.000000000000000000e+00,0.000000000000000000e+00,3.000000000000000000e+00,7.420000000000000000e+02,2.989408969879150391e-01,1.973170042037963867e+00,6.869135640932370057e-01,0.000000000000000000e+00,0.000000000000000000e+00,1.110000000000000000e+02
0.000000000000000000e+00,0.000000000000000000e+00,1.000000000000000000e+00,0.000000000000000000e+00,7.410000000000000000e+02,2.617421150207519531e-01,1.585355043411254883e+00,3.227103699319524566e-01,0.000000000000000000e+00,1.000000000000000000e+00,1.120000000000000000e+02
0.000000000000000000e+00,0.000000000000000000e+00,1.000000000000000000e+00,0.000000000000000000e+00,7.400000000000000000e+02,6.174540519714355469e-01,1.895537137985229492e+00,2.850426732254158213e-01,0.000000000000000000e+00,1.000000000000000000e+00,1.110000000000000000e+02
0.000000000000000000e+00,1.000000000000000000e+00,0.000000000000000000e+00,1.000000000000000000e+00,7.400000000000000000e+02,3.705339431762695312e-01,2.084551811218261719e+00,7.191971184123719940e-01,0.000000000000000000e+00,0.000000000000000000e+00,1.110000000000000000e+02
1.000000000000000000e+00,1.000000000000000000e+00,1.000000000000000000e+00,4.000000000000000000e+00,7.430000000000000000e+02,9.213061332702636719e-01,2.329706907272338867e+00,4.159476861919325641e-01,0.000000000000000000e+00,0.000000000000000000e+00,1.110000000000000000e+02
1.000000000000000000e+00,1.000000000000000000e+00,1.000000000000000000e+00,3.000000000000000000e+00,7.450000000000000000e+02,3.030090332031250000e-01,1.788424968719482422e+00,4.876968359346601778e-01,0.000000000000000000e+00,0.000000000000000000e+00,1.110000000000000000e+02
0.000000000000000000e+00,0.000000000000000000e+00,1.000000000000000000e+00,0.000000000000000000e+00,7.440000000000000000e+02,2.986328601837158203e-01,1.819823980331420898e+00,5.242275999020238331e-01,1.000000000000000000e+00,1.000000000000000000e+00,1.120000000000000000e+02
1.000000000000000000e+00,1.000000000000000000e+00,1.000000000000000000e+00,2.000000000000000000e+00,7.450000000000000000e+02,2.910878658294677734e-01,1.921891212463378906e+00,6.460698662606714215e-01,0.000000000000000000e+00,0.000000000000000000e+00,1.120000000000000000e+02
0.000000000000000000e+00,1.000000000000000000e+00,0.000000000000000000e+00,2.000000000000000000e+00,7.460000000000000000e+02,2.315778732299804688e-01,1.511653900146484375e+00,2.914668316769143397e-01,0.000000000000000000e+00,0.000000000000000000e+00,1.120000000000000000e+02
1.000000000000000000e+00,1.000000000000000000e+00,1.000000000000000000e+00,2.000000000000000000e+00,7.470000000000000000e+02,2.599551677703857422e-01,1.532679080963134766e+00,2.909005426600042021e-01,0.000000000000000000e+00,0.000000000000000000e+00,1.120000000000000000e+02
0.000000000000000000e+00,1.000000000000000000e+00,0.000000000000000000e+00,3.000000000000000000e+00,7.490000000000000000e+02,2.797021865844726562e-01,1.708707094192504883e+00,4.328499956888074429e-01,0.000000000000000000e+00,0.000000000000000000e+00,1.120000000000000000e+02
0.000000000000000000e+00,1.000000000000000000e+00,0.000000000000000000e+00,3.000000000000000000e+00,7.510000000000000000e+02,2.910499572753906250e-01,2.004181861877441406e+00,7.201250400360392767e-01,0.000000000000000000e+00,0.000000000000000000e+00,1.120000000000000000e+02
1.000000000000000000e+00,0.000000000000000000e+00,0.000000000000000000e+00,0.000000000000000000e+00,7.500000000000000000e+02,1.770901679992675781e-01,1.619652986526489258e+00,4.567826448261124717e-01,0.000000000000000000e+00,1.000000000000000000e+00,1.110000000000000000e+02
1.000000000000000000e+00,0.000000000000000000e+00,0.000000000000000000e+00,0.000000000000000000e+00,7.490000000000000000e+02,3.085219860076904297e-01,1.742737054824829102e+00,4.495959150678370264e-01,0.000000000000000000e+00,1.000000000000000000e+00,1.120000000000000000e+02
0.000000000000000000e+00,0.000000000000000000e+00,1.000000000000000000e+00,0.000000000000000000e+00,7.480000000000000000e+02,2.855489253997802734e-01,1.880863189697265625e+00,5.970368108302253063e-01,0.000000000000000000e+00,0.000000000000000000e+00,1.120000000000000000e+02
1.000000000000000000e+00,1.000000000000000000e+00,1.000000000000000000e+00,2.000000000000000000e+00,7.490000000000000000e+02,2.819559574127197266e-01,1.632500886917114258e+00,3.631818256433745340e-01,0.000000000000000000e+00,0.000000000000000000e+00,1.120000000000000000e+02
1.000000000000000000e+00,1.000000000000000000e+00,1.000000000000000000e+00,3.000000000000000000e+00,7.510000000000000000e+02,3.126649856567382812e-01,1.835447788238525391e+00,5.318292755722242582e-01,0.000000000000000000e+00,0.000000000000000000e+00,1.120000000000000000e+02
0.000000000000000000e+00,1.000000000000000000e+00,0.000000000000000000e+00,3.000000000000000000e+00,7.530000000000000000e+02,2.666821479797363281e-01,1.845165967941284180e+00,5.770196813728626362e-01,0.000000000000000000e+00,0.000000000000000000e+00,1.120000000000000000e+02
0.000000000000000000e+00,0.000000000000000000e+00,1.000000000000000000e+00,0.000000000000000000e+00,7.520000000000000000e+02,3.714399337768554688e-01,1.988419055938720703e+00,6.321109114126735040e-01,0.000000000000000000e+00,0.000000000000000000e+00,1.120000000000000000e+02
1.000000000000000000e+00,1.000000000000000000e+00,1.000000000000000000e+00,4.000000000000000000e+00,7.550000000000000000e+02,2.846419811248779297e-01,1.917423009872436523e+00,6.329518427663298752e-01,0.000000000000000000e+00,0.000000000000000000e+00,1.120000000000000000e+02
0.000000000000000000e+00,1.000000000000000000e+00,0.000000000000000000e+00,3.000000000000000000e+00,7.570000000000000000e+02,3.169569969177246094e-01,1.568140029907226562e+00,2.515571653265203933e-01,0.000000000000000000e+00,0.000000000000000000e+00,1.120000000000000000e+02
1.000000000000000000e+00,1.000000000000000000e+00,1.000000000000000000e+00,1.000000000000000000e+00,7.570000000000000000e+02,4.873361587524414062e-01,1.818446874618530273e+00,3.366426593677525059e-01,0.000000000000000000e+00,1.000000000000000000e+00,1.110000000000000000e+02
0.000000000000000000e+00,1.000000000000000000e+00,0.000000000000000000e+00,3.000000000000000000e+00,7.590000000000000000e+02,3.967299461364746094e-01,1.937088966369628906e+00,5.402703751791610998e-01,0.000000000000000000e+00,1.000000000000000000e+00,1.120000000000000000e+02
1.000000000000000000e+00,1.000000000000000000e+00,1.000000000000000000e+00,1.000000000000000000e+00,7.590000000000000000e+02,2.984800338745117188e-01,2.024916887283325195e+00,7.316885011435887431e-01,0.000000000000000000e+00,0.000000000000000000e+00,1.120000000000000000e+02
0.000000000000000000e+00,0.000000000000000000e+00,1.000000000000000000e+00,0.000000000000000000e+00,7.580000000000000000e+02,3.219039440155029297e-01,1.637864828109741211e+00,3.367189809948239465e-01,0.000000000000000000e+00,0.000000000000000000e+00,1.120000000000000000e+02
1.000000000000000000e+00,0.000000000000000000e+00,0.000000000000000000e+00,0.000000000000000000e+00,7.570000000000000000e+02,4.389081001281738281e-01,2.039608001708984375e+00,6.094391948050532637e-01,0.000000000000000000e+00,0.000000000000000000e+00,1.120000000000000000e+02
1.000000000000000000e+00,1.000000000000000000e+00,1.000000000000000000e+00,2.000000000000000000e+00,7.580000000000000000e+02,2.876541614532470703e-01,1.667795896530151367e+00,3.942035210480804297e-01,0.000000000000000000e+00,0.000000000000000000e+00,1.120000000000000000e+02
0.000000000000000000e+00,1.000000000000000000e+00,0.000000000000000000e+00,3.000000000000000000e+00,7.600000000000000000e+02,2.940428256988525391e-01,1.956694126129150391e+00,6.842366853834149776e-01,0.000000000000000000e+00,0.000000000000000000e+00,1.120000000000000000e+02
0.000000000000000000e+00,1.000000000000000000e+00,0.000000000000000000e+00,2.000000000000000000e+00,7.610000000000000000e+02,2.894189357757568359e-01,1.608543872833251953e+00,3.263065536445740600e-01,0.000000000000000000e+00,0.000000000000000000e+00,1.120000000000000000e+02
1.000000000000000000e+00,1.000000000000000000e+00,1.000000000000000000e+00,3.000000000000000000e+00,7.630000000000000000e+02,3.824570178985595703e-01,1.996022939682006836e+00,6.220641648541561652e-01,0.000000000000000000e+00,0.000000000000000000e+00,1.120000000000000000e+02
0.000000000000000000e+00,1.000000000000000000e+00,0.000000000000000000e+00,2.000000000000000000e+00,7.640000000000000000e+02,2.245399951934814453e-01,1.746476888656616211e+00,5.354175930344786671e-01,1.000000000000000000e+00,1.000000000000000000e+00,1.110000000000000000e+02
1.000000000000000000e+00,1.000000000000000000e+00,1.000000000000000000e+00,3.000000000000000000e+00,7.660000000000000000e+02,3.106679916381835938e-01,1.690989017486572266e+00,3.766499104153370747e-01,0.000000000000000000e+00,0.000000000000000000e+00,1.110000000000000000e+02
1.000000000000000000e+00,1.000000000000000000e+00,1.000000000000000000e+00,1.000000000000000000e+00,7.660000000000000000e+02,6.003990173339843750e-01,1.882084131240844727e+00,2.922202553785605561e-01,0.000000000000000000e+00,0.000000000000000000e+00,1.110000000000000000e+02
0.000000000000000000e+00,0.000000000000000000e+00,1.000000000000000000e+00,0.000000000000000000e+00,7.650000000000000000e+02,3.562099933624267578e-01,1.712471008300781250e+00,3.713570559339349764e-01,0.000000000000000000e+00,1.000000000000000000e+00,1.120000000000000000e+02
1.000000000000000000e+00,0.000000000000000000e+00,0.000000000000000000e+00,0.000000000000000000e+00,7.640000000000000000e+02,1.345839500427246094e-01,1.718168973922729492e+00,5.892991996532853660e-01,0.000000000000000000e+00,1.000000000000000000e+00,1.110000000000000000e+02
1.000000000000000000e+00,0.000000000000000000e+00,0.000000000000000000e+00,0.000000000000000000e+00,7.630000000000000000e+02,4.169499874114990234e-01,1.710115194320678711e+00,2.998008886324139421e-01,0.000000000000000000e+00,0.000000000000000000e+00,1.110000000000000000e+02
0.000000000000000000e+00,0.000000000000000000e+00,1.000000000000000000e+00,0.000000000000000000e+00,7.620000000000000000e+02,3.233201503753662109e-01,1.825315952301025391e+00,5.083333258152458178e-01,0.000000000000000000e+00,0.000000000000000000e+00,1.110000000000000000e+02
0.000000000000000000e+00,1.000000000000000000e+00,0.000000000000000000e+00,3.000000000000000000e+00,7.640000000000000000e+02,2.456831932067871094e-01,1.621592998504638672e+00,3.800701141499233660e-01,0.000000000000000000e+00,0.000000000000000000e+00,1.110000000000000000e+02
1.000000000000000000e+00,1.000000000000000000e+00,1.000000000000000000e+00,0.000000000000000000e+00,7.640000000000000000e+02,1.118084907531738281e+00,2.761698007583618164e+00,6.250015188304773872e-01,-1.000000000000000000e+00,-1.000000000000000000e+00,1.110000000000000000e+02
0.000000000000000000e+00,0.000000000000000000e+00,1.000000000000000000e+00,0.000000000000000000e+00,7.630000000000000000e+02,2.955420017242431641e-01,1.987348079681396484e+00,6.956661670298985856e-01,0.000000000000000000e+00,0.000000000000000000e+00,1.110000000000000000e+02
0.000000000000000000e+00,0.000000000000000000e+00,1.000000000000000000e+00,0.000000000000000000e+00,7.620000000000000000e+02,3.432860374450683594e-01,1.676533937454223633e+00,3.559482189757918746e-01,0.000000000000000000e+00,1.000000000000000000e+00,1.120000000000000000e+02
0.000000000000000000e+00,1.000000000000000000e+00,0.000000000000000000e+00,3.000000000000000000e+00,7.640000000000000000e+02,4.139909744262695312e-01,1.996158123016357422e+00,5.852816063343510011e-01,1.000000000000000000e+00,0.000000000000000000e+00,1.120000000000000000e+02
1.000000000000000000e+00,0.000000000000000000e+00,0.000000000000000000e+00,0.000000000000000000e+00,7.630000000000000000e+02,2.330429553985595703e-01,1.614042043685913086e+00,3.828926692818512834e-01,0.000000000000000000e+00,0.000000000000000000e+00,1.120000000000000000e+02
1.000000000000000000e+00,0.000000000000000000e+00,0.000000000000000000e+00,0.000000000000000000e+00,7.620000000000000000e+02,4.735050201416015625e-01,1.759159088134765625e+00,2.922500506149189325e-01,0.000000000000000000e+00,1.000000000000000000e+00,1.110000000000000000e+02
0.000000000000000000e+00,1.000000000000000000e+00,0.000000000000000000e+00,2.000000000000000000e+00,7.630000000000000000e+02,3.754789829254150391e-01,1.929884910583496094e+00,5.718783808260329282e-01,0.000000000000000000e+00,0.000000000000000000e+00,1.110000000000000000e+02
0.000000000000000000e+00,0.000000000000000000e+00,1.000000000000000000e+00,0.000000000000000000e+00,7.620000000000000000e+02,1.181468963623046875e-01,1.565994977951049805e+00,4.547093896639365362e-01,0.000000000000000000e+00,1.000000000000000000e+00,1.120000000000000000e+02
0.000000000000000000e+00,0.000000000000000000e+00,1.000000000000000000e+00,0.000000000000000000e+00,7.610000000000000000e+02,4.085710048675537109e-01,1.815796136856079102e+00,4.205710418357460623e-01,0.000000000000000000e+00,0.000000000000000000e+00,1.120000000000000000e+02
0.000000000000000000e+00,1.000000000000000000e+00,0.000000000000000000e+00,1.000000000000000000e+00,7.610000000000000000e+02,3.649239540100097656e-01,1.646874904632568359e+00,2.843295606881394710e-01,0.000000000000000000e+00,0.000000000000000000e+00,1.120000000000000000e+02
1.000000000000000000e+00,1.000000000000000000e+00,1.000000000000000000e+00,2.000000000000000000e+00,7.620000000000000000e+02,3.731110095977783203e-01,1.981232166290283203e+00,6.153026804864534238e-01,0.000000000000000000e+00,0.000000000000000000e+00,1.120000000000000000e+02
1.000000000000000000e+00,1.000000000000000000e+00,1.000000000000000000e+00,2.000000000000000000e+00,7.630000000000000000e+02,3.488090038299560547e-01,1.970672845840454102e+00,6.193672023620382383e-01,0.000000000000000000e+00,0.000000000000000000e+00,1.120000000000000000e+02
0.000000000000000000e+00,0.000000000000000000e+00,1.000000000000000000e+00,0.000000000000000000e+00,7.620000000000000000e+02,4.901480674743652344e-01,2.133578062057495117e+00,6.530168883804340352e-01,0.000000000000000000e+00,0.000000000000000000e+00,1.120000000000000000e+02
1.000000000000000000e+00,1.000000000000000000e+00,1.000000000000000000e+00,3.000000000000000000e+00,7.640000000000000000e+02,1.988980770111083984e-01,1.853478908538818359e+00,6.565301053541352516e-01,0.000000000000000000e+00,0.000000000000000000e+00,1.120000000000000000e+02
0.000000000000000000e+00,1.000000000000000000e+00,0.000000000000000000e+00,3.000000000000000000e+00,7.660000000000000000e+02,3.210921287536621094e-01,1.855780124664306641e+00,5.461090715177288057e-01,0.000000000000000000e+00,0.000000000000000000e+00,1.120000000000000000e+02
0.000000000000000000e+00,0.000000000000000000e+00,1.000000000000000000e+00,0.000000000000000000e+00,7.650000000000000000e+02,2.900390625000000000e-01,1.925652980804443359e+00,6.547852170944246097e-01,1.000000000000000000e+00,1.000000000000000000e+00,1.110000000000000000e+02
1.000000000000000000e+00,1.000000000000000000e+00,1.000000000000000000e+00,0.000000000000000000e+00,7.650000000000000000e+02,1.617764234542846680e+00,3.045094966888427734e+00,4.002370135732750134e-01,-1.000000000000000000e+00,-1.000000000000000000e+00,1.120000000000000000e+02
1.000000000000000000e+00,0.000000000000000000e+00,0.000000000000000000e+00,0.000000000000000000e+00,7.640000000000000000e+02,2.690079212188720703e-01,1.971362113952636719e+00,7.047229475783627350e-01,0.000000000000000000e+00,1.000000000000000000e+00,1.110000000000000000e+02
0.000000000000000000e+00,0.000000000000000000e+00,1.000000000000000000e+00,0.000000000000000000e+00,7.630000000000000000e+02,2.513918876647949219e-01,1.977990865707397461e+00,7.327406370121459789e-01,0.000000000000000000e+00,1.000000000000000000e+00,1.120000000000000000e+02
1.000000000000000000e+00,1.000000000000000000e+00,1.000000000000000000e+00,2.000000000000000000e+00,7.640000000000000000e+02,2.239871025085449219e-01,1.736860036849975586e+00,5.198683090667473028e-01,0.000000000000000000e+00,0.000000000000000000e+00,1.120000000000000000e+02
1.000000000000000000e+00,1.000000000000000000e+00,1.000000000000000000e+00,1.000000000000000000e+00,7.640000000000000000e+02,2.877228260040283203e-01,1.576699018478393555e+00,2.968682924547375035e-01,0.000000000000000000e+00,0.000000000000000000e+00,1.120000000000000000e+02
0.000000000000000000e+00,1.000000000000000000e+00,0.000000000000000000e+00,1.000000000000000000e+00,7.640000000000000000e+02,2.901370525360107422e-01,1.792018175125122070e+00,5.220411750696147823e-01,0.000000000000000000e+00,0.000000000000000000e+00,1.120000000000000000e+02
1.000000000000000000e+00,1.000000000000000000e+00,1.000000000000000000e+00,4.000000000000000000e+00,7.670000000000000000e+02,3.072130680084228516e-01,1.984045028686523438e+00,6.893472885975620024e-01,0.000000000000000000e+00,0.000000000000000000e+00,1.120000000000000000e+02
0.000000000000000000e+00,1.000000000000000000e+00,0.000000000000000000e+00,3.000000000000000000e+00,7.690000000000000000e+02,2.799479961395263672e-01,1.601589918136596680e+00,3.247018352815765896e-01,0.000000000000000000e+00,0.000000000000000000e+00,1.120000000000000000e+02
0.000000000000000000e+00,1.000000000000000000e+00,0.000000000000000000e+00,3.000000000000000000e+00,7.710000000000000000e+02,2.859420776367187500e-01,1.909464120864868164e+00,6.339089077292736629e-01,0.000000000000000000e+00,0.000000000000000000e+00,1.120000000000000000e+02
1.000000000000000000e+00,1.000000000000000000e+00,1.000000000000000000e+00,2.000000000000000000e+00,7.720000000000000000e+02,3.113389015197753906e-01,2.054793834686279297e+00,7.386312871522869861e-01,0.000000000000000000e+00,0.000000000000000000e+00,1.120000000000000000e+02
1.000000000000000000e+00,1.000000000000000000e+00,1.000000000000000000e+00,3.000000000000000000e+00,7.740000000000000000e+02,3.185319900512695312e-01,1.823859214782714844e+00,5.128272274073147896e-01,0.000000000000000000e+00,0.000000000000000000e+00,1.120000000000000000e+02
1.000000000000000000e+00,0.000000000000000000e+00,0.000000000000000000e+00,0.000000000000000000e+00,7.730000000000000000e+02,3.148999214172363281e-01,1.575882911682128906e+00,2.723059905824997684e-01,0.000000000000000000e+00,1.000000000000000000e+00,1.110000000000000000e+02
1.000000000000000000e+00,0.000000000000000000e+00,0.000000000000000000e+00,0.000000000000000000e+00,7.720000000000000000e+02,3.348691463470458984e-01,1.895488977432250977e+00,5.675996114886262545e-01,0.000000000000000000e+00,1.000000000000000000e+00,1.120000000000000000e+02
0.000000000000000000e+00,1.000000000000000000e+00,0.000000000000000000e+00,2.000000000000000000e+00,7.730000000000000000e+02,2.275860309600830078e-01,1.904423952102661133e+00,6.885934489285747695e-01,0.000000000000000000e+00,1.000000000000000000e+00,1.110000000000000000e+02
1.000000000000000000e+00,1.000000000000000000e+00,1.000000000000000000e+00,3.000000000000000000e+00,7.750000000000000000e+02,3.187038898468017578e-01,1.774412155151367188e+00,4.633497938798744054e-01,1.000000000000000000e+00,0.000000000000000000e+00,1.110000000000000000e+02
1.000000000000000000e+00,0.000000000000000000e+00,0.000000000000000000e+00,0.000000000000000000e+00,7.740000000000000000e+02,5.540750026702880859e-01,1.902446031570434570e+00,3.659598353545590044e-01,0.000000000000000000e+00,1.000000000000000000e+00,1.120000000000000000e+02
0.000000000000000000e+00,0.000000000000000000e+00,1.000000000000000000e+00,0.000000000000000000e+00,7.730000000000000000e+02,2.914869785308837891e-01,1.666562080383300781e+00,3.825540870074121691e-01,0.000000000000000000e+00,1.000000000000000000e+00,1.110000000000000000e+02
0.000000000000000000e+00,1.000000000000000000e+00,0.000000000000000000e+00,3.000000000000000000e+00,7.750000000000000000e+02,3.677959442138671875e-01,2.038770914077758789e+00,6.711252111034202716e-01,0.000000000000000000e+00,0.000000000000000000e+00,1.110000000000000000e+02
0.000000000000000000e+00,1.000000000000000000e+00,0.000000000000000000e+00,3.000000000000000000e+00,7.770000000000000000e+02,3.386299610137939453e-01,1.903825998306274414e+00,5.751120269909145710e-01,0.000000000000000000e+00,0.000000000000000000e+00,1.110000000000000000e+02
0.000000000000000000e+00,0.000000000000000000e+00,1.000000000000000000e+00,0.000000000000000000e+00,7.760000000000000000e+02,2.166650295257568359e-01,1.908916950225830078e+00,7.006387508960592037e-01,0.000000000000000000e+00,0.000000000000000000e+00,1.110000000000000000e+02
1.000000000000000000e+00,1.000000000000000000e+00,1.000000000000000000e+00,4.000000000000000000e+00,7.790000000000000000e+02,1.650979518890380859e-01,1.594915866851806641e+00,4.292062867172234397e-01,0.000000000000000000e+00,1.000000000000000000e+00,1.120000000000000000e+02
1.000000000000000000e+00,0.000000000000000000e+00,0.000000000000000000e+00,0.000000000000000000e+00,7.780000000000000000e+02,3.417801856994628906e-01,1.762237071990966797e+00,4.415073310881512669e-01,0.000000000000000000e+00,1.000000000000000000e+00,1.110000000000000000e+02
1.000000000000000000e+00,0.000000000000000000e+00,0.000000000000000000e+00,0.000000000000000000e+00,7.780000000000000000e+02,1.466160058975219727e+00,2.897589921951293945e+00,4.059326560289229779e-01,-1.000000000000000000e+00,-1.000000000000000000e+00,1.120000000000000000e+02
1.000000000000000000e+00,1.000000000000000000e+00,1.000000000000000000e+00,1.000000000000000000e+00,7.780000000000000000e+02,1.673038005828857422e-01,1.639561891555786133e+00,4.788057387657579933e-01,0.000000000000000000e+00,1.000000000000000000e+00,1.110000000000000000e+02
0.000000000000000000e+00,0.000000000000000000e+00,1.000000000000000000e+00,0.000000000000000000e+00,7.770000000000000000e+02,2.900750637054443359e-01,1.755760908126831055e+00,4.845940742561294923e-01,0.000000000000000000e+00,0.000000000000000000e+00,1.110000000000000000e+02
1.000000000000000000e+00,1.000000000000000000e+00,1.000000000000000000e+00,1.000000000000000000e+00,7.770000000000000000e+02,2.843940258026123047e-01,1.786033153533935547e+00,5.040026732209137439e-01,0.000000000000000000e+00,0.000000000000000000e+00,1.110000000000000000e+02
0.000000000000000000e+00,0.000000000000000000e+00,1.000000000000000000e+00,0.000000000000000000e+00,7.760000000000000000e+02,2.952060699462890625e-01,1.944628000259399414e+00,6.485564727372452598e-01,0.000000000000000000e+00,1.000000000000000000e+00,1.120000000000000000e+02
0.000000000000000000e+00,1.000000000000000000e+00,0.000000000000000000e+00,4.000000000000000000e+00,7.790000000000000000e+02,2.643039226531982422e-01,1.868520975112915039e+00,6.005391305319289774e-01,0.000000000000000000e+00,0.000000000000000000e+00,1.120000000000000000e+02
1.000000000000000000e+00,1.000000000000000000e+00,1.000000000000000000e+00,2.000000000000000000e+00,7.800000000000000000e+02,1.766550540924072266e-01,1.577540874481201172e+00,4.116747736445381944e-01,0.000000000000000000e+00,0.000000000000000000e+00,1.120000000000000000e+02
0.000000000000000000e+00,1.000000000000000000e+00,0.000000000000000000e+00,2.000000000000000000e+00,7.810000000000000000e+02,2.840149402618408203e-01,1.695451974868774414e+00,4.238475599969482865e-01,1.000000000000000000e+00,1.000000000000000000e+00,1.110000000000000000e+02
1.000000000000000000e+00,0.000000000000000000e+00,0.000000000000000000e+00,0.000000000000000000e+00,7.810000000000000000e+02,1.789154052734375000e+00,3.417579174041748047e+00,6.080692178605904274e-01,-1.000000000000000000e+00,-1.000000000000000000e+00,1.110000000000000000e+02
1.000000000000000000e+00,0.000000000000000000e+00,0.000000000000000000e+00,0.000000000000000000e+00,7.800000000000000000e+02,1.796078681945800781e-01,1.849967002868652344e+00,6.746720554504394007e-01,0.000000000000000000e+00,0.000000000000000000e+00,1.110000000000000000e+02
0.000000000000000000e+00,0.000000000000000000e+00,1.000000000000000000e+00,0.000000000000000000e+00,7.790000000000000000e+02,2.526481151580810547e-01,1.638073921203613281e+00,3.964296708398427072e-01,0.000000000000000000e+00,0.000000000000000000e+00,1.110000000000000000e+02
1.000000000000000000e+00,1.000000000000000000e+00,1.000000000000000000e+00,4.000000000000000000e+00,7.820000000000000000e+02,2.333569526672363281e-01,1.660466909408569336e+00,4.402430229408045292e-01,0.000000000000000000e+00,0.000000000000000000e+00,1.110000000000000000e+02
1.000000000000000000e+00,1.000000000000000000e+00,1.000000000000000000e+00,3.000000000000000000e+00,7.840000000000000000e+02,2.697792053222656250e-01,1.724180936813354492e+00,4.644631284536361870e-01,0.000000000000000000e+00,0.000000000000000000e+00,1.110000000000000000e+02
1.000000000000000000e+00,1.000000000000000000e+00,1.000000000000000000e+00,1.000000000000000000e+00,7.840000000000000000e+02,2.671451568603515625e-01,1.576170921325683594e+00,3.241733453710308188e-01,0.000000000000000000e+00,0.000000000000000000e+00,1.110000000000000000e+02
1.000000000000000000e+00,0.000000000000000000e+00,0.000000000000000000e+00,0.000000000000000000e+00,7.830000000000000000e+02,2.788529396057128906e-01,1.948364019393920898e+00,6.722325422613717461e-01,0.000000000000000000e+00,1.000000000000000000e+00,1.120000000000000000e+02
1.000000000000000000e+00,0.000000000000000000e+00,0.000000000000000000e+00,0.000000000000000000e+00,7.820000000000000000e+02,2.298779487609863281e-01,1.920171022415161133e+00,6.924724368680338360e-01,0.000000000000000000e+00,0.000000000000000000e+00,1.120000000000000000e+02
0.000000000000000000e+00,0.000000000000000000e+00,1.000000000000000000e+00,0.000000000000000000e+00,7.810000000000000000e+02,2.462530136108398438e-01,1.646588087081909180e+00,4.060889418660070249e-01,0.000000000000000000e+00,1.000000000000000000e+00,1.110000000000000000e+02
0.000000000000000000e+00,0.000000000000000000e+00,1.000000000000000000e+00,0.000000000000000000e+00,7.800000000000000000e+02,2.422909736633300781e-01,1.674352884292602539e+00,4.471167796117510584e-01,0.000000000000000000e+00,0.000000000000000000e+00,1.110000000000000000e+02
1.000000000000000000e+00,1.000000000000000000e+00,1.000000000000000000e+00,1.000000000000000000e+00,7.800000000000000000e+02,3.317809104919433594e-01,1.611240148544311523e+00,2.919239236690983619e-01,0.000000000000000000e+00,0.000000000000000000e+00,1.110000000000000000e+02
1.000000000000000000e+00,0.000000000000000000e+00,0.000000000000000000e+00,0.000000000000000000e+00,7.790000000000000000e+02,2.791810035705566406e-01,1.927549839019775391e+00,6.524772174919180046e-01,0.000000000000000000e+00,0.000000000000000000e+00,1.110000000000000000e+02
0.000000000000000000e+00,0.000000000000000000e+00,1.000000000000000000e+00,0.000000000000000000e+00,7.780000000000000000e+02,4.650192260742187500e-01,2.164790701866149902e+01,4.181015583757870524e-01,1.000000000000000000e+00,1.000000000000000000e+00,1.120000000000000000e+02
1.000000000000000000e+00,0.000000000000000000e+00,0.000000000000000000e+00,0.000000000000000000e+00,7.770000000000000000e+02,3.046000003814697266e-01,2.018414020538330078e+00,7.195990131232862241e-01,0.000000000000000000e+00,1.000000000000000000e+00,1.110000000000000000e+02
1.000000000000000000e+00,1.000000000000000000e+00,1.000000000000000000e+00,1.000000000000000000e+00,7.770000000000000000e+02,2.319910526275634766e-01,1.585699081420898438e+00,3.557431838577957417e-01,0.000000000000000000e+00,1.000000000000000000e+00,1.120000000000000000e+02
1.000000000000000000e+00,0.000000000000000000e+00,0.000000000000000000e+00,0.000000000000000000e+00,7.760000000000000000e+02,2.537140846252441406e-01,1.584315061569213867e+00,3.401201493281352795e-01,0.000000000000000000e+00,1.000000000000000000e+00,1.110000000000000000e+02
0.000000000000000000e+00,0.000000000000000000e+00,1.000000000000000000e+00,0.000000000000000000e+00,7.750000000000000000e+02,2.775270938873291016e-01,1.862200021743774414e+00,6.021428752827959752e-01,0.000000000000000000e+00,1.000000000000000000e+00,1.120000000000000000e+02
1.000000000000000000e+00,0.000000000000000000e+00,0.000000000000000000e+00,0.000000000000000000e+00,7.740000000000000000e+02,2.748019695281982422e-01,1.748175144195556641e+00,4.838270393560520355e-01,0.000000000000000000e+00,0.000000000000000000e+00,1.120000000000000000e+02
1.000000000000000000e+00,1.000000000000000000e+00,1.000000000000000000e+00,2.000000000000000000e+00,7.750000000000000000e+02,2.798721790313720703e-01,1.583570003509521484e+00,3.009875262065001555e-01,0.000000000000000000e+00,0.000000000000000000e+00,1.120000000000000000e+02
0.000000000000000000e+00,0.000000000000000000e+00,1.000000000000000000e+00,0.000000000000000000e+00,7.740000000000000000e+02,2.506351470947265625e-01,1.731544017791748047e+00,4.823916000899045597e-01,0.000000000000000000e+00,1.000000000000000000e+00,1.110000000000000000e+02
0.000000000000000000e+00,1.000000000000000000e+00,0.000000000000000000e+00,3.000000000000000000e+00,7.760000000000000000e+02,2.654550075531005859e-01,1.794275999069213867e+00,5.266465928792884998e-01,0.000000000000000000e+00,0.000000000000000000e+00,1.110000000000000000e+02
0.000000000000000000e+00,1.000000000000000000e+00,0.000000000000000000e+00,2.000000000000000000e+00,7.770000000000000000e+02,2.791562080383300781e-01,1.703417062759399414e+00,4.302684688649726086e-01,0.000000000000000000e+00,0.000000000000000000e+00,1.110000000000000000e+02
1.000000000000000000e+00,0.000000000000000000e+00,0.000000000000000000e+00,0.000000000000000000e+00,7.760000000000000000e+02,4.402270317077636719e-01,1.855188131332397461e+00,4.355095400572828179e-01,0.000000000000000000e+00,1.000000000000000000e+00,1.120000000000000000e+02
1.000000000000000000e+00,0.000000000000000000e+00,0.000000000000000000e+00,0.000000000000000000e+00,7.750000000000000000e+02,3.446459770202636719e-01,1.849238872528076172e+00,5.180560904907312025e-01,0.000000000000000000e+00,0.000000000000000000e+00,1.120000000000000000e+02
0.000000000000000000e+00,0.000000000000000000e+00,1.000000000000000000e+00,0.000000000000000000e+00,7.740000000000000000e+02,3.997099399566650391e-01,2.108520030975341797e+00,7.097666559987434454e-01,0.000000000000000000e+00,0.000000000000000000e+00,1.120000000000000000e+02
1.000000000000000000e+00,1.000000000000000000e+00,1.000000000000000000e+00,3.000000000000000000e+00,7.760000000000000000e+02,3.216440677642822266e-01,2.053752183914184570e+00,7.468676763056633083e-01,0.000000000000000000e+00,0.000000000000000000e+00,1.120000000000000000e+02
1.000000000000000000e+00,1.000000000000000000e+00,1.000000000000000000e+00,4.000000000000000000e+00,7.790000000000000000e+02,2.897641658782958984e-01,1.564141035079956055e+00,2.948914915641897561e-01,0.000000000000000000e+00,0.000000000000000000e+00,1.120000000000000000e+02
1.000000000000000000e+00,0.000000000000000000e+00,0.000000000000000000e+00,0.000000000000000000e+00,7.780000000000000000e+02,3.001160621643066406e-01,1.744338989257812500e+00,4.557834129960843250e-01,1.000000000000000000e+00,1.000000000000000000e+00,1.110000000000000000e+02
0.000000000000000000e+00,0.000000000000000000e+00,1.000000000000000000e+00,0.000000000000000000e+00,7.770000000000000000e+02,2.762901782989501953e-01,1.841013908386230469e+00,5.800717141827851364e-01,0.000000000000000000e+00,0.000000000000000000e+00,1.110000000000000000e+02
1.000000000000000000e+00,0.000000000000000000e+00,0.000000000000000000e+00,0.000000000000000000e+00,7.760000000000000000e+02,2.829768657684326172e-01,1.840672016143798828e+00,5.708279449777760028e-01,0.000000000000000000e+00,0.000000000000000000e+00,1.110000000000000000e+02
1.000000000000000000e+00,0.000000000000000000e+00,0.000000000000000000e+00,0.000000000000000000e+00,7.750000000000000000e+02,2.639870643615722656e-01,1.961610078811645508e+00,6.990558829300090871e-01,0.000000000000000000e+00,1.000000000000000000e+00,1.120000000000000000e+02
1.000000000000000000e+00,0.000000000000000000e+00,0.000000000000000000e+00,0.000000000000000000e+00,7.740000000000000000e+02,3.213491439819335938e-01,2.025840044021606445e+00,7.082855467905992963e-01,0.000000000000000000e+00,1.000000000000000000e+00,1.110000000000000000e+02
0.000000000000000000e+00,1.000000000000000000e+00,0.000000000000000000e+00,2.000000000000000000e+00,7.750000000000000000e+02,2.697582244873046875e-01,1.932809114456176758e+00,6.745002811466109804e-01,0.000000000000000000e+00,0.000000000000000000e+00,1.110000000000000000e+02
1.000000000000000000e+00,0.000000000000000000e+00,0.000000000000000000e+00,0.000000000000000000e+00,7.740000000000000000e+02,2.794971466064453125e-01,1.717947959899902344e+00,4.427805845123952144e-01,0.000000000000000000e+00,1.000000000000000000e+00,1.120000000000000000e+02
0.000000000000000000e+00,0.000000000000000000e+00,1.000000000000000000e+00,0.000000000000000000e+00,7.730000000000000000e+02,3.028500080108642578e-01,1.629745006561279297e+00,3.393439523834212435e-01,0.000000000000000000e+00,1.000000000000000000e+00,1.110000000000000000e+02
0.000000000000000000e+00,1.000000000000000000e+00,0.000000000000000000e+00,3.000000000000000000e+00,7.750000000000000000e+02,2.956769466400146484e-01,1.851356029510498047e+00,5.571991772099161855e-01,0.000000000000000000e+00,0.000000000000000000e+00,1.110000000000000000e+02
1.000000000000000000e+00,0.000000000000000000e+00,0.000000000000000000e+00,0.000000000000000000e+00,7.740000000000000000e+02,2.497031688690185547e-01,1.743154048919677734e+00,5.004646583161078688e-01,0.000000000000000000e+00,1.000000000000000000e+00,1.120000000000000000e+02
0.000000000000000000e+00,1.000000000000000000e+00,0.000000000000000000e+00,4.000000000000000000e+00,7.770000000000000000e+02,3.207380771636962891e-01,1.892619132995605469e+00,5.764308861468270262e-01,0.000000000000000000e+00,0.000000000000000000e+00,1.120000000000000000e+02
0.000000000000000000e+00,0.000000000000000000e+00,1.000000000000000000e+00,0.000000000000000000e+00,7.760000000000000000e+02,3.285441398620605469e-01,1.976346015930175781e+00,6.694192360228941041e-01,0.000000000000000000e+00,1.000000000000000000e+00,1.110000000000000000e+02
1.000000000000000000e+00,0.000000000000000000e+00,0.000000000000000000e+00,0.000000000000000000e+00,7.750000000000000000e+02,2.172460556030273438e-01,1.891165018081665039e+00,6.773203133426393130e-01,1.000000000000000000e+00,1.000000000000000000e+00,1.120000000000000000e+02
1.000000000000000000e+00,0.000000000000000000e+00,0.000000000000000000e+00,0.000000000000000000e+00,7.740000000000000000e+02,3.390340805053710938e-01,1.649083852767944336e+00,3.268003507051685519e-01,0.000000000000000000e+00,1.000000000000000000e+00,1.110000000000000000e+02
0.000000000000000000e+00,0.000000000000000000e+00,1.000000000000000000e+00,0.000000000000000000e+00,7.730000000000000000e+02,3.290650844573974609e-01,1.969660043716430664e+00,6.462390453218084252e-01,0.000000000000000000e+00,1.000000000000000000e+00,1.120000000000000000e+02
1.000000000000000000e+00,0.000000000000000000e+00,0.000000000000000000e+00,0.000000000000000000e+00,7.720000000000000000e+02,2.954630851745605469e-01,1.739356994628906250e+00,4.525662945469292042e-01,0.000000000000000000e+00,1.000000000000000000e+00,1.110000000000000000e+02
1.000000000000000000e+00,1.000000000000000000e+00,1.000000000000000000e+00,2.000000000000000000e+00,7.730000000000000000e+02,3.034918308258056641e-01,1.723945856094360352e+00,4.265972785455550698e-01,0.000000000000000000e+00,0.000000000000000000e+00,1.110000000000000000e+02
0.000000000000000000e+00,0.000000000000000000e+00,1.000000000000000000e+00,0.000000000000000000e+00,7.720000000000000000e+02,3.750250339508056641e-01,2.014093160629272461e+00,6.571936708073045086e-01,0.000000000000000000e+00,1.000000000000000000e+00,1.120000000000000000e+02
1.000000000000000000e+00,0.000000000000000000e+00,0.000000000000000000e+00,0.000000000000000000e+00,7.710000000000000000e+02,3.064041137695312500e-01,2.011018037796020508e+00,7.181755767271535973e-01,0.000000000000000000e+00,0.000000000000000000e+00,1.120000000000000000e+02
1.000000000000000000e+00,0.000000000000000000e+00,0.000000000000000000e+00,0.000000000000000000e+00,7.700000000000000000e+02,3.437459468841552734e-01,1.858729839324951172e+00,5.271535920446974721e-01,0.000000000000000000e+00,0.000000000000000000e+00,1.120000000000000000e+02
1.000000000000000000e+00,1.000000000000000000e+00,1.000000000000000000e+00,3.000000000000000000e+00,7.720000000000000000e+02,6.607859134674072266e-01,2.080463886260986328e+00,4.244750480197607145e-01,0.000000000000000000e+00,0.000000000000000000e+00,1.120000000000000000e+02
0.000000000000000000e+00,0.000000000000000000e+00,1.000000000000000000e+00,0.000000000000000000e+00,7.710000000000000000e+02,2.734920978546142578e-01,1.712146043777465820e+00,4.533327872365259248e-01,0.000000000000000000e+00,1.000000000000000000e+00,1.110000000000000000e+02
0.000000000000000000e+00,0.000000000000000000e+00,1.000000000000000000e+00,0.000000000000000000e+00,7.700000000000000000e+02,2.919261455535888672e-01,1.830532073974609375e+00,5.504810318064378150e-01,0.000000000000000000e+00,1.000000000000000000e+00,1.120000000000000000e+02
1.000000000000000000e+00,1.000000000000000000e+00,1.000000000000000000e+00,1.000000000000000000e+00,7.700000000000000000e+02,2.896149158477783203e-01,1.956560134887695312e+00,6.736504729762158306e-01,0.000000000000000000e+00,0.000000000000000000e+00,1.120000000000000000e+02
0.000000000000000000e+00,0.000000000000000000e+00,1.000000000000000000e+00,0.000000000000000000e+00,7.690000000000000000e+02,2.747311592102050781e-01,1.793280839920043945e+00,5.338326666104007412e-01,0.000000000000000000e+00,1.000000000000000000e+00,1.110000000000000000e+02
0.000000000000000000e+00,0.000000000000000000e+00,1.000000000000000000e+00,0.000000000000000000e+00,7.680000000000000000e+02,3.857550621032714844e-01,2.065218925476074219e+00,6.823106976938535517e-01,0.000000000000000000e+00,1.000000000000000000e+00,1.120000000000000000e+02
0.000000000000000000e+00,1.000000000000000000e+00,0.000000000000000000e+00,1.000000000000000000e+00,7.680000000000000000e+02,3.071999549865722656e-01,1.880155086517333984e+00,5.792658528499801118e-01,0.000000000000000000e+00,0.000000000000000000e+00,1.120000000000000000e+02
0.000000000000000000e+00,0.000000000000000000e+00,1.000000000000000000e+00,0.000000000000000000e+00,7.670000000000000000e+02,4.577190876007080078e-01,2.158555984497070312e+00,7.211183419031399477e-01,0.000000000000000000e+00,0.000000000000000000e+00,1.120000000000000000e+02
0.000000000000000000e+00,0.000000000000000000e+00,1.000000000000000000e+00,0.000000000000000000e+00,7.660000000000000000e+02,4.260108470916748047e-01,1.998728990554809570e+00,5.867112973147132760e-01,0.000000000000000000e+00,1.000000000000000000e+00,1.110000000000000000e+02
1.000000000000000000e+00,1.000000000000000000e+00,1.000000000000000000e+00,2.000000000000000000e+00,7.670000000000000000e+02,2.310960292816162109e-01,1.753308773040771484e+00,5.235121201239910649e-01,1.000000000000000000e+00,0.000000000000000000e+00,1.110000000000000000e+02
0.000000000000000000e+00,0.000000000000000000e+00,1.000000000000000000e+00,0.000000000000000000e+00,7.660000000000000000e+02,3.191010951995849609e-01,1.726329803466796875e+00,4.166823734131854806e-01,0.000000000000000000e+00,0.000000000000000000e+00,1.110000000000000000e+02
0.000000000000000000e+00,1.000000000000000000e+00,0.000000000000000000e+00,3.000000000000000000e+00,7.680000000000000000e+02,3.608391284942626953e-01,1.851491928100585938e+00,5.014832530340022076e-01,0.000000000000000000e+00,0.000000000000000000e+00,1.110000000000000000e+02
1.000000000000000000e+00,1.000000000000000000e+00,1.000000000000000000e+00,0.000000000000000000e+00,7.670000000000000000e+02,2.869670391082763672e-01,1.535058975219726562e+00,2.535442352949407452e-01,0.000000000000000000e+00,0.000000000000000000e+00,1.110000000000000000e+02
0.000000000000000000e+00,0.000000000000000000e+00,1.000000000000000000e+00,0.000000000000000000e+00,7.660000000000000000e+02,8.996219635009765625e-01,2.319369077682495117e+00,4.227940720472480596e-01,0.000000000000000000e+00,1.000000000000000000e+00,1.120000000000000000e+02
1.000000000000000000e+00,1.000000000000000000e+00,1.000000000000000000e+00,3.000000000000000000e+00,7.680000000000000000e+02,3.070337772369384766e-01,1.687957048416137695e+00,3.941650781249307900e-01,0.000000000000000000e+00,1.000000000000000000e+00,1.110000000000000000e+02
0.000000000000000000e+00,1.000000000000000000e+00,0.000000000000000000e+00,2.000000000000000000e+00,7.690000000000000000e+02,3.677368164062500000e-01,1.869641065597534180e+00,5.137828935313928369e-01,0.000000000000000000e+00,0.000000000000000000e+00,1.110000000000000000e+02
1.000000000000000000e+00,1.000000000000000000e+00,1.000000000000000000e+00,4.000000000000000000e+00,7.720000000000000000e+02,2.161319255828857422e-01,1.909855127334594727e+00,7.068304532203300017e-01,0.000000000000000000e+00,0.000000000000000000e+00,1.110000000000000000e+02
1.000000000000000000e+00,0.000000000000000000e+00,0.000000000000000000e+00,0.000000000000000000e+00,7.710000000000000000e+02,3.334810733795166016e-01,1.576987981796264648e+00,2.510114134060832392e-01,0.000000000000000000e+00,1.000000000000000000e+00,1.120000000000000000e+02
0.000000000000000000e+00,0.000000000000000000e+00,1.000000000000000000e+00,0.000000000000000000e+00,7.700000000000000000e+02,3.402831554412841797e-01,1.736263990402221680e+00,4.038658953721793732e-01,0.000000000000000000e+00,1.000000000000000000e+00,1.110000000000000000e+02
0.000000000000000000e+00,0.000000000000000000e+00,1.000000000000000000e+00,0.000000000000000000e+00,7.690000000000000000e+02,3.370230197906494141e-01,1.875697851181030273e+00,5.461305313875539635e-01,0.000000000000000000e+00,0.000000000000000000e+00,1.110000000000000000e+02
0.000000000000000000e+00,0.000000000000000000e+00,1.000000000000000000e+00,0.000000000000000000e+00,7.680000000000000000e+02,4.284131526947021484e-01,2.055624008178710938e+00,6.517130745757964139e-01,0.000000000000000000e+00,0.000000000000000000e+00,1.110000000000000000e+02
1.000000000000000000e+00,1.000000000000000000e+00,1.000000000000000000e+00,3.000000000000000000e+00,7.700000000000000000e+02,3.061959743499755859e-01,1.556710958480834961e+00,2.589042104790750254e-01,0.000000000000000000e+00,1.000000000000000000e+00,1.120000000000000000e+02
