choice, accuracy, solution,  reward, cumulative_reward, rt,  total_trial_time, iti, cp_with_slow_fast, obs_cp_with_slow_fast, high_val_cue
1.000000000000000000e+00,1.000000000000000000e+00,1.000000000000000000e+00,3.000000000000000000e+00,6.020000000000000000e+02,9.581179618835449219e-01,2.399617195129394531e+00,4.512099041224023055e-01,0.000000000000000000e+00,0.000000000000000000e+00,1.120000000000000000e+02
1.000000000000000000e+00,0.000000000000000000e+00,0.000000000000000000e+00,0.000000000000000000e+00,6.010000000000000000e+02,4.232161045074462891e-01,1.671957969665527344e+00,2.567379422158460600e-01,0.000000000000000000e+00,1.000000000000000000e+00,1.110000000000000000e+02
1.000000000000000000e+00,1.000000000000000000e+00,1.000000000000000000e+00,3.000000000000000000e+00,6.030000000000000000e+02,3.636050224304199219e-01,1.803508043289184570e+00,4.434237099666480941e-01,0.000000000000000000e+00,1.000000000000000000e+00,1.120000000000000000e+02
1.000000000000000000e+00,1.000000000000000000e+00,1.000000000000000000e+00,2.000000000000000000e+00,6.040000000000000000e+02,3.775670528411865234e-01,2.070646047592163086e+00,6.971735145271653611e-01,0.000000000000000000e+00,0.000000000000000000e+00,1.120000000000000000e+02
0.000000000000000000e+00,0.000000000000000000e+00,1.000000000000000000e+00,0.000000000000000000e+00,6.030000000000000000e+02,2.720360755920410156e-01,1.919775009155273438e+00,6.670019481232518643e-01,0.000000000000000000e+00,1.000000000000000000e+00,1.110000000000000000e+02
0.000000000000000000e+00,0.000000000000000000e+00,1.000000000000000000e+00,0.000000000000000000e+00,6.020000000000000000e+02,3.227961063385009766e-01,1.733072996139526367e+00,4.170164475645801172e-01,0.000000000000000000e+00,0.000000000000000000e+00,1.110000000000000000e+02
1.000000000000000000e+00,0.000000000000000000e+00,0.000000000000000000e+00,0.000000000000000000e+00,6.010000000000000000e+02,3.985459804534912109e-01,2.037442922592163086e+00,6.375969528605163195e-01,0.000000000000000000e+00,0.000000000000000000e+00,1.110000000000000000e+02
0.000000000000000000e+00,0.000000000000000000e+00,1.000000000000000000e+00,0.000000000000000000e+00,6.000000000000000000e+02,2.673609256744384766e-01,1.713603019714355469e+00,4.514524936121380172e-01,0.000000000000000000e+00,1.000000000000000000e+00,1.120000000000000000e+02
0.000000000000000000e+00,1.000000000000000000e+00,0.000000000000000000e+00,3.000000000000000000e+00,6.020000000000000000e+02,3.637530803680419922e-01,1.998383998870849609e+00,6.330277788370888281e-01,0.000000000000000000e+00,1.000000000000000000e+00,1.110000000000000000e+02
0.000000000000000000e+00,1.000000000000000000e+00,0.000000000000000000e+00,2.000000000000000000e+00,6.030000000000000000e+02,3.119471073150634766e-01,1.651628017425537109e+00,3.349775788869386872e-01,0.000000000000000000e+00,0.000000000000000000e+00,1.110000000000000000e+02
0.000000000000000000e+00,1.000000000000000000e+00,0.000000000000000000e+00,2.000000000000000000e+00,6.040000000000000000e+02,3.708589076995849609e-01,1.705070018768310547e+00,3.400605809656329082e-01,0.000000000000000000e+00,0.000000000000000000e+00,1.110000000000000000e+02
0.000000000000000000e+00,0.000000000000000000e+00,1.000000000000000000e+00,0.000000000000000000e+00,6.030000000000000000e+02,3.678829669952392578e-01,2.011492967605590820e+00,6.513045046581072972e-01,0.000000000000000000e+00,0.000000000000000000e+00,1.110000000000000000e+02
1.000000000000000000e+00,1.000000000000000000e+00,1.000000000000000000e+00,1.000000000000000000e+00,6.030000000000000000e+02,3.022429943084716797e-01,1.750419855117797852e+00,4.519505939957774721e-01,0.000000000000000000e+00,0.000000000000000000e+00,1.110000000000000000e+02
0.000000000000000000e+00,1.000000000000000000e+00,0.000000000000000000e+00,0.000000000000000000e+00,6.020000000000000000e+02,3.323490619659423828e-01,1.757823944091796875e+00,4.265055581340259083e-01,0.000000000000000000e+00,0.000000000000000000e+00,1.110000000000000000e+02
1.000000000000000000e+00,1.000000000000000000e+00,1.000000000000000000e+00,3.000000000000000000e+00,6.040000000000000000e+02,2.804141044616699219e-01,2.007185935974121094e+00,7.333467278590146687e-01,0.000000000000000000e+00,0.000000000000000000e+00,1.110000000000000000e+02
0.000000000000000000e+00,1.000000000000000000e+00,0.000000000000000000e+00,1.000000000000000000e+00,6.040000000000000000e+02,2.567481994628906250e-01,1.566596031188964844e+00,3.170540776675755956e-01,0.000000000000000000e+00,0.000000000000000000e+00,1.110000000000000000e+02
1.000000000000000000e+00,1.000000000000000000e+00,1.000000000000000000e+00,3.000000000000000000e+00,6.060000000000000000e+02,3.301780223846435547e-01,1.800816059112548828e+00,4.677741692561786513e-01,0.000000000000000000e+00,0.000000000000000000e+00,1.110000000000000000e+02
0.000000000000000000e+00,1.000000000000000000e+00,0.000000000000000000e+00,3.000000000000000000e+00,6.080000000000000000e+02,2.282881736755371094e-01,1.916258096694946289e+00,6.838187622970073321e-01,0.000000000000000000e+00,0.000000000000000000e+00,1.110000000000000000e+02
0.000000000000000000e+00,1.000000000000000000e+00,0.000000000000000000e+00,4.000000000000000000e+00,6.110000000000000000e+02,3.336899280548095703e-01,1.954575061798095703e+00,6.218483358013011664e-01,0.000000000000000000e+00,0.000000000000000000e+00,1.110000000000000000e+02
0.000000000000000000e+00,1.000000000000000000e+00,0.000000000000000000e+00,3.000000000000000000e+00,6.130000000000000000e+02,3.007450103759765625e-01,1.546235084533691406e+00,2.518511272941997281e-01,0.000000000000000000e+00,0.000000000000000000e+00,1.110000000000000000e+02
0.000000000000000000e+00,1.000000000000000000e+00,0.000000000000000000e+00,2.000000000000000000e+00,6.140000000000000000e+02,3.808681964874267578e-01,1.937743902206420898e+00,5.559654042714610167e-01,0.000000000000000000e+00,0.000000000000000000e+00,1.110000000000000000e+02
0.000000000000000000e+00,0.000000000000000000e+00,1.000000000000000000e+00,0.000000000000000000e+00,6.130000000000000000e+02,3.045670986175537109e-01,1.726297140121459961e+00,4.324115551586810158e-01,0.000000000000000000e+00,1.000000000000000000e+00,1.120000000000000000e+02
1.000000000000000000e+00,1.000000000000000000e+00,1.000000000000000000e+00,2.000000000000000000e+00,6.140000000000000000e+02,3.831849098205566406e-01,1.831830978393554688e+00,4.475825596321718058e-01,0.000000000000000000e+00,1.000000000000000000e+00,1.110000000000000000e+02
0.000000000000000000e+00,1.000000000000000000e+00,0.000000000000000000e+00,3.000000000000000000e+00,6.160000000000000000e+02,4.555418491363525391e-01,2.171617984771728516e+00,7.355830022346774300e-01,0.000000000000000000e+00,0.000000000000000000e+00,1.110000000000000000e+02
0.000000000000000000e+00,0.000000000000000000e+00,1.000000000000000000e+00,0.000000000000000000e+00,6.150000000000000000e+02,3.103909492492675781e-01,1.612653970718383789e+00,2.987469411132021024e-01,0.000000000000000000e+00,1.000000000000000000e+00,1.120000000000000000e+02
0.000000000000000000e+00,1.000000000000000000e+00,0.000000000000000000e+00,2.000000000000000000e+00,6.160000000000000000e+02,3.443901538848876953e-01,1.837227106094360352e+00,5.024513836326400806e-01,0.000000000000000000e+00,1.000000000000000000e+00,1.110000000000000000e+02
0.000000000000000000e+00,0.000000000000000000e+00,1.000000000000000000e+00,0.000000000000000000e+00,6.150000000000000000e+02,2.515399456024169922e-01,1.555189132690429688e+00,3.078859740960058211e-01,0.000000000000000000e+00,1.000000000000000000e+00,1.120000000000000000e+02
0.000000000000000000e+00,0.000000000000000000e+00,1.000000000000000000e+00,0.000000000000000000e+00,6.140000000000000000e+02,3.085310459136962891e-01,1.675143957138061523e+00,3.829941423951044310e-01,0.000000000000000000e+00,0.000000000000000000e+00,1.120000000000000000e+02
0.000000000000000000e+00,1.000000000000000000e+00,0.000000000000000000e+00,1.000000000000000000e+00,6.140000000000000000e+02,2.222859859466552734e-01,1.621397972106933594e+00,4.043699491509310517e-01,0.000000000000000000e+00,1.000000000000000000e+00,1.110000000000000000e+02
1.000000000000000000e+00,1.000000000000000000e+00,1.000000000000000000e+00,3.000000000000000000e+00,6.160000000000000000e+02,3.416299819946289062e-01,2.005257129669189453e+00,6.760476650618270078e-01,0.000000000000000000e+00,0.000000000000000000e+00,1.110000000000000000e+02
0.000000000000000000e+00,0.000000000000000000e+00,1.000000000000000000e+00,0.000000000000000000e+00,6.150000000000000000e+02,1.556880474090576172e-01,1.746873855590820312e+00,6.063326192373852397e-01,0.000000000000000000e+00,0.000000000000000000e+00,1.110000000000000000e+02
1.000000000000000000e+00,0.000000000000000000e+00,0.000000000000000000e+00,0.000000000000000000e+00,6.140000000000000000e+02,2.598500251770019531e-01,1.583683967590332031e+00,3.403376311871157411e-01,0.000000000000000000e+00,1.000000000000000000e+00,1.120000000000000000e+02
1.000000000000000000e+00,0.000000000000000000e+00,0.000000000000000000e+00,0.000000000000000000e+00,6.130000000000000000e+02,3.245398998260498047e-01,1.804013967514038086e+00,4.942151256982643681e-01,0.000000000000000000e+00,0.000000000000000000e+00,1.120000000000000000e+02
1.000000000000000000e+00,1.000000000000000000e+00,1.000000000000000000e+00,1.000000000000000000e+00,6.130000000000000000e+02,2.895979881286621094e-01,1.733215093612670898e+00,4.608460881556938893e-01,0.000000000000000000e+00,1.000000000000000000e+00,1.110000000000000000e+02
1.000000000000000000e+00,0.000000000000000000e+00,0.000000000000000000e+00,0.000000000000000000e+00,6.120000000000000000e+02,2.913160324096679688e-01,1.788367986679077148e+00,5.158089350203211021e-01,1.000000000000000000e+00,1.000000000000000000e+00,1.120000000000000000e+02
1.000000000000000000e+00,0.000000000000000000e+00,0.000000000000000000e+00,0.000000000000000000e+00,6.110000000000000000e+02,3.494629859924316406e-01,1.758601903915405273e+00,4.079142695411845376e-01,0.000000000000000000e+00,0.000000000000000000e+00,1.120000000000000000e+02
1.000000000000000000e+00,0.000000000000000000e+00,0.000000000000000000e+00,0.000000000000000000e+00,6.100000000000000000e+02,3.232901096343994141e-01,1.707540035247802734e+00,3.988165914281754376e-01,0.000000000000000000e+00,0.000000000000000000e+00,1.120000000000000000e+02
1.000000000000000000e+00,1.000000000000000000e+00,1.000000000000000000e+00,3.000000000000000000e+00,6.120000000000000000e+02,3.127748966217041016e-01,1.580032110214233398e+00,2.623843532581779381e-01,0.000000000000000000e+00,0.000000000000000000e+00,1.120000000000000000e+02
1.000000000000000000e+00,1.000000000000000000e+00,1.000000000000000000e+00,2.000000000000000000e+00,6.130000000000000000e+02,3.081638813018798828e-01,1.560537099838256836e+00,2.729351170196712695e-01,0.000000000000000000e+00,0.000000000000000000e+00,1.120000000000000000e+02
1.000000000000000000e+00,1.000000000000000000e+00,1.000000000000000000e+00,0.000000000000000000e+00,6.120000000000000000e+02,3.165969848632812500e-01,1.824476003646850586e+00,5.138391682541159078e-01,0.000000000000000000e+00,0.000000000000000000e+00,1.120000000000000000e+02
0.000000000000000000e+00,0.000000000000000000e+00,1.000000000000000000e+00,0.000000000000000000e+00,6.110000000000000000e+02,3.279759883880615234e-01,1.731848955154418945e+00,4.291551965271182545e-01,0.000000000000000000e+00,1.000000000000000000e+00,1.110000000000000000e+02
0.000000000000000000e+00,1.000000000000000000e+00,0.000000000000000000e+00,2.000000000000000000e+00,6.120000000000000000e+02,2.956681251525878906e-01,1.636037111282348633e+00,3.486327491836884729e-01,0.000000000000000000e+00,1.000000000000000000e+00,1.120000000000000000e+02
0.000000000000000000e+00,1.000000000000000000e+00,0.000000000000000000e+00,2.000000000000000000e+00,6.130000000000000000e+02,2.883360385894775391e-01,1.614295005798339844e+00,3.462876444268065401e-01,0.000000000000000000e+00,0.000000000000000000e+00,1.120000000000000000e+02
0.000000000000000000e+00,0.000000000000000000e+00,1.000000000000000000e+00,0.000000000000000000e+00,6.120000000000000000e+02,3.058528900146484375e-01,2.035335063934326172e+00,7.478712742179578488e-01,0.000000000000000000e+00,1.000000000000000000e+00,1.110000000000000000e+02
1.000000000000000000e+00,0.000000000000000000e+00,0.000000000000000000e+00,0.000000000000000000e+00,6.110000000000000000e+02,3.084540367126464844e-01,1.577295064926147461e+00,2.923429444358555673e-01,0.000000000000000000e+00,0.000000000000000000e+00,1.110000000000000000e+02
1.000000000000000000e+00,1.000000000000000000e+00,1.000000000000000000e+00,5.000000000000000000e+00,6.150000000000000000e+02,3.292539119720458984e-01,2.019378900527954102e+00,6.946515561018150597e-01,0.000000000000000000e+00,1.000000000000000000e+00,1.120000000000000000e+02
1.000000000000000000e+00,1.000000000000000000e+00,1.000000000000000000e+00,4.000000000000000000e+00,6.180000000000000000e+02,2.597539424896240234e-01,1.757755041122436523e+00,5.193222843829226054e-01,0.000000000000000000e+00,0.000000000000000000e+00,1.120000000000000000e+02
0.000000000000000000e+00,1.000000000000000000e+00,0.000000000000000000e+00,3.000000000000000000e+00,6.200000000000000000e+02,2.909879684448242188e-01,1.933727025985717773e+00,6.529153594669032667e-01,0.000000000000000000e+00,0.000000000000000000e+00,1.120000000000000000e+02
0.000000000000000000e+00,1.000000000000000000e+00,0.000000000000000000e+00,1.000000000000000000e+00,6.200000000000000000e+02,2.277238368988037109e-01,1.579250097274780273e+00,3.658112734433704993e-01,0.000000000000000000e+00,0.000000000000000000e+00,1.120000000000000000e+02
1.000000000000000000e+00,0.000000000000000000e+00,0.000000000000000000e+00,0.000000000000000000e+00,6.190000000000000000e+02,2.883889675140380859e-01,1.691690921783447266e+00,4.074652799547424653e-01,0.000000000000000000e+00,1.000000000000000000e+00,1.110000000000000000e+02
1.000000000000000000e+00,1.000000000000000000e+00,1.000000000000000000e+00,4.000000000000000000e+00,6.220000000000000000e+02,2.912070751190185547e-01,1.871545076370239258e+00,5.955336830201345411e-01,0.000000000000000000e+00,1.000000000000000000e+00,1.120000000000000000e+02
1.000000000000000000e+00,1.000000000000000000e+00,1.000000000000000000e+00,3.000000000000000000e+00,6.240000000000000000e+02,2.795920372009277344e-01,1.989571094512939453e+00,7.183662522190836786e-01,0.000000000000000000e+00,0.000000000000000000e+00,1.120000000000000000e+02
1.000000000000000000e+00,0.000000000000000000e+00,0.000000000000000000e+00,0.000000000000000000e+00,6.230000000000000000e+02,1.966881752014160156e-01,1.852253913879394531e+00,6.540383017418673894e-01,0.000000000000000000e+00,1.000000000000000000e+00,1.110000000000000000e+02
0.000000000000000000e+00,0.000000000000000000e+00,1.000000000000000000e+00,0.000000000000000000e+00,6.220000000000000000e+02,2.836349010467529297e-01,1.618363142013549805e+00,3.394080521264676853e-01,0.000000000000000000e+00,0.000000000000000000e+00,1.110000000000000000e+02
1.000000000000000000e+00,0.000000000000000000e+00,0.000000000000000000e+00,0.000000000000000000e+00,6.210000000000000000e+02,2.950420379638671875e-01,1.695054054260253906e+00,4.178186959249155508e-01,0.000000000000000000e+00,0.000000000000000000e+00,1.110000000000000000e+02
1.000000000000000000e+00,1.000000000000000000e+00,1.000000000000000000e+00,3.000000000000000000e+00,6.230000000000000000e+02,3.462660312652587891e-01,1.841737031936645508e+00,4.928114415346217525e-01,0.000000000000000000e+00,1.000000000000000000e+00,1.120000000000000000e+02
1.000000000000000000e+00,0.000000000000000000e+00,0.000000000000000000e+00,0.000000000000000000e+00,6.220000000000000000e+02,2.079620361328125000e-01,1.849303007125854492e+00,6.586192066000355894e-01,0.000000000000000000e+00,1.000000000000000000e+00,1.110000000000000000e+02
0.000000000000000000e+00,1.000000000000000000e+00,0.000000000000000000e+00,2.000000000000000000e+00,6.230000000000000000e+02,2.580308914184570312e-01,1.662530899047851562e+00,4.214525657333726416e-01,0.000000000000000000e+00,1.000000000000000000e+00,1.120000000000000000e+02
0.000000000000000000e+00,1.000000000000000000e+00,0.000000000000000000e+00,3.000000000000000000e+00,6.250000000000000000e+02,2.743198871612548828e-01,1.897419929504394531e+00,6.353410359044027178e-01,0.000000000000000000e+00,0.000000000000000000e+00,1.120000000000000000e+02
0.000000000000000000e+00,1.000000000000000000e+00,0.000000000000000000e+00,2.000000000000000000e+00,6.260000000000000000e+02,2.174649238586425781e-01,1.631402969360351562e+00,4.169868139266124096e-01,0.000000000000000000e+00,0.000000000000000000e+00,1.120000000000000000e+02
0.000000000000000000e+00,1.000000000000000000e+00,0.000000000000000000e+00,2.000000000000000000e+00,6.270000000000000000e+02,2.541730403900146484e-01,1.767565965652465820e+00,5.178218020216772688e-01,0.000000000000000000e+00,0.000000000000000000e+00,1.120000000000000000e+02
0.000000000000000000e+00,1.000000000000000000e+00,0.000000000000000000e+00,2.000000000000000000e+00,6.280000000000000000e+02,2.476260662078857422e-01,1.943922042846679688e+00,6.949377597704231579e-01,0.000000000000000000e+00,0.000000000000000000e+00,1.120000000000000000e+02
0.000000000000000000e+00,1.000000000000000000e+00,0.000000000000000000e+00,0.000000000000000000e+00,6.280000000000000000e+02,9.015798568725585938e-03,5.582454204559326172e+00,4.610147768186166339e-01,-2.000000000000000000e+00,-2.000000000000000000e+00,1.120000000000000000e+02
0.000000000000000000e+00,1.000000000000000000e+00,0.000000000000000000e+00,2.000000000000000000e+00,6.290000000000000000e+02,3.292129039764404297e-01,1.937856912612915039e+00,6.153458068379333845e-01,0.000000000000000000e+00,0.000000000000000000e+00,1.120000000000000000e+02
1.000000000000000000e+00,0.000000000000000000e+00,0.000000000000000000e+00,0.000000000000000000e+00,6.280000000000000000e+02,3.422009944915771484e-01,2.083801984786987305e+00,7.491183197796045246e-01,0.000000000000000000e+00,1.000000000000000000e+00,1.110000000000000000e+02
1.000000000000000000e+00,1.000000000000000000e+00,1.000000000000000000e+00,3.000000000000000000e+00,6.300000000000000000e+02,3.379909992218017578e-01,1.942420959472656250e+00,6.085915093591605096e-01,1.000000000000000000e+00,1.000000000000000000e+00,1.120000000000000000e+02
0.000000000000000000e+00,0.000000000000000000e+00,1.000000000000000000e+00,0.000000000000000000e+00,6.290000000000000000e+02,2.946801185607910156e-01,1.857397794723510742e+00,5.824540324286029414e-01,0.000000000000000000e+00,1.000000000000000000e+00,1.110000000000000000e+02
1.000000000000000000e+00,0.000000000000000000e+00,0.000000000000000000e+00,0.000000000000000000e+00,6.280000000000000000e+02,3.240869045257568359e-01,1.624223947525024414e+00,3.070300091493410877e-01,0.000000000000000000e+00,0.000000000000000000e+00,1.110000000000000000e+02
0.000000000000000000e+00,1.000000000000000000e+00,0.000000000000000000e+00,2.000000000000000000e+00,6.290000000000000000e+02,3.945310115814208984e-01,2.066751956939697266e+00,6.734016578503803085e-01,0.000000000000000000e+00,1.000000000000000000e+00,1.120000000000000000e+02
1.000000000000000000e+00,0.000000000000000000e+00,0.000000000000000000e+00,0.000000000000000000e+00,6.280000000000000000e+02,2.869048118591308594e-01,1.566951036453247070e+00,2.908154417324551599e-01,0.000000000000000000e+00,1.000000000000000000e+00,1.110000000000000000e+02
0.000000000000000000e+00,0.000000000000000000e+00,1.000000000000000000e+00,0.000000000000000000e+00,6.270000000000000000e+02,3.452849388122558594e-01,1.791953086853027344e+00,4.659247964836574218e-01,0.000000000000000000e+00,0.000000000000000000e+00,1.110000000000000000e+02
1.000000000000000000e+00,0.000000000000000000e+00,0.000000000000000000e+00,0.000000000000000000e+00,6.260000000000000000e+02,3.163170814514160156e-01,1.876982927322387695e+00,5.595272020809110014e-01,0.000000000000000000e+00,0.000000000000000000e+00,1.110000000000000000e+02
0.000000000000000000e+00,1.000000000000000000e+00,0.000000000000000000e+00,4.000000000000000000e+00,6.290000000000000000e+02,3.027489185333251953e-01,1.578501939773559570e+00,2.883317437172119857e-01,0.000000000000000000e+00,1.000000000000000000e+00,1.120000000000000000e+02
0.000000000000000000e+00,0.000000000000000000e+00,1.000000000000000000e+00,0.000000000000000000e+00,6.280000000000000000e+02,5.124969482421875000e-01,1.969972848892211914e+00,4.581730738786236601e-01,0.000000000000000000e+00,1.000000000000000000e+00,1.110000000000000000e+02
0.000000000000000000e+00,0.000000000000000000e+00,1.000000000000000000e+00,0.000000000000000000e+00,6.270000000000000000e+02,3.148930072784423828e-01,1.645670175552368164e+00,3.373104398504097046e-01,0.000000000000000000e+00,0.000000000000000000e+00,1.110000000000000000e+02
1.000000000000000000e+00,0.000000000000000000e+00,0.000000000000000000e+00,0.000000000000000000e+00,6.260000000000000000e+02,3.169450759887695312e-01,1.886189937591552734e+00,5.732886716293608131e-01,0.000000000000000000e+00,0.000000000000000000e+00,1.110000000000000000e+02
1.000000000000000000e+00,0.000000000000000000e+00,0.000000000000000000e+00,0.000000000000000000e+00,6.250000000000000000e+02,3.086559772491455078e-01,1.830996990203857422e+00,5.377033834974933590e-01,0.000000000000000000e+00,1.000000000000000000e+00,1.120000000000000000e+02
0.000000000000000000e+00,1.000000000000000000e+00,0.000000000000000000e+00,3.000000000000000000e+00,6.270000000000000000e+02,2.813920974731445312e-01,1.827500820159912109e+00,5.485282982140262664e-01,0.000000000000000000e+00,1.000000000000000000e+00,1.110000000000000000e+02
0.000000000000000000e+00,1.000000000000000000e+00,0.000000000000000000e+00,2.000000000000000000e+00,6.280000000000000000e+02,2.697911262512207031e-01,1.710327863693237305e+00,4.589995664652550822e-01,0.000000000000000000e+00,0.000000000000000000e+00,1.110000000000000000e+02
1.000000000000000000e+00,1.000000000000000000e+00,1.000000000000000000e+00,3.000000000000000000e+00,6.300000000000000000e+02,3.471739292144775391e-01,1.761794090270996094e+00,4.208679080853734433e-01,0.000000000000000000e+00,0.000000000000000000e+00,1.110000000000000000e+02
0.000000000000000000e+00,0.000000000000000000e+00,1.000000000000000000e+00,0.000000000000000000e+00,6.290000000000000000e+02,2.645370960235595703e-01,1.842369079589843750e+00,5.797646950736937699e-01,0.000000000000000000e+00,1.000000000000000000e+00,1.120000000000000000e+02
1.000000000000000000e+00,1.000000000000000000e+00,1.000000000000000000e+00,3.000000000000000000e+00,6.310000000000000000e+02,3.192791938781738281e-01,1.755594015121459961e+00,4.521716219633163947e-01,0.000000000000000000e+00,1.000000000000000000e+00,1.110000000000000000e+02
0.000000000000000000e+00,1.000000000000000000e+00,0.000000000000000000e+00,3.000000000000000000e+00,6.330000000000000000e+02,2.686631679534912109e-01,1.817817926406860352e+00,5.532468381309600947e-01,0.000000000000000000e+00,0.000000000000000000e+00,1.110000000000000000e+02
0.000000000000000000e+00,1.000000000000000000e+00,0.000000000000000000e+00,1.000000000000000000e+00,6.330000000000000000e+02,3.490610122680664062e-01,1.650032043457031250e+00,3.035858591940219786e-01,0.000000000000000000e+00,0.000000000000000000e+00,1.110000000000000000e+02
0.000000000000000000e+00,0.000000000000000000e+00,1.000000000000000000e+00,0.000000000000000000e+00,6.320000000000000000e+02,3.271310329437255859e-01,1.973297119140625000e+00,6.598865362951361613e-01,0.000000000000000000e+00,1.000000000000000000e+00,1.120000000000000000e+02
1.000000000000000000e+00,1.000000000000000000e+00,1.000000000000000000e+00,3.000000000000000000e+00,6.340000000000000000e+02,2.355439662933349609e-01,1.625814914703369141e+00,4.026624879015583414e-01,0.000000000000000000e+00,1.000000000000000000e+00,1.110000000000000000e+02
1.000000000000000000e+00,1.000000000000000000e+00,1.000000000000000000e+00,3.000000000000000000e+00,6.360000000000000000e+02,2.942569255828857422e-01,2.026963949203491211e+00,7.459737893360762762e-01,0.000000000000000000e+00,0.000000000000000000e+00,1.110000000000000000e+02
0.000000000000000000e+00,1.000000000000000000e+00,0.000000000000000000e+00,2.000000000000000000e+00,6.370000000000000000e+02,2.726950645446777344e-01,1.679337024688720703e+00,4.256573644809928947e-01,0.000000000000000000e+00,0.000000000000000000e+00,1.110000000000000000e+02
1.000000000000000000e+00,1.000000000000000000e+00,1.000000000000000000e+00,2.000000000000000000e+00,6.380000000000000000e+02,2.413580417633056641e-01,1.531640052795410156e+00,3.074403017265117111e-01,0.000000000000000000e+00,0.000000000000000000e+00,1.110000000000000000e+02
1.000000000000000000e+00,1.000000000000000000e+00,1.000000000000000000e+00,3.000000000000000000e+00,6.400000000000000000e+02,3.151409626007080078e-01,1.803580999374389648e+00,4.941943463983149432e-01,0.000000000000000000e+00,0.000000000000000000e+00,1.110000000000000000e+02
1.000000000000000000e+00,1.000000000000000000e+00,1.000000000000000000e+00,2.000000000000000000e+00,6.410000000000000000e+02,2.591729164123535156e-01,1.618017911911010742e+00,3.790387214620030698e-01,0.000000000000000000e+00,0.000000000000000000e+00,1.110000000000000000e+02
0.000000000000000000e+00,1.000000000000000000e+00,0.000000000000000000e+00,2.000000000000000000e+00,6.420000000000000000e+02,4.175469875335693359e-01,2.152266979217529297e+00,7.476152338161229371e-01,0.000000000000000000e+00,0.000000000000000000e+00,1.110000000000000000e+02
0.000000000000000000e+00,1.000000000000000000e+00,0.000000000000000000e+00,5.000000000000000000e+00,6.460000000000000000e+02,2.806921005249023438e-01,1.976246118545532227e+00,7.072323602310279789e-01,0.000000000000000000e+00,0.000000000000000000e+00,1.110000000000000000e+02
1.000000000000000000e+00,1.000000000000000000e+00,1.000000000000000000e+00,3.000000000000000000e+00,6.480000000000000000e+02,3.343729972839355469e-01,1.644396066665649414e+00,3.187620189675091087e-01,0.000000000000000000e+00,0.000000000000000000e+00,1.110000000000000000e+02
0.000000000000000000e+00,0.000000000000000000e+00,1.000000000000000000e+00,0.000000000000000000e+00,6.470000000000000000e+02,3.154299259185791016e-01,1.623739957809448242e+00,3.091691162368763734e-01,1.000000000000000000e+00,1.000000000000000000e+00,1.120000000000000000e+02
0.000000000000000000e+00,0.000000000000000000e+00,1.000000000000000000e+00,0.000000000000000000e+00,6.460000000000000000e+02,3.308401107788085938e-01,1.917176008224487305e+00,5.927574150412759924e-01,0.000000000000000000e+00,0.000000000000000000e+00,1.120000000000000000e+02
0.000000000000000000e+00,0.000000000000000000e+00,1.000000000000000000e+00,0.000000000000000000e+00,6.450000000000000000e+02,2.322289943695068359e-01,1.778580188751220703e+00,5.547940181932244919e-01,0.000000000000000000e+00,0.000000000000000000e+00,1.120000000000000000e+02
1.000000000000000000e+00,0.000000000000000000e+00,0.000000000000000000e+00,0.000000000000000000e+00,6.440000000000000000e+02,2.319240570068359375e-01,1.899770975112915039e+00,6.711011246857960799e-01,0.000000000000000000e+00,1.000000000000000000e+00,1.110000000000000000e+02
1.000000000000000000e+00,1.000000000000000000e+00,1.000000000000000000e+00,2.000000000000000000e+00,6.450000000000000000e+02,1.999778747558593750e-01,1.506989002227783203e+00,3.118351911307393753e-01,0.000000000000000000e+00,1.000000000000000000e+00,1.120000000000000000e+02
0.000000000000000000e+00,1.000000000000000000e+00,0.000000000000000000e+00,3.000000000000000000e+00,6.470000000000000000e+02,5.220670700073242188e-01,2.249421119689941406e+00,7.442133406012950703e-01,0.000000000000000000e+00,0.000000000000000000e+00,1.120000000000000000e+02
0.000000000000000000e+00,1.000000000000000000e+00,0.000000000000000000e+00,1.000000000000000000e+00,6.470000000000000000e+02,2.451109886169433594e-01,1.646044969558715820e+00,4.239223384716896414e-01,0.000000000000000000e+00,0.000000000000000000e+00,1.120000000000000000e+02
1.000000000000000000e+00,1.000000000000000000e+00,1.000000000000000000e+00,3.000000000000000000e+00,6.490000000000000000e+02,3.332278728485107422e-01,1.987030029296875000e+00,6.606953408893142532e-01,0.000000000000000000e+00,0.000000000000000000e+00,1.120000000000000000e+02
0.000000000000000000e+00,1.000000000000000000e+00,0.000000000000000000e+00,2.000000000000000000e+00,6.500000000000000000e+02,2.719709873199462891e-01,1.832052946090698242e+00,5.762348997683587326e-01,0.000000000000000000e+00,0.000000000000000000e+00,1.120000000000000000e+02
1.000000000000000000e+00,1.000000000000000000e+00,1.000000000000000000e+00,3.000000000000000000e+00,6.520000000000000000e+02,3.196361064910888672e-01,2.022901058197021484e+00,7.156901480550739159e-01,0.000000000000000000e+00,0.000000000000000000e+00,1.120000000000000000e+02
1.000000000000000000e+00,1.000000000000000000e+00,1.000000000000000000e+00,4.000000000000000000e+00,6.550000000000000000e+02,3.153860569000244141e-01,1.899276971817016602e+00,5.818042321826886187e-01,0.000000000000000000e+00,0.000000000000000000e+00,1.120000000000000000e+02
0.000000000000000000e+00,1.000000000000000000e+00,0.000000000000000000e+00,2.000000000000000000e+00,6.560000000000000000e+02,2.921409606933593750e-01,1.956027030944824219e+00,6.877459104892598152e-01,0.000000000000000000e+00,0.000000000000000000e+00,1.120000000000000000e+02
0.000000000000000000e+00,0.000000000000000000e+00,1.000000000000000000e+00,0.000000000000000000e+00,6.550000000000000000e+02,2.345240116119384766e-01,1.657301187515258789e+00,4.286862781491423968e-01,0.000000000000000000e+00,1.000000000000000000e+00,1.110000000000000000e+02
1.000000000000000000e+00,1.000000000000000000e+00,1.000000000000000000e+00,3.000000000000000000e+00,6.570000000000000000e+02,3.576960563659667969e-01,2.074755907058715820e+00,7.364829288104837168e-01,0.000000000000000000e+00,1.000000000000000000e+00,1.120000000000000000e+02
0.000000000000000000e+00,1.000000000000000000e+00,0.000000000000000000e+00,2.000000000000000000e+00,6.580000000000000000e+02,2.014091014862060547e-01,1.630748987197875977e+00,4.342538902522303235e-01,0.000000000000000000e+00,0.000000000000000000e+00,1.120000000000000000e+02
1.000000000000000000e+00,1.000000000000000000e+00,1.000000000000000000e+00,3.000000000000000000e+00,6.600000000000000000e+02,3.160970211029052734e-01,1.585798978805541992e+00,2.702337125859528011e-01,0.000000000000000000e+00,0.000000000000000000e+00,1.120000000000000000e+02
1.000000000000000000e+00,1.000000000000000000e+00,1.000000000000000000e+00,4.000000000000000000e+00,6.630000000000000000e+02,3.478009700775146484e-01,1.852161169052124023e+00,5.055058866366074488e-01,0.000000000000000000e+00,0.000000000000000000e+00,1.120000000000000000e+02
0.000000000000000000e+00,0.000000000000000000e+00,1.000000000000000000e+00,0.000000000000000000e+00,6.620000000000000000e+02,1.788341999053955078e-01,1.484466075897216797e+00,3.068657801015374220e-01,0.000000000000000000e+00,0.000000000000000000e+00,1.120000000000000000e+02
0.000000000000000000e+00,1.000000000000000000e+00,0.000000000000000000e+00,2.000000000000000000e+00,6.630000000000000000e+02,4.135880470275878906e-01,2.109980821609497070e+00,6.997808357745241015e-01,0.000000000000000000e+00,0.000000000000000000e+00,1.120000000000000000e+02
0.000000000000000000e+00,0.000000000000000000e+00,1.000000000000000000e+00,0.000000000000000000e+00,6.620000000000000000e+02,2.869658470153808594e-01,1.536444902420043945e+00,2.534171576306220031e-01,0.000000000000000000e+00,1.000000000000000000e+00,1.110000000000000000e+02
0.000000000000000000e+00,1.000000000000000000e+00,0.000000000000000000e+00,2.000000000000000000e+00,6.630000000000000000e+02,3.726568222045898438e-01,1.913269042968750000e+00,5.497173652342072225e-01,0.000000000000000000e+00,1.000000000000000000e+00,1.120000000000000000e+02
0.000000000000000000e+00,1.000000000000000000e+00,0.000000000000000000e+00,4.000000000000000000e+00,6.660000000000000000e+02,2.360329627990722656e-01,1.655610084533691406e+00,4.221725121858961316e-01,0.000000000000000000e+00,0.000000000000000000e+00,1.120000000000000000e+02
1.000000000000000000e+00,1.000000000000000000e+00,1.000000000000000000e+00,2.000000000000000000e+00,6.670000000000000000e+02,3.251450061798095703e-01,2.047996044158935547e+00,7.364820663035075432e-01,0.000000000000000000e+00,0.000000000000000000e+00,1.120000000000000000e+02
1.000000000000000000e+00,1.000000000000000000e+00,1.000000000000000000e+00,2.000000000000000000e+00,6.680000000000000000e+02,2.212219238281250000e-01,1.646108865737915039e+00,4.329796239934293189e-01,0.000000000000000000e+00,0.000000000000000000e+00,1.120000000000000000e+02
1.000000000000000000e+00,1.000000000000000000e+00,1.000000000000000000e+00,4.000000000000000000e+00,6.710000000000000000e+02,2.622520923614501953e-01,1.887111186981201172e+00,6.199532536964775797e-01,0.000000000000000000e+00,0.000000000000000000e+00,1.120000000000000000e+02
1.000000000000000000e+00,1.000000000000000000e+00,1.000000000000000000e+00,1.000000000000000000e+00,6.710000000000000000e+02,2.940039634704589844e-01,1.566087007522583008e+00,2.864190764176280379e-01,0.000000000000000000e+00,0.000000000000000000e+00,1.120000000000000000e+02
1.000000000000000000e+00,0.000000000000000000e+00,0.000000000000000000e+00,0.000000000000000000e+00,6.700000000000000000e+02,2.583668231964111328e-01,1.976629972457885742e+00,7.292853971766218857e-01,0.000000000000000000e+00,0.000000000000000000e+00,1.120000000000000000e+02
1.000000000000000000e+00,1.000000000000000000e+00,1.000000000000000000e+00,4.000000000000000000e+00,6.730000000000000000e+02,2.337880134582519531e-01,1.965644121170043945e+00,7.449523079784841073e-01,0.000000000000000000e+00,0.000000000000000000e+00,1.120000000000000000e+02
0.000000000000000000e+00,0.000000000000000000e+00,1.000000000000000000e+00,0.000000000000000000e+00,6.720000000000000000e+02,2.911670207977294922e-01,1.775605916976928711e+00,5.041427266057428858e-01,0.000000000000000000e+00,1.000000000000000000e+00,1.110000000000000000e+02
1.000000000000000000e+00,1.000000000000000000e+00,1.000000000000000000e+00,1.000000000000000000e+00,6.720000000000000000e+02,2.798960208892822266e-01,1.879352092742919922e+00,6.001156941648851939e-01,0.000000000000000000e+00,1.000000000000000000e+00,1.120000000000000000e+02
0.000000000000000000e+00,1.000000000000000000e+00,0.000000000000000000e+00,2.000000000000000000e+00,6.730000000000000000e+02,2.876489162445068359e-01,1.810683012008666992e+00,5.275584524224101735e-01,0.000000000000000000e+00,0.000000000000000000e+00,1.120000000000000000e+02
0.000000000000000000e+00,1.000000000000000000e+00,0.000000000000000000e+00,4.000000000000000000e+00,6.760000000000000000e+02,2.626919746398925781e-01,1.830835103988647461e+00,5.750291022942336516e-01,0.000000000000000000e+00,0.000000000000000000e+00,1.120000000000000000e+02
0.000000000000000000e+00,1.000000000000000000e+00,0.000000000000000000e+00,1.000000000000000000e+00,6.760000000000000000e+02,2.774100303649902344e-01,1.847234964370727539e+00,5.889247321191563023e-01,0.000000000000000000e+00,0.000000000000000000e+00,1.120000000000000000e+02
1.000000000000000000e+00,1.000000000000000000e+00,1.000000000000000000e+00,3.000000000000000000e+00,6.780000000000000000e+02,3.185429573059082031e-01,1.716459989547729492e+00,4.056348435580586775e-01,0.000000000000000000e+00,0.000000000000000000e+00,1.120000000000000000e+02
0.000000000000000000e+00,1.000000000000000000e+00,0.000000000000000000e+00,1.000000000000000000e+00,6.780000000000000000e+02,3.058419227600097656e-01,1.677549123764038086e+00,3.832490613080905550e-01,0.000000000000000000e+00,0.000000000000000000e+00,1.120000000000000000e+02
0.000000000000000000e+00,0.000000000000000000e+00,1.000000000000000000e+00,0.000000000000000000e+00,6.770000000000000000e+02,2.976360321044921875e-01,1.716441869735717773e+00,4.163496810455201702e-01,0.000000000000000000e+00,1.000000000000000000e+00,1.110000000000000000e+02
0.000000000000000000e+00,0.000000000000000000e+00,1.000000000000000000e+00,0.000000000000000000e+00,6.760000000000000000e+02,2.639501094818115234e-01,1.557677984237670898e+00,2.908417455011410580e-01,0.000000000000000000e+00,0.000000000000000000e+00,1.110000000000000000e+02
1.000000000000000000e+00,1.000000000000000000e+00,1.000000000000000000e+00,4.000000000000000000e+00,6.790000000000000000e+02,3.500158786773681641e-01,2.072903871536254883e+00,7.300019390872689584e-01,0.000000000000000000e+00,1.000000000000000000e+00,1.120000000000000000e+02
0.000000000000000000e+00,1.000000000000000000e+00,0.000000000000000000e+00,4.000000000000000000e+00,6.820000000000000000e+02,2.644488811492919922e-01,1.588994026184082031e+00,3.360909182051287636e-01,0.000000000000000000e+00,0.000000000000000000e+00,1.120000000000000000e+02
0.000000000000000000e+00,1.000000000000000000e+00,0.000000000000000000e+00,2.000000000000000000e+00,6.830000000000000000e+02,3.135178089141845703e-01,1.753776788711547852e+00,4.397769805515462926e-01,0.000000000000000000e+00,0.000000000000000000e+00,1.120000000000000000e+02
1.000000000000000000e+00,0.000000000000000000e+00,0.000000000000000000e+00,0.000000000000000000e+00,6.820000000000000000e+02,3.196270465850830078e-01,1.594638109207153320e+00,2.846208838608825786e-01,0.000000000000000000e+00,1.000000000000000000e+00,1.110000000000000000e+02
1.000000000000000000e+00,0.000000000000000000e+00,0.000000000000000000e+00,0.000000000000000000e+00,6.810000000000000000e+02,3.196480274200439453e-01,1.921743154525756836e+00,6.060456748329829946e-01,1.000000000000000000e+00,0.000000000000000000e+00,1.110000000000000000e+02
0.000000000000000000e+00,0.000000000000000000e+00,1.000000000000000000e+00,0.000000000000000000e+00,6.800000000000000000e+02,2.200651168823242188e-01,1.631371974945068359e+00,4.209637133062288372e-01,0.000000000000000000e+00,0.000000000000000000e+00,1.110000000000000000e+02
1.000000000000000000e+00,0.000000000000000000e+00,0.000000000000000000e+00,0.000000000000000000e+00,6.790000000000000000e+02,3.617560863494873047e-01,1.831496000289916992e+00,4.857606090765690388e-01,0.000000000000000000e+00,0.000000000000000000e+00,1.110000000000000000e+02
0.000000000000000000e+00,0.000000000000000000e+00,1.000000000000000000e+00,0.000000000000000000e+00,6.780000000000000000e+02,2.814509868621826172e-01,1.601144075393676758e+00,3.204495915117026583e-01,0.000000000000000000e+00,0.000000000000000000e+00,1.110000000000000000e+02
0.000000000000000000e+00,0.000000000000000000e+00,1.000000000000000000e+00,0.000000000000000000e+00,6.770000000000000000e+02,2.845251560211181641e-01,1.690248966217041016e+00,4.106441650133528243e-01,0.000000000000000000e+00,0.000000000000000000e+00,1.110000000000000000e+02
1.000000000000000000e+00,0.000000000000000000e+00,0.000000000000000000e+00,0.000000000000000000e+00,6.760000000000000000e+02,3.112571239471435547e-01,1.740614891052246094e+00,4.512278467000779836e-01,0.000000000000000000e+00,0.000000000000000000e+00,1.110000000000000000e+02
0.000000000000000000e+00,0.000000000000000000e+00,1.000000000000000000e+00,0.000000000000000000e+00,6.750000000000000000e+02,2.534189224243164062e-01,1.815865993499755859e+00,5.670125608836751319e-01,0.000000000000000000e+00,1.000000000000000000e+00,1.120000000000000000e+02
0.000000000000000000e+00,0.000000000000000000e+00,1.000000000000000000e+00,0.000000000000000000e+00,6.740000000000000000e+02,1.777579784393310547e-01,1.530191898345947266e+00,3.640735381726298847e-01,0.000000000000000000e+00,0.000000000000000000e+00,1.120000000000000000e+02
0.000000000000000000e+00,1.000000000000000000e+00,0.000000000000000000e+00,2.000000000000000000e+00,6.750000000000000000e+02,2.691049575805664062e-01,1.704580068588256836e+00,4.519401940266142836e-01,0.000000000000000000e+00,1.000000000000000000e+00,1.110000000000000000e+02
1.000000000000000000e+00,1.000000000000000000e+00,1.000000000000000000e+00,3.000000000000000000e+00,6.770000000000000000e+02,4.495029449462890625e-01,1.765177011489868164e+00,3.173075387869840891e-01,0.000000000000000000e+00,0.000000000000000000e+00,1.110000000000000000e+02
0.000000000000000000e+00,1.000000000000000000e+00,0.000000000000000000e+00,3.000000000000000000e+00,6.790000000000000000e+02,3.390018939971923828e-01,1.805165052413940430e+00,4.723221855850138207e-01,0.000000000000000000e+00,0.000000000000000000e+00,1.110000000000000000e+02
1.000000000000000000e+00,1.000000000000000000e+00,1.000000000000000000e+00,3.000000000000000000e+00,6.810000000000000000e+02,1.669530868530273438e-01,1.705253839492797852e+00,5.442083682126921396e-01,0.000000000000000000e+00,0.000000000000000000e+00,1.110000000000000000e+02
1.000000000000000000e+00,0.000000000000000000e+00,0.000000000000000000e+00,0.000000000000000000e+00,6.800000000000000000e+02,2.570319175720214844e-01,1.513205051422119141e+00,2.743930847902089631e-01,0.000000000000000000e+00,1.000000000000000000e+00,1.120000000000000000e+02
1.000000000000000000e+00,1.000000000000000000e+00,1.000000000000000000e+00,3.000000000000000000e+00,6.820000000000000000e+02,3.024108409881591797e-01,1.603979110717773438e+00,3.116892939976680377e-01,0.000000000000000000e+00,1.000000000000000000e+00,1.110000000000000000e+02
0.000000000000000000e+00,1.000000000000000000e+00,0.000000000000000000e+00,2.000000000000000000e+00,6.830000000000000000e+02,2.834179401397705078e-01,1.675596952438354492e+00,4.038760187123578982e-01,0.000000000000000000e+00,0.000000000000000000e+00,1.110000000000000000e+02
0.000000000000000000e+00,1.000000000000000000e+00,0.000000000000000000e+00,2.000000000000000000e+00,6.840000000000000000e+02,2.782170772552490234e-01,1.696767091751098633e+00,4.339827211459051370e-01,0.000000000000000000e+00,0.000000000000000000e+00,1.110000000000000000e+02
1.000000000000000000e+00,0.000000000000000000e+00,0.000000000000000000e+00,0.000000000000000000e+00,6.830000000000000000e+02,2.712628841400146484e-01,1.869159936904907227e+00,6.029818173818151106e-01,0.000000000000000000e+00,1.000000000000000000e+00,1.120000000000000000e+02
1.000000000000000000e+00,1.000000000000000000e+00,1.000000000000000000e+00,3.000000000000000000e+00,6.850000000000000000e+02,2.376408576965332031e-01,1.677526950836181641e+00,4.473633391731605125e-01,0.000000000000000000e+00,1.000000000000000000e+00,1.110000000000000000e+02
1.000000000000000000e+00,1.000000000000000000e+00,1.000000000000000000e+00,2.000000000000000000e+00,6.860000000000000000e+02,2.590429782867431641e-01,1.687192916870117188e+00,4.512419414377777382e-01,0.000000000000000000e+00,0.000000000000000000e+00,1.110000000000000000e+02
0.000000000000000000e+00,1.000000000000000000e+00,0.000000000000000000e+00,3.000000000000000000e+00,6.880000000000000000e+02,3.500249385833740234e-01,1.885699987411499023e+00,5.368971066668293268e-01,0.000000000000000000e+00,0.000000000000000000e+00,1.110000000000000000e+02
1.000000000000000000e+00,0.000000000000000000e+00,0.000000000000000000e+00,0.000000000000000000e+00,6.870000000000000000e+02,2.028129100799560547e-01,1.941591024398803711e+00,7.450045932309816710e-01,0.000000000000000000e+00,0.000000000000000000e+00,1.110000000000000000e+02
0.000000000000000000e+00,1.000000000000000000e+00,0.000000000000000000e+00,2.000000000000000000e+00,6.880000000000000000e+02,1.915481090545654297e-01,1.489401817321777344e+00,3.181578220233269860e-01,0.000000000000000000e+00,0.000000000000000000e+00,1.110000000000000000e+02
0.000000000000000000e+00,1.000000000000000000e+00,0.000000000000000000e+00,2.000000000000000000e+00,6.890000000000000000e+02,3.415799140930175781e-01,1.623809814453125000e+00,2.920465783694973227e-01,0.000000000000000000e+00,0.000000000000000000e+00,1.110000000000000000e+02
1.000000000000000000e+00,1.000000000000000000e+00,1.000000000000000000e+00,4.000000000000000000e+00,6.920000000000000000e+02,3.310801982879638672e-01,1.867704868316650391e+00,5.428668557174876064e-01,0.000000000000000000e+00,0.000000000000000000e+00,1.110000000000000000e+02
0.000000000000000000e+00,1.000000000000000000e+00,0.000000000000000000e+00,2.000000000000000000e+00,6.930000000000000000e+02,2.883939743041992188e-01,1.957774162292480469e+00,6.838542510763931936e-01,0.000000000000000000e+00,0.000000000000000000e+00,1.110000000000000000e+02
0.000000000000000000e+00,1.000000000000000000e+00,0.000000000000000000e+00,2.000000000000000000e+00,6.940000000000000000e+02,2.667770385742187500e-01,1.851764917373657227e+00,5.857593553556286192e-01,0.000000000000000000e+00,0.000000000000000000e+00,1.110000000000000000e+02
0.000000000000000000e+00,1.000000000000000000e+00,0.000000000000000000e+00,2.000000000000000000e+00,6.950000000000000000e+02,2.108769416809082031e-01,1.448740005493164062e+00,2.515128676142048825e-01,0.000000000000000000e+00,0.000000000000000000e+00,1.110000000000000000e+02
1.000000000000000000e+00,0.000000000000000000e+00,0.000000000000000000e+00,0.000000000000000000e+00,6.940000000000000000e+02,3.619539737701416016e-01,1.906059026718139648e+00,5.406770816736652385e-01,0.000000000000000000e+00,1.000000000000000000e+00,1.120000000000000000e+02
0.000000000000000000e+00,1.000000000000000000e+00,0.000000000000000000e+00,3.000000000000000000e+00,6.960000000000000000e+02,2.770140171051025391e-01,1.848100900650024414e+00,5.887088429853151172e-01,0.000000000000000000e+00,1.000000000000000000e+00,1.110000000000000000e+02
0.000000000000000000e+00,1.000000000000000000e+00,0.000000000000000000e+00,3.000000000000000000e+00,6.980000000000000000e+02,2.630851268768310547e-01,1.797768831253051758e+00,5.365918364869596280e-01,0.000000000000000000e+00,0.000000000000000000e+00,1.110000000000000000e+02
0.000000000000000000e+00,1.000000000000000000e+00,0.000000000000000000e+00,0.000000000000000000e+00,6.970000000000000000e+02,3.082020282745361328e-01,1.568445205688476562e+00,2.720239250746533388e-01,0.000000000000000000e+00,0.000000000000000000e+00,1.110000000000000000e+02
1.000000000000000000e+00,1.000000000000000000e+00,1.000000000000000000e+00,3.000000000000000000e+00,6.990000000000000000e+02,3.925249576568603516e-01,1.904392004013061523e+00,5.261500751790697539e-01,0.000000000000000000e+00,0.000000000000000000e+00,1.110000000000000000e+02
0.000000000000000000e+00,1.000000000000000000e+00,0.000000000000000000e+00,0.000000000000000000e+00,6.980000000000000000e+02,3.336071968078613281e-01,1.856669902801513672e+00,5.328802031079892254e-01,0.000000000000000000e+00,0.000000000000000000e+00,1.110000000000000000e+02
1.000000000000000000e+00,1.000000000000000000e+00,1.000000000000000000e+00,4.000000000000000000e+00,7.010000000000000000e+02,3.150808811187744141e-01,1.989130973815917969e+00,6.718488038863821288e-01,0.000000000000000000e+00,0.000000000000000000e+00,1.110000000000000000e+02
0.000000000000000000e+00,1.000000000000000000e+00,0.000000000000000000e+00,3.000000000000000000e+00,7.030000000000000000e+02,3.057570457458496094e-01,1.555809974670410156e+00,2.614905905304475420e-01,0.000000000000000000e+00,1.000000000000000000e+00,1.120000000000000000e+02
0.000000000000000000e+00,1.000000000000000000e+00,0.000000000000000000e+00,3.000000000000000000e+00,7.050000000000000000e+02,4.347441196441650391e-01,1.725563049316406250e+00,3.036973005734592834e-01,0.000000000000000000e+00,1.000000000000000000e+00,1.110000000000000000e+02
1.000000000000000000e+00,1.000000000000000000e+00,1.000000000000000000e+00,0.000000000000000000e+00,7.040000000000000000e+02,3.904588222503662109e-01,2.040039062500000000e+00,6.600616664258023292e-01,0.000000000000000000e+00,0.000000000000000000e+00,1.110000000000000000e+02
1.000000000000000000e+00,1.000000000000000000e+00,1.000000000000000000e+00,3.000000000000000000e+00,7.060000000000000000e+02,2.682712078094482422e-01,1.579365968704223633e+00,3.231419554423461404e-01,0.000000000000000000e+00,0.000000000000000000e+00,1.110000000000000000e+02
1.000000000000000000e+00,0.000000000000000000e+00,0.000000000000000000e+00,0.000000000000000000e+00,7.050000000000000000e+02,3.299021720886230469e-01,1.999825954437255859e+00,6.726458832904069762e-01,1.000000000000000000e+00,1.000000000000000000e+00,1.120000000000000000e+02
1.000000000000000000e+00,0.000000000000000000e+00,0.000000000000000000e+00,0.000000000000000000e+00,7.040000000000000000e+02,1.980240345001220703e-01,1.941016197204589844e+00,7.469198504278917738e-01,0.000000000000000000e+00,0.000000000000000000e+00,1.120000000000000000e+02
0.000000000000000000e+00,0.000000000000000000e+00,1.000000000000000000e+00,0.000000000000000000e+00,7.030000000000000000e+02,3.088259696960449219e-01,1.938378810882568359e+00,6.521422674229384597e-01,0.000000000000000000e+00,0.000000000000000000e+00,1.120000000000000000e+02
1.000000000000000000e+00,1.000000000000000000e+00,1.000000000000000000e+00,3.000000000000000000e+00,7.050000000000000000e+02,2.868680953979492188e-01,1.892016172409057617e+00,6.108549225506696434e-01,0.000000000000000000e+00,0.000000000000000000e+00,1.120000000000000000e+02
1.000000000000000000e+00,1.000000000000000000e+00,1.000000000000000000e+00,1.000000000000000000e+00,7.050000000000000000e+02,2.865250110626220703e-01,1.843176841735839844e+00,5.707656532576592667e-01,0.000000000000000000e+00,0.000000000000000000e+00,1.120000000000000000e+02
1.000000000000000000e+00,1.000000000000000000e+00,1.000000000000000000e+00,0.000000000000000000e+00,7.040000000000000000e+02,3.076050281524658203e-01,1.639839172363281250e+00,3.442049833766016587e-01,0.000000000000000000e+00,0.000000000000000000e+00,1.120000000000000000e+02
0.000000000000000000e+00,1.000000000000000000e+00,0.000000000000000000e+00,5.000000000000000000e+00,7.080000000000000000e+02,3.792929649353027344e-01,1.856103897094726562e+00,4.835379691585228179e-01,0.000000000000000000e+00,0.000000000000000000e+00,1.120000000000000000e+02
0.000000000000000000e+00,0.000000000000000000e+00,1.000000000000000000e+00,0.000000000000000000e+00,7.070000000000000000e+02,3.007559776306152344e-01,1.778939962387084961e+00,4.791968058764247695e-01,0.000000000000000000e+00,1.000000000000000000e+00,1.110000000000000000e+02
0.000000000000000000e+00,1.000000000000000000e+00,0.000000000000000000e+00,2.000000000000000000e+00,7.080000000000000000e+02,3.361649513244628906e-01,1.684238910675048828e+00,3.635695850862891709e-01,0.000000000000000000e+00,1.000000000000000000e+00,1.120000000000000000e+02
1.000000000000000000e+00,0.000000000000000000e+00,0.000000000000000000e+00,0.000000000000000000e+00,7.070000000000000000e+02,3.688840866088867188e-01,2.025320053100585938e+00,6.719230214540952151e-01,0.000000000000000000e+00,1.000000000000000000e+00,1.110000000000000000e+02
0.000000000000000000e+00,1.000000000000000000e+00,0.000000000000000000e+00,3.000000000000000000e+00,7.090000000000000000e+02,3.506779670715332031e-01,2.025913953781127930e+00,6.811436334988196784e-01,0.000000000000000000e+00,1.000000000000000000e+00,1.120000000000000000e+02
0.000000000000000000e+00,1.000000000000000000e+00,0.000000000000000000e+00,2.000000000000000000e+00,7.100000000000000000e+02,2.439708709716796875e-01,1.809323072433471680e+00,5.906250931477293742e-01,0.000000000000000000e+00,0.000000000000000000e+00,1.120000000000000000e+02
1.000000000000000000e+00,1.000000000000000000e+00,1.000000000000000000e+00,1.000000000000000000e+00,7.100000000000000000e+02,2.955029010772705078e-01,1.769172906875610352e+00,4.766240803916580449e-01,0.000000000000000000e+00,0.000000000000000000e+00,1.120000000000000000e+02
0.000000000000000000e+00,1.000000000000000000e+00,0.000000000000000000e+00,6.000000000000000000e+00,7.150000000000000000e+02,2.898418903350830078e-01,1.959611177444458008e+00,6.860697347963373716e-01,0.000000000000000000e+00,0.000000000000000000e+00,1.120000000000000000e+02
1.000000000000000000e+00,1.000000000000000000e+00,1.000000000000000000e+00,2.000000000000000000e+00,7.160000000000000000e+02,2.592239379882812500e-01,1.913468837738037109e+00,6.662492013685773484e-01,0.000000000000000000e+00,0.000000000000000000e+00,1.120000000000000000e+02
0.000000000000000000e+00,0.000000000000000000e+00,1.000000000000000000e+00,0.000000000000000000e+00,7.150000000000000000e+02,2.946159839630126953e-01,1.545455217361450195e+00,2.621523741391934559e-01,0.000000000000000000e+00,1.000000000000000000e+00,1.110000000000000000e+02
1.000000000000000000e+00,0.000000000000000000e+00,0.000000000000000000e+00,0.000000000000000000e+00,7.140000000000000000e+02,3.193030357360839844e-01,1.713945865631103516e+00,4.092620330463126455e-01,0.000000000000000000e+00,0.000000000000000000e+00,1.110000000000000000e+02
0.000000000000000000e+00,1.000000000000000000e+00,0.000000000000000000e+00,4.000000000000000000e+00,7.170000000000000000e+02,2.776279449462890625e-01,1.794912815093994141e+00,5.374288372027566929e-01,0.000000000000000000e+00,1.000000000000000000e+00,1.120000000000000000e+02
0.000000000000000000e+00,1.000000000000000000e+00,0.000000000000000000e+00,3.000000000000000000e+00,7.190000000000000000e+02,3.017160892486572266e-01,2.031440973281860352e+00,7.353676581706314330e-01,0.000000000000000000e+00,0.000000000000000000e+00,1.120000000000000000e+02
0.000000000000000000e+00,1.000000000000000000e+00,0.000000000000000000e+00,2.000000000000000000e+00,7.200000000000000000e+02,2.864360809326171875e-01,1.848519802093505859e+00,5.674121107534482178e-01,0.000000000000000000e+00,0.000000000000000000e+00,1.120000000000000000e+02
1.000000000000000000e+00,0.000000000000000000e+00,0.000000000000000000e+00,0.000000000000000000e+00,7.190000000000000000e+02,3.956899642944335938e-01,1.737571001052856445e+00,3.385989516885664075e-01,0.000000000000000000e+00,1.000000000000000000e+00,1.110000000000000000e+02
1.000000000000000000e+00,0.000000000000000000e+00,0.000000000000000000e+00,0.000000000000000000e+00,7.180000000000000000e+02,3.863041400909423828e-01,1.673002004623413086e+00,2.950046415844496117e-01,0.000000000000000000e+00,0.000000000000000000e+00,1.110000000000000000e+02
0.000000000000000000e+00,0.000000000000000000e+00,1.000000000000000000e+00,0.000000000000000000e+00,7.170000000000000000e+02,2.966930866241455078e-01,1.732285976409912109e+00,4.438202398946502480e-01,0.000000000000000000e+00,0.000000000000000000e+00,1.110000000000000000e+02
0.000000000000000000e+00,0.000000000000000000e+00,1.000000000000000000e+00,0.000000000000000000e+00,7.160000000000000000e+02,2.714269161224365234e-01,1.577564954757690430e+00,3.215690517027578466e-01,0.000000000000000000e+00,1.000000000000000000e+00,1.120000000000000000e+02
0.000000000000000000e+00,1.000000000000000000e+00,0.000000000000000000e+00,3.000000000000000000e+00,7.180000000000000000e+02,2.821700572967529297e-01,1.572721004486083984e+00,2.943099401543181060e-01,0.000000000000000000e+00,0.000000000000000000e+00,1.120000000000000000e+02
1.000000000000000000e+00,1.000000000000000000e+00,1.000000000000000000e+00,3.000000000000000000e+00,7.200000000000000000e+02,3.345129489898681641e-01,1.627388954162597656e+00,3.050630185926377913e-01,0.000000000000000000e+00,0.000000000000000000e+00,1.120000000000000000e+02
0.000000000000000000e+00,1.000000000000000000e+00,0.000000000000000000e+00,3.000000000000000000e+00,7.220000000000000000e+02,2.742991447448730469e-01,1.991729974746704102e+00,7.297245187154062229e-01,0.000000000000000000e+00,0.000000000000000000e+00,1.120000000000000000e+02
1.000000000000000000e+00,1.000000000000000000e+00,1.000000000000000000e+00,4.000000000000000000e+00,7.250000000000000000e+02,2.779560089111328125e-01,1.504121065139770508e+00,2.510325727784660232e-01,0.000000000000000000e+00,0.000000000000000000e+00,1.120000000000000000e+02
1.000000000000000000e+00,1.000000000000000000e+00,1.000000000000000000e+00,2.000000000000000000e+00,7.260000000000000000e+02,3.623101711273193359e-01,1.833591938018798828e+00,4.677747292364108356e-01,0.000000000000000000e+00,0.000000000000000000e+00,1.120000000000000000e+02
1.000000000000000000e+00,1.000000000000000000e+00,1.000000000000000000e+00,4.000000000000000000e+00,7.290000000000000000e+02,2.691822052001953125e-01,1.666175127029418945e+00,4.006812652633348626e-01,0.000000000000000000e+00,0.000000000000000000e+00,1.120000000000000000e+02
0.000000000000000000e+00,1.000000000000000000e+00,0.000000000000000000e+00,2.000000000000000000e+00,7.300000000000000000e+02,3.675909042358398438e-01,1.881396055221557617e+00,5.152987813528658867e-01,0.000000000000000000e+00,0.000000000000000000e+00,1.120000000000000000e+02
1.000000000000000000e+00,1.000000000000000000e+00,1.000000000000000000e+00,3.000000000000000000e+00,7.320000000000000000e+02,1.823718547821044922e-01,1.716611862182617188e+00,5.319252906524098989e-01,0.000000000000000000e+00,0.000000000000000000e+00,1.120000000000000000e+02
0.000000000000000000e+00,0.000000000000000000e+00,1.000000000000000000e+00,0.000000000000000000e+00,7.310000000000000000e+02,2.873630523681640625e-01,1.949162006378173828e+00,6.809996571398717613e-01,0.000000000000000000e+00,1.000000000000000000e+00,1.110000000000000000e+02
1.000000000000000000e+00,0.000000000000000000e+00,0.000000000000000000e+00,0.000000000000000000e+00,7.300000000000000000e+02,2.553789615631103516e-01,1.616291999816894531e+00,3.809532688271414780e-01,0.000000000000000000e+00,1.000000000000000000e+00,1.120000000000000000e+02
1.000000000000000000e+00,0.000000000000000000e+00,0.000000000000000000e+00,0.000000000000000000e+00,7.290000000000000000e+02,2.787179946899414062e-01,1.531924009323120117e+00,2.796859123491152177e-01,1.000000000000000000e+00,1.000000000000000000e+00,1.110000000000000000e+02
1.000000000000000000e+00,0.000000000000000000e+00,0.000000000000000000e+00,0.000000000000000000e+00,7.280000000000000000e+02,3.554790019989013672e-01,1.981611013412475586e+00,6.442535967634581695e-01,0.000000000000000000e+00,0.000000000000000000e+00,1.110000000000000000e+02
0.000000000000000000e+00,0.000000000000000000e+00,1.000000000000000000e+00,0.000000000000000000e+00,7.270000000000000000e+02,2.262690067291259766e-01,1.727431058883666992e+00,5.218572570439552472e-01,0.000000000000000000e+00,0.000000000000000000e+00,1.110000000000000000e+02
1.000000000000000000e+00,1.000000000000000000e+00,1.000000000000000000e+00,1.000000000000000000e+00,7.270000000000000000e+02,2.818939685821533203e-01,1.548361063003540039e+00,2.705295893430544885e-01,0.000000000000000000e+00,0.000000000000000000e+00,1.110000000000000000e+02
1.000000000000000000e+00,0.000000000000000000e+00,0.000000000000000000e+00,0.000000000000000000e+00,7.260000000000000000e+02,3.190181255340576172e-01,2.053236007690429688e+00,7.399803977021419676e-01,0.000000000000000000e+00,1.000000000000000000e+00,1.120000000000000000e+02
1.000000000000000000e+00,0.000000000000000000e+00,0.000000000000000000e+00,0.000000000000000000e+00,7.250000000000000000e+02,2.320129871368408203e-01,1.845263957977294922e+00,6.186897301057801002e-01,0.000000000000000000e+00,1.000000000000000000e+00,1.110000000000000000e+02
1.000000000000000000e+00,1.000000000000000000e+00,1.000000000000000000e+00,3.000000000000000000e+00,7.270000000000000000e+02,1.261079311370849609e-01,1.611590862274169922e+00,4.970965980052490796e-01,0.000000000000000000e+00,1.000000000000000000e+00,1.120000000000000000e+02
0.000000000000000000e+00,0.000000000000000000e+00,1.000000000000000000e+00,0.000000000000000000e+00,7.260000000000000000e+02,3.411471843719482422e-01,1.824707031250000000e+00,5.051490015605040185e-01,0.000000000000000000e+00,1.000000000000000000e+00,1.110000000000000000e+02
1.000000000000000000e+00,0.000000000000000000e+00,0.000000000000000000e+00,0.000000000000000000e+00,7.250000000000000000e+02,3.488829135894775391e-01,1.779682159423828125e+00,4.349640467967180735e-01,0.000000000000000000e+00,0.000000000000000000e+00,1.110000000000000000e+02
0.000000000000000000e+00,1.000000000000000000e+00,0.000000000000000000e+00,3.000000000000000000e+00,7.270000000000000000e+02,2.796409130096435547e-01,1.824104070663452148e+00,5.423568957015483250e-01,0.000000000000000000e+00,1.000000000000000000e+00,1.120000000000000000e+02
1.000000000000000000e+00,1.000000000000000000e+00,1.000000000000000000e+00,4.000000000000000000e+00,7.300000000000000000e+02,4.180591106414794922e-01,1.707428932189941406e+00,3.000465551768089489e-01,0.000000000000000000e+00,1.000000000000000000e+00,1.110000000000000000e+02
1.000000000000000000e+00,1.000000000000000000e+00,1.000000000000000000e+00,3.000000000000000000e+00,7.320000000000000000e+02,3.164110183715820312e-01,1.866333007812500000e+00,5.494856089845326919e-01,0.000000000000000000e+00,0.000000000000000000e+00,1.110000000000000000e+02
1.000000000000000000e+00,1.000000000000000000e+00,1.000000000000000000e+00,2.000000000000000000e+00,7.330000000000000000e+02,2.587931156158447266e-01,1.530025005340576172e+00,2.798314832737729407e-01,0.000000000000000000e+00,0.000000000000000000e+00,1.110000000000000000e+02
1.000000000000000000e+00,1.000000000000000000e+00,1.000000000000000000e+00,1.000000000000000000e+00,7.330000000000000000e+02,3.312070369720458984e-01,1.997105121612548828e+00,6.765479094475321808e-01,0.000000000000000000e+00,0.000000000000000000e+00,1.110000000000000000e+02
1.000000000000000000e+00,1.000000000000000000e+00,1.000000000000000000e+00,3.000000000000000000e+00,7.350000000000000000e+02,2.962491512298583984e-01,1.551090955734252930e+00,2.614017351582474946e-01,0.000000000000000000e+00,0.000000000000000000e+00,1.110000000000000000e+02
0.000000000000000000e+00,1.000000000000000000e+00,0.000000000000000000e+00,1.000000000000000000e+00,7.350000000000000000e+02,4.943730831146240234e-01,2.182218074798583984e+00,7.098286767449060175e-01,0.000000000000000000e+00,0.000000000000000000e+00,1.110000000000000000e+02
1.000000000000000000e+00,0.000000000000000000e+00,0.000000000000000000e+00,0.000000000000000000e+00,7.340000000000000000e+02,2.140901088714599609e-01,1.494327068328857422e+00,2.880050804748824356e-01,0.000000000000000000e+00,1.000000000000000000e+00,1.120000000000000000e+02
1.000000000000000000e+00,1.000000000000000000e+00,1.000000000000000000e+00,2.000000000000000000e+00,7.350000000000000000e+02,4.922130107879638672e-01,2.019209861755371094e+00,5.402967557344794391e-01,0.000000000000000000e+00,1.000000000000000000e+00,1.110000000000000000e+02
1.000000000000000000e+00,1.000000000000000000e+00,1.000000000000000000e+00,1.000000000000000000e+00,7.350000000000000000e+02,3.235490322113037109e-01,1.664317131042480469e+00,3.548727202488191068e-01,0.000000000000000000e+00,0.000000000000000000e+00,1.110000000000000000e+02
1.000000000000000000e+00,0.000000000000000000e+00,0.000000000000000000e+00,0.000000000000000000e+00,7.340000000000000000e+02,3.318850994110107422e-01,1.990162849426269531e+00,6.613946070005840561e-01,0.000000000000000000e+00,1.000000000000000000e+00,1.120000000000000000e+02
1.000000000000000000e+00,0.000000000000000000e+00,0.000000000000000000e+00,0.000000000000000000e+00,7.330000000000000000e+02,4.187290668487548828e-01,1.840948104858398438e+00,4.358979560334151349e-01,0.000000000000000000e+00,1.000000000000000000e+00,1.110000000000000000e+02
1.000000000000000000e+00,1.000000000000000000e+00,1.000000000000000000e+00,2.000000000000000000e+00,7.340000000000000000e+02,4.307689666748046875e-01,1.755778074264526367e+00,3.252046293908236740e-01,0.000000000000000000e+00,0.000000000000000000e+00,1.110000000000000000e+02
1.000000000000000000e+00,1.000000000000000000e+00,1.000000000000000000e+00,2.000000000000000000e+00,7.350000000000000000e+02,8.088381290435791016e-01,2.182523012161254883e+00,3.910173207175300925e-01,0.000000000000000000e+00,0.000000000000000000e+00,1.110000000000000000e+02
1.000000000000000000e+00,0.000000000000000000e+00,0.000000000000000000e+00,0.000000000000000000e+00,7.340000000000000000e+02,3.145670890808105469e-01,1.697771072387695312e+00,3.888421596606001507e-01,0.000000000000000000e+00,0.000000000000000000e+00,1.110000000000000000e+02
1.000000000000000000e+00,1.000000000000000000e+00,1.000000000000000000e+00,1.000000000000000000e+00,7.340000000000000000e+02,4.725670814514160156e-01,1.892278909683227539e+00,4.309610507286561476e-01,0.000000000000000000e+00,0.000000000000000000e+00,1.110000000000000000e+02
0.000000000000000000e+00,1.000000000000000000e+00,0.000000000000000000e+00,2.000000000000000000e+00,7.350000000000000000e+02,3.893330097198486328e-01,1.684387922286987305e+00,3.156147616502185116e-01,0.000000000000000000e+00,0.000000000000000000e+00,1.110000000000000000e+02
1.000000000000000000e+00,0.000000000000000000e+00,0.000000000000000000e+00,0.000000000000000000e+00,7.340000000000000000e+02,5.874149799346923828e-01,2.313913822174072266e+00,7.291277273223877309e-01,0.000000000000000000e+00,0.000000000000000000e+00,1.110000000000000000e+02
1.000000000000000000e+00,1.000000000000000000e+00,1.000000000000000000e+00,3.000000000000000000e+00,7.360000000000000000e+02,3.475310802459716797e-01,2.030543804168701172e+00,6.930920824323985041e-01,0.000000000000000000e+00,1.000000000000000000e+00,1.120000000000000000e+02
0.000000000000000000e+00,1.000000000000000000e+00,0.000000000000000000e+00,0.000000000000000000e+00,7.350000000000000000e+02,3.072681427001953125e-01,1.768460988998413086e+00,4.784985471075930974e-01,0.000000000000000000e+00,0.000000000000000000e+00,1.120000000000000000e+02
0.000000000000000000e+00,0.000000000000000000e+00,1.000000000000000000e+00,0.000000000000000000e+00,7.340000000000000000e+02,3.537111282348632812e-01,1.835828065872192383e+00,4.976618381580108497e-01,0.000000000000000000e+00,1.000000000000000000e+00,1.110000000000000000e+02
1.000000000000000000e+00,0.000000000000000000e+00,0.000000000000000000e+00,0.000000000000000000e+00,7.330000000000000000e+02,8.202440738677978516e-01,2.312473773956298828e+00,5.101559485111604175e-01,0.000000000000000000e+00,0.000000000000000000e+00,1.110000000000000000e+02
1.000000000000000000e+00,0.000000000000000000e+00,0.000000000000000000e+00,0.000000000000000000e+00,7.320000000000000000e+02,4.698870182037353516e-01,1.966737031936645508e+00,5.102303003646904145e-01,0.000000000000000000e+00,0.000000000000000000e+00,1.110000000000000000e+02
0.000000000000000000e+00,0.000000000000000000e+00,1.000000000000000000e+00,0.000000000000000000e+00,7.310000000000000000e+02,3.790819644927978516e-01,1.873399972915649414e+00,5.003593775045819259e-01,0.000000000000000000e+00,0.000000000000000000e+00,1.110000000000000000e+02
1.000000000000000000e+00,1.000000000000000000e+00,1.000000000000000000e+00,2.000000000000000000e+00,7.320000000000000000e+02,4.058098793029785156e-01,1.651371955871582031e+00,2.520213037901110065e-01,0.000000000000000000e+00,1.000000000000000000e+00,1.120000000000000000e+02
0.000000000000000000e+00,1.000000000000000000e+00,0.000000000000000000e+00,3.000000000000000000e+00,7.340000000000000000e+02,5.598831176757812500e-01,2.183962106704711914e+00,6.356385501200970678e-01,0.000000000000000000e+00,0.000000000000000000e+00,1.120000000000000000e+02
0.000000000000000000e+00,0.000000000000000000e+00,1.000000000000000000e+00,0.000000000000000000e+00,7.330000000000000000e+02,3.636338710784912109e-01,1.757545948028564453e+00,3.934067725138480354e-01,1.000000000000000000e+00,0.000000000000000000e+00,1.120000000000000000e+02
0.000000000000000000e+00,0.000000000000000000e+00,1.000000000000000000e+00,0.000000000000000000e+00,7.320000000000000000e+02,4.057559967041015625e-01,1.930395126342773438e+00,5.403496795386486529e-01,0.000000000000000000e+00,0.000000000000000000e+00,1.120000000000000000e+02
0.000000000000000000e+00,0.000000000000000000e+00,1.000000000000000000e+00,0.000000000000000000e+00,7.310000000000000000e+02,3.653969764709472656e-01,1.833293914794921875e+00,4.737684873892268889e-01,0.000000000000000000e+00,0.000000000000000000e+00,1.120000000000000000e+02
0.000000000000000000e+00,1.000000000000000000e+00,0.000000000000000000e+00,3.000000000000000000e+00,7.330000000000000000e+02,4.601640701293945312e-01,1.785226821899414062e+00,3.424832777654072125e-01,0.000000000000000000e+00,0.000000000000000000e+00,1.120000000000000000e+02
0.000000000000000000e+00,1.000000000000000000e+00,0.000000000000000000e+00,3.000000000000000000e+00,7.350000000000000000e+02,3.249680995941162109e-01,1.806954860687255859e+00,4.993195497573172936e-01,0.000000000000000000e+00,0.000000000000000000e+00,1.120000000000000000e+02
1.000000000000000000e+00,1.000000000000000000e+00,1.000000000000000000e+00,2.000000000000000000e+00,7.360000000000000000e+02,3.342688083648681641e-01,1.694761991500854492e+00,3.609059810658163392e-01,0.000000000000000000e+00,0.000000000000000000e+00,1.120000000000000000e+02
0.000000000000000000e+00,1.000000000000000000e+00,0.000000000000000000e+00,3.000000000000000000e+00,7.380000000000000000e+02,4.610509872436523438e-01,1.797452926635742188e+00,3.417549277719622025e-01,0.000000000000000000e+00,0.000000000000000000e+00,1.120000000000000000e+02
0.000000000000000000e+00,1.000000000000000000e+00,0.000000000000000000e+00,3.000000000000000000e+00,7.400000000000000000e+02,3.450889587402343750e-01,1.854872941970825195e+00,5.297877007114610848e-01,0.000000000000000000e+00,0.000000000000000000e+00,1.120000000000000000e+02
0.000000000000000000e+00,1.000000000000000000e+00,0.000000000000000000e+00,2.000000000000000000e+00,7.410000000000000000e+02,2.911899089813232422e-01,1.780354976654052734e+00,5.101936632077637146e-01,0.000000000000000000e+00,0.000000000000000000e+00,1.120000000000000000e+02
0.000000000000000000e+00,1.000000000000000000e+00,0.000000000000000000e+00,1.000000000000000000e+00,7.410000000000000000e+02,2.526149749755859375e-01,1.720890045166015625e+00,4.811080482306521189e-01,0.000000000000000000e+00,0.000000000000000000e+00,1.120000000000000000e+02
1.000000000000000000e+00,0.000000000000000000e+00,0.000000000000000000e+00,0.000000000000000000e+00,7.400000000000000000e+02,4.142570495605468750e-01,1.869361162185668945e+00,4.672380669029040368e-01,0.000000000000000000e+00,1.000000000000000000e+00,1.110000000000000000e+02
0.000000000000000000e+00,1.000000000000000000e+00,0.000000000000000000e+00,3.000000000000000000e+00,7.420000000000000000e+02,2.831268310546875000e-01,1.985066890716552734e+00,7.020969950090786282e-01,0.000000000000000000e+00,1.000000000000000000e+00,1.120000000000000000e+02
0.000000000000000000e+00,1.000000000000000000e+00,0.000000000000000000e+00,5.000000000000000000e+00,7.460000000000000000e+02,3.077399730682373047e-01,1.950874090194702148e+00,6.530167288098585043e-01,0.000000000000000000e+00,0.000000000000000000e+00,1.120000000000000000e+02
1.000000000000000000e+00,1.000000000000000000e+00,1.000000000000000000e+00,3.000000000000000000e+00,7.480000000000000000e+02,3.249528408050537109e-01,2.031128883361816406e+00,7.174501256017249418e-01,0.000000000000000000e+00,0.000000000000000000e+00,1.120000000000000000e+02
1.000000000000000000e+00,1.000000000000000000e+00,1.000000000000000000e+00,3.000000000000000000e+00,7.500000000000000000e+02,3.335869312286376953e-01,1.983361005783081055e+00,6.509410758135329989e-01,0.000000000000000000e+00,0.000000000000000000e+00,1.120000000000000000e+02
0.000000000000000000e+00,1.000000000000000000e+00,0.000000000000000000e+00,3.000000000000000000e+00,7.520000000000000000e+02,2.853939533233642578e-01,1.797653198242187500e+00,5.154050472921556381e-01,0.000000000000000000e+00,0.000000000000000000e+00,1.120000000000000000e+02
1.000000000000000000e+00,1.000000000000000000e+00,1.000000000000000000e+00,2.000000000000000000e+00,7.530000000000000000e+02,3.144018650054931641e-01,1.779785871505737305e+00,4.619601781067386170e-01,0.000000000000000000e+00,0.000000000000000000e+00,1.120000000000000000e+02
1.000000000000000000e+00,0.000000000000000000e+00,0.000000000000000000e+00,0.000000000000000000e+00,7.520000000000000000e+02,3.146920204162597656e-01,1.922683000564575195e+00,6.178584181043407231e-01,0.000000000000000000e+00,1.000000000000000000e+00,1.110000000000000000e+02
1.000000000000000000e+00,0.000000000000000000e+00,0.000000000000000000e+00,0.000000000000000000e+00,7.510000000000000000e+02,3.314471244812011719e-01,1.635317802429199219e+00,3.035150498933484320e-01,0.000000000000000000e+00,0.000000000000000000e+00,1.110000000000000000e+02
0.000000000000000000e+00,1.000000000000000000e+00,0.000000000000000000e+00,1.000000000000000000e+00,7.510000000000000000e+02,5.092828273773193359e-01,2.042243003845214844e+00,5.455438615831582627e-01,0.000000000000000000e+00,1.000000000000000000e+00,1.120000000000000000e+02
1.000000000000000000e+00,1.000000000000000000e+00,1.000000000000000000e+00,2.000000000000000000e+00,7.520000000000000000e+02,3.289878368377685547e-01,1.592386007308959961e+00,2.716064658585026215e-01,0.000000000000000000e+00,0.000000000000000000e+00,1.120000000000000000e+02
0.000000000000000000e+00,0.000000000000000000e+00,1.000000000000000000e+00,0.000000000000000000e+00,7.510000000000000000e+02,3.319330215454101562e-01,1.798961877822875977e+00,4.703480547979361770e-01,0.000000000000000000e+00,1.000000000000000000e+00,1.110000000000000000e+02
1.000000000000000000e+00,1.000000000000000000e+00,1.000000000000000000e+00,3.000000000000000000e+00,7.530000000000000000e+02,4.330308437347412109e-01,1.773319959640502930e+00,3.438336354254222793e-01,0.000000000000000000e+00,1.000000000000000000e+00,1.120000000000000000e+02
1.000000000000000000e+00,1.000000000000000000e+00,1.000000000000000000e+00,2.000000000000000000e+00,7.540000000000000000e+02,4.994299411773681641e-01,2.080186128616333008e+00,5.904921609666735627e-01,0.000000000000000000e+00,0.000000000000000000e+00,1.120000000000000000e+02
0.000000000000000000e+00,1.000000000000000000e+00,0.000000000000000000e+00,4.000000000000000000e+00,7.570000000000000000e+02,3.022620677947998047e-01,1.937492847442626953e+00,6.446026269277178589e-01,0.000000000000000000e+00,0.000000000000000000e+00,1.120000000000000000e+02
0.000000000000000000e+00,1.000000000000000000e+00,0.000000000000000000e+00,3.000000000000000000e+00,7.590000000000000000e+02,2.999708652496337891e-01,1.980081796646118164e+00,6.913445994349295409e-01,0.000000000000000000e+00,0.000000000000000000e+00,1.120000000000000000e+02
0.000000000000000000e+00,1.000000000000000000e+00,0.000000000000000000e+00,2.000000000000000000e+00,7.600000000000000000e+02,2.026529312133789062e-01,1.546135187149047852e+00,3.544796963939049750e-01,0.000000000000000000e+00,0.000000000000000000e+00,1.120000000000000000e+02
1.000000000000000000e+00,1.000000000000000000e+00,1.000000000000000000e+00,3.000000000000000000e+00,7.620000000000000000e+02,3.677098751068115234e-01,2.042524814605712891e+00,6.800781535480228124e-01,0.000000000000000000e+00,0.000000000000000000e+00,1.120000000000000000e+02
0.000000000000000000e+00,1.000000000000000000e+00,0.000000000000000000e+00,2.000000000000000000e+00,7.630000000000000000e+02,2.875471115112304688e-01,1.593023777008056641e+00,3.234857780374251757e-01,0.000000000000000000e+00,0.000000000000000000e+00,1.120000000000000000e+02
1.000000000000000000e+00,1.000000000000000000e+00,1.000000000000000000e+00,2.000000000000000000e+00,7.640000000000000000e+02,3.344950675964355469e-01,1.864419221878051758e+00,5.377191721741858554e-01,0.000000000000000000e+00,0.000000000000000000e+00,1.120000000000000000e+02
1.000000000000000000e+00,1.000000000000000000e+00,1.000000000000000000e+00,1.000000000000000000e+00,7.640000000000000000e+02,3.208529949188232422e-01,1.742430925369262695e+00,4.302802005129041651e-01,0.000000000000000000e+00,0.000000000000000000e+00,1.120000000000000000e+02
0.000000000000000000e+00,1.000000000000000000e+00,0.000000000000000000e+00,2.000000000000000000e+00,7.650000000000000000e+02,3.105669021606445312e-01,1.673475980758666992e+00,3.871689991891917315e-01,0.000000000000000000e+00,0.000000000000000000e+00,1.120000000000000000e+02
1.000000000000000000e+00,1.000000000000000000e+00,1.000000000000000000e+00,0.000000000000000000e+00,7.640000000000000000e+02,3.564019203186035156e-01,2.024221181869506836e+00,6.777946137145746119e-01,0.000000000000000000e+00,0.000000000000000000e+00,1.120000000000000000e+02
0.000000000000000000e+00,1.000000000000000000e+00,0.000000000000000000e+00,2.000000000000000000e+00,7.650000000000000000e+02,2.998039722442626953e-01,1.929672002792358398e+00,6.408152636115005407e-01,0.000000000000000000e+00,0.000000000000000000e+00,1.120000000000000000e+02
0.000000000000000000e+00,1.000000000000000000e+00,0.000000000000000000e+00,4.000000000000000000e+00,7.680000000000000000e+02,2.745399475097656250e-01,1.954545021057128906e+00,6.953921989065249276e-01,0.000000000000000000e+00,0.000000000000000000e+00,1.120000000000000000e+02
1.000000000000000000e+00,0.000000000000000000e+00,0.000000000000000000e+00,0.000000000000000000e+00,7.670000000000000000e+02,3.045649528503417969e-01,1.635941982269287109e+00,3.483860289764924012e-01,0.000000000000000000e+00,1.000000000000000000e+00,1.110000000000000000e+02
0.000000000000000000e+00,0.000000000000000000e+00,1.000000000000000000e+00,0.000000000000000000e+00,7.660000000000000000e+02,3.551971912384033203e-01,1.717834949493408203e+00,3.828774811511109766e-01,0.000000000000000000e+00,0.000000000000000000e+00,1.110000000000000000e+02
0.000000000000000000e+00,1.000000000000000000e+00,0.000000000000000000e+00,2.000000000000000000e+00,7.670000000000000000e+02,3.089790344238281250e-01,1.854357957839965820e+00,5.537261095040200143e-01,0.000000000000000000e+00,1.000000000000000000e+00,1.120000000000000000e+02
0.000000000000000000e+00,1.000000000000000000e+00,0.000000000000000000e+00,2.000000000000000000e+00,7.680000000000000000e+02,3.391098976135253906e-01,1.689035177230834961e+00,3.596779752259452456e-01,0.000000000000000000e+00,0.000000000000000000e+00,1.120000000000000000e+02
0.000000000000000000e+00,1.000000000000000000e+00,0.000000000000000000e+00,3.000000000000000000e+00,7.700000000000000000e+02,4.057149887084960938e-01,2.080590009689331055e+00,6.899794951823505773e-01,0.000000000000000000e+00,0.000000000000000000e+00,1.120000000000000000e+02
0.000000000000000000e+00,1.000000000000000000e+00,0.000000000000000000e+00,2.000000000000000000e+00,7.710000000000000000e+02,4.735469818115234375e-01,2.098953008651733398e+00,6.390130189069886946e-01,0.000000000000000000e+00,0.000000000000000000e+00,1.120000000000000000e+02
0.000000000000000000e+00,1.000000000000000000e+00,0.000000000000000000e+00,2.000000000000000000e+00,7.720000000000000000e+02,2.916049957275390625e-01,1.726228952407836914e+00,4.487802353194121907e-01,0.000000000000000000e+00,0.000000000000000000e+00,1.120000000000000000e+02
0.000000000000000000e+00,0.000000000000000000e+00,1.000000000000000000e+00,0.000000000000000000e+00,7.710000000000000000e+02,3.323249816894531250e-01,1.930717229843139648e+00,5.960629414568028306e-01,0.000000000000000000e+00,1.000000000000000000e+00,1.110000000000000000e+02
0.000000000000000000e+00,1.000000000000000000e+00,0.000000000000000000e+00,3.000000000000000000e+00,7.730000000000000000e+02,1.908459663391113281e-01,1.842944860458374023e+00,6.722969270764684868e-01,0.000000000000000000e+00,0.000000000000000000e+00,1.110000000000000000e+02
0.000000000000000000e+00,0.000000000000000000e+00,1.000000000000000000e+00,0.000000000000000000e+00,7.720000000000000000e+02,4.748220443725585938e-01,1.913735151290893555e+00,4.529422703206165690e-01,0.000000000000000000e+00,0.000000000000000000e+00,1.110000000000000000e+02
0.000000000000000000e+00,1.000000000000000000e+00,0.000000000000000000e+00,3.000000000000000000e+00,7.740000000000000000e+02,5.262398719787597656e-01,2.092189073562622070e+00,5.783867846322721107e-01,0.000000000000000000e+00,1.000000000000000000e+00,1.120000000000000000e+02
1.000000000000000000e+00,1.000000000000000000e+00,1.000000000000000000e+00,3.000000000000000000e+00,7.760000000000000000e+02,4.420850276947021484e-01,1.877737045288085938e+00,4.562585616257244236e-01,0.000000000000000000e+00,0.000000000000000000e+00,1.120000000000000000e+02
0.000000000000000000e+00,1.000000000000000000e+00,0.000000000000000000e+00,3.000000000000000000e+00,7.780000000000000000e+02,3.046967983245849609e-01,1.753217935562133789e+00,4.595060354133328473e-01,0.000000000000000000e+00,0.000000000000000000e+00,1.120000000000000000e+02
0.000000000000000000e+00,1.000000000000000000e+00,0.000000000000000000e+00,1.000000000000000000e+00,7.780000000000000000e+02,3.377981185913085938e-01,1.781232118606567383e+00,4.574365858558426812e-01,0.000000000000000000e+00,0.000000000000000000e+00,1.120000000000000000e+02
1.000000000000000000e+00,0.000000000000000000e+00,0.000000000000000000e+00,0.000000000000000000e+00,7.770000000000000000e+02,3.504559993743896484e-01,1.755420923233032227e+00,4.129350485387068836e-01,0.000000000000000000e+00,1.000000000000000000e+00,1.110000000000000000e+02
0.000000000000000000e+00,0.000000000000000000e+00,1.000000000000000000e+00,0.000000000000000000e+00,7.760000000000000000e+02,3.505260944366455078e-01,1.903614997863769531e+00,5.664394157244005967e-01,1.000000000000000000e+00,0.000000000000000000e+00,1.110000000000000000e+02
1.000000000000000000e+00,0.000000000000000000e+00,0.000000000000000000e+00,0.000000000000000000e+00,7.750000000000000000e+02,2.909328937530517578e-01,1.836926221847534180e+00,5.533961914701569507e-01,0.000000000000000000e+00,0.000000000000000000e+00,1.110000000000000000e+02
0.000000000000000000e+00,1.000000000000000000e+00,0.000000000000000000e+00,2.000000000000000000e+00,7.760000000000000000e+02,2.916870117187500000e-01,1.868170976638793945e+00,5.882180068221758429e-01,0.000000000000000000e+00,0.000000000000000000e+00,1.110000000000000000e+02
1.000000000000000000e+00,1.000000000000000000e+00,1.000000000000000000e+00,2.000000000000000000e+00,7.770000000000000000e+02,3.410768508911132812e-01,1.785171031951904297e+00,4.569000966849107725e-01,0.000000000000000000e+00,0.000000000000000000e+00,1.110000000000000000e+02
0.000000000000000000e+00,1.000000000000000000e+00,0.000000000000000000e+00,5.000000000000000000e+00,7.810000000000000000e+02,2.968149185180664062e-01,1.549458980560302734e+00,2.566052523895236415e-01,0.000000000000000000e+00,0.000000000000000000e+00,1.110000000000000000e+02
1.000000000000000000e+00,1.000000000000000000e+00,1.000000000000000000e+00,1.000000000000000000e+00,7.810000000000000000e+02,4.208168983459472656e-01,1.893970012664794922e+00,4.837040714537754194e-01,0.000000000000000000e+00,0.000000000000000000e+00,1.110000000000000000e+02
0.000000000000000000e+00,0.000000000000000000e+00,1.000000000000000000e+00,0.000000000000000000e+00,7.800000000000000000e+02,2.928900718688964844e-01,1.830252170562744141e+00,5.472590753857413670e-01,0.000000000000000000e+00,1.000000000000000000e+00,1.120000000000000000e+02
0.000000000000000000e+00,1.000000000000000000e+00,0.000000000000000000e+00,3.000000000000000000e+00,7.820000000000000000e+02,3.023509979248046875e-01,1.553507804870605469e+00,2.677491216851977107e-01,0.000000000000000000e+00,1.000000000000000000e+00,1.110000000000000000e+02
0.000000000000000000e+00,0.000000000000000000e+00,1.000000000000000000e+00,0.000000000000000000e+00,7.810000000000000000e+02,3.947150707244873047e-01,1.693177938461303711e+00,2.942273432450488446e-01,0.000000000000000000e+00,1.000000000000000000e+00,1.120000000000000000e+02
0.000000000000000000e+00,1.000000000000000000e+00,0.000000000000000000e+00,2.000000000000000000e+00,7.820000000000000000e+02,9.177389144897460938e-01,4.014323949813842773e+00,6.915676455898468467e-01,1.000000000000000000e+00,1.000000000000000000e+00,1.110000000000000000e+02
1.000000000000000000e+00,1.000000000000000000e+00,1.000000000000000000e+00,4.000000000000000000e+00,7.850000000000000000e+02,2.909140586853027344e-01,1.705521106719970703e+00,4.306872442042429250e-01,0.000000000000000000e+00,0.000000000000000000e+00,1.110000000000000000e+02
0.000000000000000000e+00,1.000000000000000000e+00,0.000000000000000000e+00,3.000000000000000000e+00,7.870000000000000000e+02,2.809641361236572266e-01,1.543459892272949219e+00,2.743560454110123836e-01,0.000000000000000000e+00,0.000000000000000000e+00,1.110000000000000000e+02
0.000000000000000000e+00,1.000000000000000000e+00,0.000000000000000000e+00,2.000000000000000000e+00,7.880000000000000000e+02,2.910599708557128906e-01,1.915313959121704102e+00,6.393105816435944444e-01,0.000000000000000000e+00,0.000000000000000000e+00,1.110000000000000000e+02
1.000000000000000000e+00,0.000000000000000000e+00,0.000000000000000000e+00,0.000000000000000000e+00,7.870000000000000000e+02,3.194091320037841797e-01,1.577027082443237305e+00,2.667547456922592652e-01,0.000000000000000000e+00,1.000000000000000000e+00,1.120000000000000000e+02
0.000000000000000000e+00,1.000000000000000000e+00,0.000000000000000000e+00,2.000000000000000000e+00,7.880000000000000000e+02,2.741649150848388672e-01,1.562968015670776367e+00,2.963924801892725558e-01,0.000000000000000000e+00,1.000000000000000000e+00,1.110000000000000000e+02
1.000000000000000000e+00,1.000000000000000000e+00,1.000000000000000000e+00,2.000000000000000000e+00,7.890000000000000000e+02,3.252780437469482422e-01,1.860677003860473633e+00,5.568147278524341326e-01,0.000000000000000000e+00,0.000000000000000000e+00,1.110000000000000000e+02
0.000000000000000000e+00,0.000000000000000000e+00,1.000000000000000000e+00,0.000000000000000000e+00,7.880000000000000000e+02,1.785790920257568359e-01,1.684824943542480469e+00,5.083931047365906064e-01,0.000000000000000000e+00,0.000000000000000000e+00,1.110000000000000000e+02
1.000000000000000000e+00,1.000000000000000000e+00,1.000000000000000000e+00,2.000000000000000000e+00,7.890000000000000000e+02,2.713229656219482422e-01,1.689695119857788086e+00,4.315486035164765033e-01,0.000000000000000000e+00,0.000000000000000000e+00,1.110000000000000000e+02
1.000000000000000000e+00,0.000000000000000000e+00,0.000000000000000000e+00,0.000000000000000000e+00,7.880000000000000000e+02,3.250701427459716797e-01,1.975038051605224609e+00,6.730367625380735408e-01,0.000000000000000000e+00,1.000000000000000000e+00,1.120000000000000000e+02
1.000000000000000000e+00,1.000000000000000000e+00,1.000000000000000000e+00,3.000000000000000000e+00,7.900000000000000000e+02,2.498698234558105469e-01,1.982290983200073242e+00,7.386223057279688309e-01,0.000000000000000000e+00,1.000000000000000000e+00,1.110000000000000000e+02
1.000000000000000000e+00,0.000000000000000000e+00,0.000000000000000000e+00,0.000000000000000000e+00,7.890000000000000000e+02,2.904870510101318359e-01,2.024332046508789062e+00,7.463019823224179561e-01,0.000000000000000000e+00,1.000000000000000000e+00,1.120000000000000000e+02
0.000000000000000000e+00,0.000000000000000000e+00,1.000000000000000000e+00,0.000000000000000000e+00,7.880000000000000000e+02,3.049178123474121094e-01,1.544675111770629883e+00,2.581846988444790325e-01,0.000000000000000000e+00,0.000000000000000000e+00,1.120000000000000000e+02
1.000000000000000000e+00,1.000000000000000000e+00,1.000000000000000000e+00,1.000000000000000000e+00,7.880000000000000000e+02,3.269891738891601562e-01,2.041538000106811523e+00,7.325998523280667918e-01,0.000000000000000000e+00,1.000000000000000000e+00,1.110000000000000000e+02
0.000000000000000000e+00,1.000000000000000000e+00,0.000000000000000000e+00,3.000000000000000000e+00,7.900000000000000000e+02,3.070900440216064453e-01,1.608622074127197266e+00,3.083525369343877998e-01,0.000000000000000000e+00,0.000000000000000000e+00,1.110000000000000000e+02
1.000000000000000000e+00,1.000000000000000000e+00,1.000000000000000000e+00,3.000000000000000000e+00,7.920000000000000000e+02,3.281009197235107422e-01,1.959867954254150391e+00,6.512320254592584012e-01,0.000000000000000000e+00,0.000000000000000000e+00,1.110000000000000000e+02
0.000000000000000000e+00,1.000000000000000000e+00,0.000000000000000000e+00,1.000000000000000000e+00,7.920000000000000000e+02,2.515630722045898438e-01,1.943532943725585938e+00,6.947338183002116363e-01,0.000000000000000000e+00,0.000000000000000000e+00,1.110000000000000000e+02
0.000000000000000000e+00,1.000000000000000000e+00,0.000000000000000000e+00,2.000000000000000000e+00,7.930000000000000000e+02,3.232109546661376953e-01,1.646387100219726562e+00,3.415292474028561731e-01,0.000000000000000000e+00,0.000000000000000000e+00,1.110000000000000000e+02
0.000000000000000000e+00,1.000000000000000000e+00,0.000000000000000000e+00,3.000000000000000000e+00,7.950000000000000000e+02,3.022758960723876953e-01,1.787731885910034180e+00,4.957942681964627729e-01,0.000000000000000000e+00,0.000000000000000000e+00,1.110000000000000000e+02
1.000000000000000000e+00,0.000000000000000000e+00,0.000000000000000000e+00,0.000000000000000000e+00,7.940000000000000000e+02,3.120260238647460938e-01,1.791157007217407227e+00,4.869959995969617150e-01,0.000000000000000000e+00,1.000000000000000000e+00,1.120000000000000000e+02
1.000000000000000000e+00,0.000000000000000000e+00,0.000000000000000000e+00,0.000000000000000000e+00,7.930000000000000000e+02,3.311200141906738281e-01,1.927608966827392578e+00,5.978656997803175610e-01,0.000000000000000000e+00,0.000000000000000000e+00,1.120000000000000000e+02
1.000000000000000000e+00,1.000000000000000000e+00,1.000000000000000000e+00,1.000000000000000000e+00,7.930000000000000000e+02,4.274740219116210938e-01,2.125414848327636719e+00,7.232001940040175825e-01,0.000000000000000000e+00,1.000000000000000000e+00,1.110000000000000000e+02
1.000000000000000000e+00,0.000000000000000000e+00,0.000000000000000000e+00,0.000000000000000000e+00,7.920000000000000000e+02,3.002288341522216797e-01,1.608770132064819336e+00,3.157064979943736693e-01,0.000000000000000000e+00,1.000000000000000000e+00,1.120000000000000000e+02
0.000000000000000000e+00,1.000000000000000000e+00,0.000000000000000000e+00,3.000000000000000000e+00,7.940000000000000000e+02,3.995258808135986328e-01,1.837758064270019531e+00,4.367056052110668274e-01,0.000000000000000000e+00,1.000000000000000000e+00,1.110000000000000000e+02
0.000000000000000000e+00,0.000000000000000000e+00,1.000000000000000000e+00,0.000000000000000000e+00,7.930000000000000000e+02,2.813827991485595703e-01,1.647686004638671875e+00,3.678456449477623957e-01,0.000000000000000000e+00,1.000000000000000000e+00,1.120000000000000000e+02
0.000000000000000000e+00,1.000000000000000000e+00,0.000000000000000000e+00,3.000000000000000000e+00,7.950000000000000000e+02,2.774069309234619141e-01,1.936740875244140625e+00,6.709674444013937755e-01,0.000000000000000000e+00,1.000000000000000000e+00,1.110000000000000000e+02
0.000000000000000000e+00,0.000000000000000000e+00,1.000000000000000000e+00,0.000000000000000000e+00,7.940000000000000000e+02,2.731521129608154297e-01,1.898303985595703125e+00,6.360202566964561210e-01,0.000000000000000000e+00,1.000000000000000000e+00,1.120000000000000000e+02
0.000000000000000000e+00,1.000000000000000000e+00,0.000000000000000000e+00,2.000000000000000000e+00,7.950000000000000000e+02,2.132079601287841797e-01,1.836215019226074219e+00,6.222697005516373281e-01,0.000000000000000000e+00,1.000000000000000000e+00,1.110000000000000000e+02
0.000000000000000000e+00,1.000000000000000000e+00,0.000000000000000000e+00,3.000000000000000000e+00,7.970000000000000000e+02,2.850718498229980469e-01,1.895321846008300781e+00,6.176272256981464315e-01,0.000000000000000000e+00,0.000000000000000000e+00,1.110000000000000000e+02
1.000000000000000000e+00,1.000000000000000000e+00,1.000000000000000000e+00,3.000000000000000000e+00,7.990000000000000000e+02,4.310832023620605469e-01,1.770535945892333984e+00,3.385166341027728287e-01,0.000000000000000000e+00,0.000000000000000000e+00,1.110000000000000000e+02
1.000000000000000000e+00,1.000000000000000000e+00,1.000000000000000000e+00,1.000000000000000000e+00,7.990000000000000000e+02,3.863670825958251953e-01,2.092154979705810547e+00,7.136028392641684537e-01,0.000000000000000000e+00,0.000000000000000000e+00,1.110000000000000000e+02
1.000000000000000000e+00,1.000000000000000000e+00,1.000000000000000000e+00,2.000000000000000000e+00,8.000000000000000000e+02,3.392682075500488281e-01,1.792220115661621094e+00,4.727903432537994277e-01,0.000000000000000000e+00,0.000000000000000000e+00,1.110000000000000000e+02
1.000000000000000000e+00,1.000000000000000000e+00,1.000000000000000000e+00,3.000000000000000000e+00,8.020000000000000000e+02,5.401978492736816406e-01,2.175019025802612305e+00,6.476675190743266253e-01,0.000000000000000000e+00,0.000000000000000000e+00,1.110000000000000000e+02
1.000000000000000000e+00,0.000000000000000000e+00,0.000000000000000000e+00,0.000000000000000000e+00,8.010000000000000000e+02,4.006600379943847656e-01,1.698262929916381836e+00,3.129969477591225124e-01,0.000000000000000000e+00,1.000000000000000000e+00,1.120000000000000000e+02
0.000000000000000000e+00,0.000000000000000000e+00,1.000000000000000000e+00,0.000000000000000000e+00,8.000000000000000000e+02,3.998701572418212891e-01,2.013216972351074219e+00,6.258446216216104752e-01,0.000000000000000000e+00,0.000000000000000000e+00,1.120000000000000000e+02
1.000000000000000000e+00,1.000000000000000000e+00,1.000000000000000000e+00,2.000000000000000000e+00,8.010000000000000000e+02,3.391211032867431641e-01,1.720620870590209961e+00,3.967712212345893552e-01,0.000000000000000000e+00,1.000000000000000000e+00,1.110000000000000000e+02
1.000000000000000000e+00,1.000000000000000000e+00,1.000000000000000000e+00,2.000000000000000000e+00,8.020000000000000000e+02,5.094959735870361328e-01,2.104269981384277344e+00,6.175521933078464976e-01,0.000000000000000000e+00,0.000000000000000000e+00,1.110000000000000000e+02
0.000000000000000000e+00,1.000000000000000000e+00,0.000000000000000000e+00,3.000000000000000000e+00,8.040000000000000000e+02,3.109350204467773438e-01,1.584144830703735352e+00,2.521211412379028016e-01,0.000000000000000000e+00,0.000000000000000000e+00,1.110000000000000000e+02
1.000000000000000000e+00,0.000000000000000000e+00,0.000000000000000000e+00,0.000000000000000000e+00,8.030000000000000000e+02,5.217070579528808594e-01,2.168642997741699219e+00,6.536691326918743217e-01,0.000000000000000000e+00,0.000000000000000000e+00,1.110000000000000000e+02
1.000000000000000000e+00,1.000000000000000000e+00,1.000000000000000000e+00,3.000000000000000000e+00,8.050000000000000000e+02,2.769529819488525391e-01,1.709560871124267578e+00,4.468244645140546090e-01,1.000000000000000000e+00,1.000000000000000000e+00,1.120000000000000000e+02
1.000000000000000000e+00,1.000000000000000000e+00,1.000000000000000000e+00,3.000000000000000000e+00,8.070000000000000000e+02,3.360610008239746094e-01,1.830959796905517578e+00,5.110647947030411142e-01,0.000000000000000000e+00,0.000000000000000000e+00,1.120000000000000000e+02
1.000000000000000000e+00,0.000000000000000000e+00,0.000000000000000000e+00,0.000000000000000000e+00,8.060000000000000000e+02,2.837700843811035156e-01,1.932336091995239258e+00,6.599497294141215553e-01,0.000000000000000000e+00,1.000000000000000000e+00,1.110000000000000000e+02
1.000000000000000000e+00,1.000000000000000000e+00,1.000000000000000000e+00,3.000000000000000000e+00,8.080000000000000000e+02,2.985920906066894531e-01,1.626945972442626953e+00,3.372750282303227931e-01,0.000000000000000000e+00,1.000000000000000000e+00,1.120000000000000000e+02
0.000000000000000000e+00,1.000000000000000000e+00,0.000000000000000000e+00,1.000000000000000000e+00,8.080000000000000000e+02,3.382098674774169922e-01,1.818511962890625000e+00,4.889601877416595577e-01,0.000000000000000000e+00,0.000000000000000000e+00,1.120000000000000000e+02
0.000000000000000000e+00,1.000000000000000000e+00,0.000000000000000000e+00,2.000000000000000000e+00,8.090000000000000000e+02,3.616981506347656250e-01,2.081683874130249023e+00,7.370818952502982135e-01,0.000000000000000000e+00,0.000000000000000000e+00,1.120000000000000000e+02
0.000000000000000000e+00,1.000000000000000000e+00,0.000000000000000000e+00,3.000000000000000000e+00,8.110000000000000000e+02,2.834200859069824219e-01,1.960197210311889648e+00,6.807565259485048870e-01,0.000000000000000000e+00,0.000000000000000000e+00,1.120000000000000000e+02
1.000000000000000000e+00,1.000000000000000000e+00,1.000000000000000000e+00,1.000000000000000000e+00,8.110000000000000000e+02,3.115558624267578125e-01,1.665596961975097656e+00,3.800303896225856182e-01,0.000000000000000000e+00,0.000000000000000000e+00,1.120000000000000000e+02
1.000000000000000000e+00,1.000000000000000000e+00,1.000000000000000000e+00,2.000000000000000000e+00,8.120000000000000000e+02,3.919370174407958984e-01,1.640558004379272461e+00,2.707078525976738814e-01,0.000000000000000000e+00,0.000000000000000000e+00,1.120000000000000000e+02
1.000000000000000000e+00,1.000000000000000000e+00,1.000000000000000000e+00,3.000000000000000000e+00,8.140000000000000000e+02,3.629479408264160156e-01,1.761677980422973633e+00,3.989525504016631641e-01,0.000000000000000000e+00,0.000000000000000000e+00,1.120000000000000000e+02
0.000000000000000000e+00,1.000000000000000000e+00,0.000000000000000000e+00,1.000000000000000000e+00,8.140000000000000000e+02,3.113491535186767578e-01,1.715969800949096680e+00,4.149349480206324103e-01,0.000000000000000000e+00,0.000000000000000000e+00,1.120000000000000000e+02
1.000000000000000000e+00,0.000000000000000000e+00,0.000000000000000000e+00,0.000000000000000000e+00,8.130000000000000000e+02,2.713251113891601562e-01,1.703639984130859375e+00,4.518824176771118473e-01,0.000000000000000000e+00,1.000000000000000000e+00,1.110000000000000000e+02
0.000000000000000000e+00,1.000000000000000000e+00,0.000000000000000000e+00,3.000000000000000000e+00,8.150000000000000000e+02,3.168051242828369141e-01,1.827730894088745117e+00,5.129417861964697956e-01,0.000000000000000000e+00,1.000000000000000000e+00,1.120000000000000000e+02
0.000000000000000000e+00,0.000000000000000000e+00,1.000000000000000000e+00,0.000000000000000000e+00,8.140000000000000000e+02,3.141140937805175781e-01,1.638119935989379883e+00,3.345910725560566901e-01,0.000000000000000000e+00,1.000000000000000000e+00,1.110000000000000000e+02
1.000000000000000000e+00,0.000000000000000000e+00,0.000000000000000000e+00,0.000000000000000000e+00,8.130000000000000000e+02,3.012418746948242188e-01,2.001424789428710938e+00,7.023313519224629875e-01,0.000000000000000000e+00,0.000000000000000000e+00,1.110000000000000000e+02
1.000000000000000000e+00,1.000000000000000000e+00,1.000000000000000000e+00,3.000000000000000000e+00,8.150000000000000000e+02,2.433650493621826172e-01,1.851418972015380859e+00,6.205000947061538596e-01,0.000000000000000000e+00,1.000000000000000000e+00,1.120000000000000000e+02
0.000000000000000000e+00,1.000000000000000000e+00,0.000000000000000000e+00,2.000000000000000000e+00,8.160000000000000000e+02,2.883458137512207031e-01,1.561515092849731445e+00,2.824339649669798669e-01,0.000000000000000000e+00,0.000000000000000000e+00,1.120000000000000000e+02
0.000000000000000000e+00,1.000000000000000000e+00,0.000000000000000000e+00,2.000000000000000000e+00,8.170000000000000000e+02,3.506870269775390625e-01,1.749841928482055664e+00,3.988280066082133812e-01,0.000000000000000000e+00,0.000000000000000000e+00,1.120000000000000000e+02
1.000000000000000000e+00,0.000000000000000000e+00,0.000000000000000000e+00,0.000000000000000000e+00,8.160000000000000000e+02,3.487658500671386719e-01,2.017484903335571289e+00,6.660653577333250919e-01,0.000000000000000000e+00,1.000000000000000000e+00,1.110000000000000000e+02
1.000000000000000000e+00,1.000000000000000000e+00,1.000000000000000000e+00,3.000000000000000000e+00,8.180000000000000000e+02,3.141989707946777344e-01,1.807570219039916992e+00,4.905240470631828109e-01,0.000000000000000000e+00,1.000000000000000000e+00,1.120000000000000000e+02
1.000000000000000000e+00,1.000000000000000000e+00,1.000000000000000000e+00,3.000000000000000000e+00,8.200000000000000000e+02,2.941949367523193359e-01,1.997876882553100586e+00,7.215055366511349266e-01,0.000000000000000000e+00,0.000000000000000000e+00,1.120000000000000000e+02
0.000000000000000000e+00,0.000000000000000000e+00,1.000000000000000000e+00,0.000000000000000000e+00,8.190000000000000000e+02,2.963039875030517578e-01,1.625721931457519531e+00,3.310234017904213344e-01,0.000000000000000000e+00,1.000000000000000000e+00,1.110000000000000000e+02
1.000000000000000000e+00,0.000000000000000000e+00,0.000000000000000000e+00,0.000000000000000000e+00,8.180000000000000000e+02,3.957738876342773438e-01,1.895382881164550781e+00,5.095507759761850330e-01,0.000000000000000000e+00,0.000000000000000000e+00,1.110000000000000000e+02
