choice, accuracy, solution,  reward, cumulative_reward, rt,  total_trial_time, iti, cp_with_slow_fast, obs_cp_with_slow_fast, high_val_cue
0.000000000000000000e+00,1.000000000000000000e+00,0.000000000000000000e+00,0.000000000000000000e+00,6.000000000000000000e+02,2.078352928161621094e+00,3.477407932281494141e+00,3.791221080708023217e-01,-1.000000000000000000e+00,-1.000000000000000000e+00,1.120000000000000000e+02
1.000000000000000000e+00,0.000000000000000000e+00,0.000000000000000000e+00,0.000000000000000000e+00,5.990000000000000000e+02,4.106910228729248047e-01,2.044787168502807617e+00,6.403586973786730141e-01,0.000000000000000000e+00,0.000000000000000000e+00,1.120000000000000000e+02
1.000000000000000000e+00,1.000000000000000000e+00,1.000000000000000000e+00,3.000000000000000000e+00,6.010000000000000000e+02,5.057768821716308594e-01,2.164916992187500000e+00,6.719096509320640065e-01,0.000000000000000000e+00,0.000000000000000000e+00,1.120000000000000000e+02
0.000000000000000000e+00,0.000000000000000000e+00,1.000000000000000000e+00,0.000000000000000000e+00,6.000000000000000000e+02,3.591959476470947266e-01,1.910254001617431641e+00,5.656758923282734219e-01,0.000000000000000000e+00,0.000000000000000000e+00,1.120000000000000000e+02
1.000000000000000000e+00,1.000000000000000000e+00,1.000000000000000000e+00,2.000000000000000000e+00,6.010000000000000000e+02,3.125760555267333984e-01,1.900253057479858398e+00,5.825669958408508098e-01,0.000000000000000000e+00,0.000000000000000000e+00,1.120000000000000000e+02
0.000000000000000000e+00,1.000000000000000000e+00,0.000000000000000000e+00,2.000000000000000000e+00,6.020000000000000000e+02,3.896660804748535156e-01,2.082267999649047852e+00,6.981163535678289733e-01,0.000000000000000000e+00,0.000000000000000000e+00,1.120000000000000000e+02
0.000000000000000000e+00,1.000000000000000000e+00,0.000000000000000000e+00,3.000000000000000000e+00,6.040000000000000000e+02,9.330699443817138672e-01,2.253249168395996094e+00,3.351106692991772662e-01,0.000000000000000000e+00,0.000000000000000000e+00,1.120000000000000000e+02
0.000000000000000000e+00,1.000000000000000000e+00,0.000000000000000000e+00,3.000000000000000000e+00,6.060000000000000000e+02,5.374860763549804688e-01,1.977443933486938477e+00,4.458160668805396520e-01,0.000000000000000000e+00,1.000000000000000000e+00,1.110000000000000000e+02
1.000000000000000000e+00,0.000000000000000000e+00,0.000000000000000000e+00,0.000000000000000000e+00,6.050000000000000000e+02,7.568218708038330078e-01,2.228376150131225586e+00,4.908505411853045786e-01,0.000000000000000000e+00,1.000000000000000000e+00,1.120000000000000000e+02
0.000000000000000000e+00,1.000000000000000000e+00,0.000000000000000000e+00,2.000000000000000000e+00,6.060000000000000000e+02,5.646059513092041016e-01,2.064990043640136719e+00,5.058348287100196128e-01,0.000000000000000000e+00,0.000000000000000000e+00,1.120000000000000000e+02
1.000000000000000000e+00,1.000000000000000000e+00,1.000000000000000000e+00,2.000000000000000000e+00,6.070000000000000000e+02,3.980610370635986328e-01,1.676876783370971680e+00,2.829865168435249378e-01,0.000000000000000000e+00,0.000000000000000000e+00,1.120000000000000000e+02
0.000000000000000000e+00,0.000000000000000000e+00,1.000000000000000000e+00,0.000000000000000000e+00,6.060000000000000000e+02,7.067329883575439453e-01,2.359348058700561523e+00,6.586562581936077354e-01,0.000000000000000000e+00,0.000000000000000000e+00,1.120000000000000000e+02
1.000000000000000000e+00,1.000000000000000000e+00,1.000000000000000000e+00,2.000000000000000000e+00,6.070000000000000000e+02,3.988790512084960938e-01,1.699117183685302734e+00,3.081639388237813471e-01,0.000000000000000000e+00,0.000000000000000000e+00,1.120000000000000000e+02
1.000000000000000000e+00,1.000000000000000000e+00,1.000000000000000000e+00,4.000000000000000000e+00,6.100000000000000000e+02,4.268519878387451172e-01,1.963615894317626953e+00,5.549051000876350503e-01,0.000000000000000000e+00,0.000000000000000000e+00,1.120000000000000000e+02
1.000000000000000000e+00,1.000000000000000000e+00,1.000000000000000000e+00,2.000000000000000000e+00,6.110000000000000000e+02,3.742830753326416016e-01,2.060703992843627930e+00,6.988034530554942947e-01,0.000000000000000000e+00,0.000000000000000000e+00,1.120000000000000000e+02
0.000000000000000000e+00,1.000000000000000000e+00,0.000000000000000000e+00,2.000000000000000000e+00,6.120000000000000000e+02,6.156890392303466797e-01,2.204033851623535156e+00,5.863321521368465294e-01,0.000000000000000000e+00,0.000000000000000000e+00,1.120000000000000000e+02
0.000000000000000000e+00,0.000000000000000000e+00,1.000000000000000000e+00,0.000000000000000000e+00,6.110000000000000000e+02,4.696509838104248047e-01,1.770565032958984375e+00,3.071808602857565851e-01,0.000000000000000000e+00,1.000000000000000000e+00,1.110000000000000000e+02
0.000000000000000000e+00,0.000000000000000000e+00,1.000000000000000000e+00,0.000000000000000000e+00,6.100000000000000000e+02,5.581510066986083984e-01,2.099820137023925781e+00,5.567424541749365074e-01,0.000000000000000000e+00,1.000000000000000000e+00,1.120000000000000000e+02
0.000000000000000000e+00,1.000000000000000000e+00,0.000000000000000000e+00,3.000000000000000000e+00,6.120000000000000000e+02,3.061988353729248047e-01,1.707927942276000977e+00,4.148657107566868785e-01,0.000000000000000000e+00,1.000000000000000000e+00,1.110000000000000000e+02
1.000000000000000000e+00,1.000000000000000000e+00,1.000000000000000000e+00,4.000000000000000000e+00,6.150000000000000000e+02,3.472871780395507812e-01,1.749916076660156250e+00,4.148085764830854449e-01,0.000000000000000000e+00,1.000000000000000000e+00,1.120000000000000000e+02
1.000000000000000000e+00,1.000000000000000000e+00,1.000000000000000000e+00,4.000000000000000000e+00,6.180000000000000000e+02,4.033169746398925781e-01,2.067909002304077148e+00,6.825006757479034070e-01,0.000000000000000000e+00,0.000000000000000000e+00,1.120000000000000000e+02
1.000000000000000000e+00,1.000000000000000000e+00,1.000000000000000000e+00,5.000000000000000000e+00,6.220000000000000000e+02,3.510529994964599609e-01,1.975734949111938477e+00,6.249613171140157020e-01,0.000000000000000000e+00,0.000000000000000000e+00,1.120000000000000000e+02
1.000000000000000000e+00,1.000000000000000000e+00,1.000000000000000000e+00,5.000000000000000000e+00,6.260000000000000000e+02,4.884300231933593750e-01,1.972126960754394531e+00,4.972811617806951467e-01,0.000000000000000000e+00,0.000000000000000000e+00,1.120000000000000000e+02
1.000000000000000000e+00,1.000000000000000000e+00,1.000000000000000000e+00,3.000000000000000000e+00,6.280000000000000000e+02,3.658649921417236328e-01,1.653079986572265625e+00,3.005900299428818645e-01,0.000000000000000000e+00,0.000000000000000000e+00,1.120000000000000000e+02
0.000000000000000000e+00,1.000000000000000000e+00,0.000000000000000000e+00,2.000000000000000000e+00,6.290000000000000000e+02,6.702249050140380859e-01,2.115417003631591797e+00,4.492241644283788693e-01,0.000000000000000000e+00,0.000000000000000000e+00,1.120000000000000000e+02
1.000000000000000000e+00,1.000000000000000000e+00,1.000000000000000000e+00,1.000000000000000000e+00,6.290000000000000000e+02,2.465889453887939453e-01,1.927946090698242188e+00,6.769366516838228875e-01,0.000000000000000000e+00,0.000000000000000000e+00,1.120000000000000000e+02
1.000000000000000000e+00,1.000000000000000000e+00,1.000000000000000000e+00,3.000000000000000000e+00,6.310000000000000000e+02,3.089389801025390625e-01,1.752704858779907227e+00,4.632542034656252361e-01,0.000000000000000000e+00,0.000000000000000000e+00,1.120000000000000000e+02
1.000000000000000000e+00,0.000000000000000000e+00,0.000000000000000000e+00,0.000000000000000000e+00,6.300000000000000000e+02,3.622081279754638672e-01,1.616371870040893555e+00,2.631776931075174852e-01,0.000000000000000000e+00,1.000000000000000000e+00,1.110000000000000000e+02
1.000000000000000000e+00,0.000000000000000000e+00,0.000000000000000000e+00,0.000000000000000000e+00,6.290000000000000000e+02,6.365270614624023438e-01,2.300301074981689453e+00,6.797365423012692309e-01,0.000000000000000000e+00,0.000000000000000000e+00,1.110000000000000000e+02
0.000000000000000000e+00,1.000000000000000000e+00,0.000000000000000000e+00,1.000000000000000000e+00,6.290000000000000000e+02,3.535690307617187500e-01,1.904782056808471680e+00,5.680125838568443886e-01,0.000000000000000000e+00,1.000000000000000000e+00,1.120000000000000000e+02
0.000000000000000000e+00,0.000000000000000000e+00,1.000000000000000000e+00,0.000000000000000000e+00,6.280000000000000000e+02,3.310499191284179688e-01,1.769841909408569336e+00,4.380555856473776766e-01,0.000000000000000000e+00,0.000000000000000000e+00,1.120000000000000000e+02
0.000000000000000000e+00,0.000000000000000000e+00,1.000000000000000000e+00,0.000000000000000000e+00,6.270000000000000000e+02,3.103659152984619141e-01,1.753809213638305664e+00,4.585031554668795861e-01,0.000000000000000000e+00,0.000000000000000000e+00,1.120000000000000000e+02
1.000000000000000000e+00,1.000000000000000000e+00,1.000000000000000000e+00,3.000000000000000000e+00,6.290000000000000000e+02,2.994620800018310547e-01,1.711118936538696289e+00,4.196966469451638981e-01,0.000000000000000000e+00,0.000000000000000000e+00,1.120000000000000000e+02
1.000000000000000000e+00,1.000000000000000000e+00,1.000000000000000000e+00,3.000000000000000000e+00,6.310000000000000000e+02,4.088268280029296875e-01,1.850461006164550781e+00,4.534993754477474881e-01,0.000000000000000000e+00,0.000000000000000000e+00,1.120000000000000000e+02
0.000000000000000000e+00,0.000000000000000000e+00,1.000000000000000000e+00,0.000000000000000000e+00,6.300000000000000000e+02,4.778599739074707031e-01,1.882441997528076172e+00,4.026699443245415067e-01,0.000000000000000000e+00,1.000000000000000000e+00,1.110000000000000000e+02
0.000000000000000000e+00,1.000000000000000000e+00,0.000000000000000000e+00,2.000000000000000000e+00,6.310000000000000000e+02,5.186300277709960938e-01,2.037134885787963867e+00,5.230602257076670814e-01,0.000000000000000000e+00,1.000000000000000000e+00,1.120000000000000000e+02
0.000000000000000000e+00,1.000000000000000000e+00,0.000000000000000000e+00,2.000000000000000000e+00,6.320000000000000000e+02,3.124458789825439453e-01,1.572478055953979492e+00,2.625185937170832484e-01,0.000000000000000000e+00,0.000000000000000000e+00,1.120000000000000000e+02
1.000000000000000000e+00,1.000000000000000000e+00,1.000000000000000000e+00,3.000000000000000000e+00,6.340000000000000000e+02,5.907039642333984375e-01,1.967418909072875977e+00,3.964816022648750549e-01,0.000000000000000000e+00,0.000000000000000000e+00,1.120000000000000000e+02
1.000000000000000000e+00,1.000000000000000000e+00,1.000000000000000000e+00,4.000000000000000000e+00,6.370000000000000000e+02,5.406091213226318359e-01,1.947834968566894531e+00,4.276527594214529771e-01,0.000000000000000000e+00,0.000000000000000000e+00,1.120000000000000000e+02
1.000000000000000000e+00,1.000000000000000000e+00,1.000000000000000000e+00,1.000000000000000000e+00,6.370000000000000000e+02,3.932039737701416016e-01,2.059533834457397461e+00,6.869589707361203335e-01,1.000000000000000000e+00,0.000000000000000000e+00,1.120000000000000000e+02
1.000000000000000000e+00,0.000000000000000000e+00,0.000000000000000000e+00,0.000000000000000000e+00,6.360000000000000000e+02,2.705848217010498047e-01,1.770453929901123047e+00,5.076174789816888522e-01,0.000000000000000000e+00,1.000000000000000000e+00,1.110000000000000000e+02
0.000000000000000000e+00,1.000000000000000000e+00,0.000000000000000000e+00,4.000000000000000000e+00,6.390000000000000000e+02,3.620030879974365234e-01,2.011466979980468750e+00,6.523162146283106866e-01,0.000000000000000000e+00,1.000000000000000000e+00,1.120000000000000000e+02
1.000000000000000000e+00,0.000000000000000000e+00,0.000000000000000000e+00,0.000000000000000000e+00,6.380000000000000000e+02,2.793629169464111328e-01,2.000878095626831055e+00,7.198023243402738025e-01,0.000000000000000000e+00,1.000000000000000000e+00,1.110000000000000000e+02
1.000000000000000000e+00,1.000000000000000000e+00,1.000000000000000000e+00,4.000000000000000000e+00,6.410000000000000000e+02,3.674988746643066406e-01,1.902460098266601562e+00,5.391487200591358331e-01,0.000000000000000000e+00,0.000000000000000000e+00,1.110000000000000000e+02
0.000000000000000000e+00,0.000000000000000000e+00,1.000000000000000000e+00,0.000000000000000000e+00,6.400000000000000000e+02,4.506261348724365234e-01,2.083977937698364258e+00,6.397331853357003384e-01,0.000000000000000000e+00,1.000000000000000000e+00,1.120000000000000000e+02
1.000000000000000000e+00,1.000000000000000000e+00,1.000000000000000000e+00,2.000000000000000000e+00,6.410000000000000000e+02,2.973399162292480469e-01,1.665110111236572266e+00,3.718165211181166940e-01,0.000000000000000000e+00,0.000000000000000000e+00,1.120000000000000000e+02
1.000000000000000000e+00,1.000000000000000000e+00,1.000000000000000000e+00,2.000000000000000000e+00,6.420000000000000000e+02,4.326500892639160156e-01,2.033621072769165039e+00,6.052251399203286697e-01,0.000000000000000000e+00,1.000000000000000000e+00,1.110000000000000000e+02
1.000000000000000000e+00,1.000000000000000000e+00,1.000000000000000000e+00,2.000000000000000000e+00,6.430000000000000000e+02,4.474411010742187500e-01,1.699759006500244141e+00,2.553483029265140036e-01,0.000000000000000000e+00,1.000000000000000000e+00,1.120000000000000000e+02
0.000000000000000000e+00,0.000000000000000000e+00,1.000000000000000000e+00,0.000000000000000000e+00,6.420000000000000000e+02,4.665379524230957031e-01,2.030822992324829102e+00,5.692869825431123854e-01,0.000000000000000000e+00,1.000000000000000000e+00,1.110000000000000000e+02
0.000000000000000000e+00,1.000000000000000000e+00,0.000000000000000000e+00,3.000000000000000000e+00,6.440000000000000000e+02,5.272779464721679688e-01,2.138519048690795898e+00,6.243995188558120191e-01,0.000000000000000000e+00,1.000000000000000000e+00,1.120000000000000000e+02
0.000000000000000000e+00,0.000000000000000000e+00,1.000000000000000000e+00,0.000000000000000000e+00,6.430000000000000000e+02,3.700201511383056641e-01,1.723421096801757812e+00,3.647954513956593869e-01,0.000000000000000000e+00,1.000000000000000000e+00,1.110000000000000000e+02
1.000000000000000000e+00,0.000000000000000000e+00,0.000000000000000000e+00,0.000000000000000000e+00,6.420000000000000000e+02,4.243700504302978516e-01,1.928526878356933594e+00,5.265533877494081860e-01,0.000000000000000000e+00,0.000000000000000000e+00,1.110000000000000000e+02
1.000000000000000000e+00,0.000000000000000000e+00,0.000000000000000000e+00,0.000000000000000000e+00,6.410000000000000000e+02,3.051698207855224609e-01,1.914462804794311523e+00,6.242700878325844194e-01,0.000000000000000000e+00,0.000000000000000000e+00,1.110000000000000000e+02
1.000000000000000000e+00,1.000000000000000000e+00,1.000000000000000000e+00,3.000000000000000000e+00,6.430000000000000000e+02,3.905789852142333984e-01,1.981487989425659180e+00,6.057905113540302811e-01,0.000000000000000000e+00,1.000000000000000000e+00,1.120000000000000000e+02
1.000000000000000000e+00,0.000000000000000000e+00,0.000000000000000000e+00,0.000000000000000000e+00,6.420000000000000000e+02,5.063209533691406250e-01,2.061872005462646484e+00,5.677605027905225921e-01,0.000000000000000000e+00,1.000000000000000000e+00,1.110000000000000000e+02
1.000000000000000000e+00,1.000000000000000000e+00,1.000000000000000000e+00,1.000000000000000000e+00,6.420000000000000000e+02,3.527109622955322266e-01,2.039258956909179688e+00,6.902377999049802426e-01,0.000000000000000000e+00,1.000000000000000000e+00,1.120000000000000000e+02
0.000000000000000000e+00,1.000000000000000000e+00,0.000000000000000000e+00,3.000000000000000000e+00,6.440000000000000000e+02,4.454200267791748047e-01,2.016839981079101562e+00,5.738929759028923439e-01,0.000000000000000000e+00,1.000000000000000000e+00,1.110000000000000000e+02
1.000000000000000000e+00,1.000000000000000000e+00,1.000000000000000000e+00,2.000000000000000000e+00,6.450000000000000000e+02,6.278119087219238281e-01,2.181922197341918945e+00,5.725128394446934443e-01,0.000000000000000000e+00,0.000000000000000000e+00,1.110000000000000000e+02
0.000000000000000000e+00,1.000000000000000000e+00,0.000000000000000000e+00,3.000000000000000000e+00,6.470000000000000000e+02,4.204990863800048828e-01,1.882735967636108398e+00,4.720584406913290176e-01,0.000000000000000000e+00,0.000000000000000000e+00,1.110000000000000000e+02
1.000000000000000000e+00,1.000000000000000000e+00,1.000000000000000000e+00,2.000000000000000000e+00,6.480000000000000000e+02,5.582680702209472656e-01,2.135485887527465820e+00,5.907786554273131152e-01,0.000000000000000000e+00,0.000000000000000000e+00,1.110000000000000000e+02
0.000000000000000000e+00,1.000000000000000000e+00,0.000000000000000000e+00,1.000000000000000000e+00,6.480000000000000000e+02,3.439798355102539062e-01,1.612470865249633789e+00,2.869230262989292957e-01,0.000000000000000000e+00,0.000000000000000000e+00,1.110000000000000000e+02
1.000000000000000000e+00,0.000000000000000000e+00,0.000000000000000000e+00,0.000000000000000000e+00,6.470000000000000000e+02,3.583509922027587891e-01,2.087985038757324219e+00,7.411637056989683892e-01,0.000000000000000000e+00,0.000000000000000000e+00,1.110000000000000000e+02
1.000000000000000000e+00,0.000000000000000000e+00,0.000000000000000000e+00,0.000000000000000000e+00,6.460000000000000000e+02,3.081681728363037109e-01,1.813141107559204102e+00,5.211938091218150104e-01,0.000000000000000000e+00,0.000000000000000000e+00,1.110000000000000000e+02
1.000000000000000000e+00,0.000000000000000000e+00,0.000000000000000000e+00,0.000000000000000000e+00,6.450000000000000000e+02,2.835211753845214844e-01,1.964065074920654297e+00,6.851646822092042344e-01,0.000000000000000000e+00,0.000000000000000000e+00,1.110000000000000000e+02
0.000000000000000000e+00,1.000000000000000000e+00,0.000000000000000000e+00,2.000000000000000000e+00,6.460000000000000000e+02,3.080241680145263672e-01,1.971340894699096680e+00,6.732508877189168350e-01,0.000000000000000000e+00,0.000000000000000000e+00,1.110000000000000000e+02
0.000000000000000000e+00,0.000000000000000000e+00,1.000000000000000000e+00,0.000000000000000000e+00,6.450000000000000000e+02,7.423620223999023438e-01,2.424088001251220703e+00,6.973375700130108878e-01,0.000000000000000000e+00,0.000000000000000000e+00,1.110000000000000000e+02
1.000000000000000000e+00,0.000000000000000000e+00,0.000000000000000000e+00,0.000000000000000000e+00,6.440000000000000000e+02,3.567860126495361328e-01,1.738672018051147461e+00,4.029958790119385070e-01,0.000000000000000000e+00,1.000000000000000000e+00,1.120000000000000000e+02
1.000000000000000000e+00,0.000000000000000000e+00,0.000000000000000000e+00,0.000000000000000000e+00,6.430000000000000000e+02,4.308648109436035156e-01,1.757069826126098633e+00,3.268350103639368620e-01,1.000000000000000000e+00,1.000000000000000000e+00,1.110000000000000000e+02
1.000000000000000000e+00,0.000000000000000000e+00,0.000000000000000000e+00,0.000000000000000000e+00,6.420000000000000000e+02,5.988788604736328125e-01,1.922244071960449219e+00,3.324045529866449522e-01,0.000000000000000000e+00,1.000000000000000000e+00,1.120000000000000000e+02
1.000000000000000000e+00,1.000000000000000000e+00,1.000000000000000000e+00,2.000000000000000000e+00,6.430000000000000000e+02,5.326359272003173828e-01,1.874963045120239258e+00,3.407288114454529726e-01,0.000000000000000000e+00,0.000000000000000000e+00,1.120000000000000000e+02
0.000000000000000000e+00,0.000000000000000000e+00,1.000000000000000000e+00,0.000000000000000000e+00,6.420000000000000000e+02,3.420009613037109375e-01,1.915705919265747070e+00,5.895534441310783524e-01,0.000000000000000000e+00,1.000000000000000000e+00,1.110000000000000000e+02
0.000000000000000000e+00,1.000000000000000000e+00,0.000000000000000000e+00,2.000000000000000000e+00,6.430000000000000000e+02,4.024419784545898438e-01,1.904872894287109375e+00,5.112021755712783389e-01,0.000000000000000000e+00,1.000000000000000000e+00,1.120000000000000000e+02
1.000000000000000000e+00,1.000000000000000000e+00,1.000000000000000000e+00,2.000000000000000000e+00,6.440000000000000000e+02,3.894817829132080078e-01,2.007841110229492188e+00,6.356414605240787719e-01,0.000000000000000000e+00,0.000000000000000000e+00,1.120000000000000000e+02
0.000000000000000000e+00,1.000000000000000000e+00,0.000000000000000000e+00,2.000000000000000000e+00,6.450000000000000000e+02,5.808680057525634766e-01,2.117815971374511719e+00,5.368897612579051071e-01,0.000000000000000000e+00,0.000000000000000000e+00,1.120000000000000000e+02
0.000000000000000000e+00,1.000000000000000000e+00,0.000000000000000000e+00,4.000000000000000000e+00,6.480000000000000000e+02,4.843151569366455078e-01,2.009219169616699219e+00,5.294803944929808992e-01,0.000000000000000000e+00,0.000000000000000000e+00,1.120000000000000000e+02
1.000000000000000000e+00,0.000000000000000000e+00,0.000000000000000000e+00,0.000000000000000000e+00,6.470000000000000000e+02,3.963580131530761719e-01,1.855422973632812500e+00,4.683593521378671687e-01,0.000000000000000000e+00,1.000000000000000000e+00,1.110000000000000000e+02
1.000000000000000000e+00,0.000000000000000000e+00,0.000000000000000000e+00,0.000000000000000000e+00,6.460000000000000000e+02,3.967399597167968750e-01,1.840607881546020508e+00,4.423128424902798561e-01,0.000000000000000000e+00,0.000000000000000000e+00,1.110000000000000000e+02
1.000000000000000000e+00,1.000000000000000000e+00,1.000000000000000000e+00,2.000000000000000000e+00,6.470000000000000000e+02,3.555159568786621094e-01,2.039373159408569336e+00,6.981736160512514999e-01,0.000000000000000000e+00,1.000000000000000000e+00,1.120000000000000000e+02
1.000000000000000000e+00,1.000000000000000000e+00,1.000000000000000000e+00,2.000000000000000000e+00,6.480000000000000000e+02,3.822209835052490234e-01,2.009392976760864258e+00,6.409986915507623895e-01,0.000000000000000000e+00,0.000000000000000000e+00,1.120000000000000000e+02
0.000000000000000000e+00,0.000000000000000000e+00,1.000000000000000000e+00,0.000000000000000000e+00,6.470000000000000000e+02,2.903590202331542969e-01,1.701179981231689453e+00,4.257352134165953705e-01,0.000000000000000000e+00,1.000000000000000000e+00,1.110000000000000000e+02
0.000000000000000000e+00,1.000000000000000000e+00,0.000000000000000000e+00,2.000000000000000000e+00,6.480000000000000000e+02,3.126471042633056641e-01,1.724327087402343750e+00,4.167740441825521502e-01,0.000000000000000000e+00,1.000000000000000000e+00,1.120000000000000000e+02
1.000000000000000000e+00,1.000000000000000000e+00,1.000000000000000000e+00,2.000000000000000000e+00,6.490000000000000000e+02,2.954080104827880859e-01,1.866843938827514648e+00,5.668222604462792580e-01,0.000000000000000000e+00,0.000000000000000000e+00,1.120000000000000000e+02
1.000000000000000000e+00,1.000000000000000000e+00,1.000000000000000000e+00,2.000000000000000000e+00,6.500000000000000000e+02,3.128240108489990234e-01,1.784802913665771484e+00,4.684348617836760487e-01,0.000000000000000000e+00,0.000000000000000000e+00,1.120000000000000000e+02
0.000000000000000000e+00,1.000000000000000000e+00,0.000000000000000000e+00,4.000000000000000000e+00,6.530000000000000000e+02,3.845319747924804688e-01,1.998724937438964844e+00,6.170468709584542299e-01,0.000000000000000000e+00,0.000000000000000000e+00,1.120000000000000000e+02
1.000000000000000000e+00,0.000000000000000000e+00,0.000000000000000000e+00,0.000000000000000000e+00,6.520000000000000000e+02,3.286149501800537109e-01,1.684300899505615234e+00,3.516156702211107876e-01,0.000000000000000000e+00,1.000000000000000000e+00,1.110000000000000000e+02
1.000000000000000000e+00,0.000000000000000000e+00,0.000000000000000000e+00,0.000000000000000000e+00,6.510000000000000000e+02,3.623409271240234375e-01,1.949640989303588867e+00,5.843947377256804021e-01,0.000000000000000000e+00,0.000000000000000000e+00,1.110000000000000000e+02
1.000000000000000000e+00,1.000000000000000000e+00,1.000000000000000000e+00,3.000000000000000000e+00,6.530000000000000000e+02,4.544579982757568359e-01,2.108398914337158203e+00,6.594312964784233566e-01,0.000000000000000000e+00,1.000000000000000000e+00,1.120000000000000000e+02
0.000000000000000000e+00,0.000000000000000000e+00,1.000000000000000000e+00,0.000000000000000000e+00,6.520000000000000000e+02,6.304910182952880859e-01,1.916759967803955078e+00,2.932509767433995607e-01,0.000000000000000000e+00,1.000000000000000000e+00,1.110000000000000000e+02
1.000000000000000000e+00,1.000000000000000000e+00,1.000000000000000000e+00,2.000000000000000000e+00,6.530000000000000000e+02,6.139099597930908203e-01,2.330990076065063477e+00,7.238653040998619392e-01,0.000000000000000000e+00,0.000000000000000000e+00,1.110000000000000000e+02
0.000000000000000000e+00,1.000000000000000000e+00,0.000000000000000000e+00,4.000000000000000000e+00,6.560000000000000000e+02,6.295709609985351562e-01,2.239630937576293945e+00,6.136199715687323808e-01,0.000000000000000000e+00,0.000000000000000000e+00,1.110000000000000000e+02
0.000000000000000000e+00,0.000000000000000000e+00,1.000000000000000000e+00,0.000000000000000000e+00,6.550000000000000000e+02,5.224401950836181641e-01,1.896977186203002930e+00,3.941915172704109072e-01,0.000000000000000000e+00,1.000000000000000000e+00,1.120000000000000000e+02
1.000000000000000000e+00,1.000000000000000000e+00,1.000000000000000000e+00,3.000000000000000000e+00,6.570000000000000000e+02,3.414111137390136719e-01,1.840926885604858398e+00,5.183305394303316938e-01,0.000000000000000000e+00,0.000000000000000000e+00,1.120000000000000000e+02
0.000000000000000000e+00,1.000000000000000000e+00,0.000000000000000000e+00,0.000000000000000000e+00,6.560000000000000000e+02,6.775381565093994141e-01,2.162032127380371094e+00,4.970909104906881537e-01,0.000000000000000000e+00,0.000000000000000000e+00,1.120000000000000000e+02
0.000000000000000000e+00,1.000000000000000000e+00,0.000000000000000000e+00,3.000000000000000000e+00,6.580000000000000000e+02,4.835631847381591797e-01,1.802125930786132812e+00,3.327623098256049516e-01,0.000000000000000000e+00,0.000000000000000000e+00,1.120000000000000000e+02
1.000000000000000000e+00,0.000000000000000000e+00,0.000000000000000000e+00,0.000000000000000000e+00,6.570000000000000000e+02,3.319120407104492188e-01,1.889561891555786133e+00,5.554702710908552277e-01,0.000000000000000000e+00,1.000000000000000000e+00,1.110000000000000000e+02
0.000000000000000000e+00,1.000000000000000000e+00,0.000000000000000000e+00,4.000000000000000000e+00,6.600000000000000000e+02,6.746790409088134766e-01,1.943269014358520508e+00,2.823571046956536157e-01,0.000000000000000000e+00,1.000000000000000000e+00,1.120000000000000000e+02
1.000000000000000000e+00,0.000000000000000000e+00,0.000000000000000000e+00,0.000000000000000000e+00,6.590000000000000000e+02,3.537518978118896484e-01,1.807374954223632812e+00,4.562454753458488055e-01,1.000000000000000000e+00,1.000000000000000000e+00,1.110000000000000000e+02
1.000000000000000000e+00,0.000000000000000000e+00,0.000000000000000000e+00,0.000000000000000000e+00,6.580000000000000000e+02,5.438179969787597656e-01,2.152968883514404297e+00,6.257655559473651596e-01,0.000000000000000000e+00,0.000000000000000000e+00,1.110000000000000000e+02
1.000000000000000000e+00,0.000000000000000000e+00,0.000000000000000000e+00,0.000000000000000000e+00,6.570000000000000000e+02,3.879759311676025391e-01,1.755638122558593750e+00,3.816917932665329083e-01,0.000000000000000000e+00,0.000000000000000000e+00,1.110000000000000000e+02
1.000000000000000000e+00,1.000000000000000000e+00,1.000000000000000000e+00,3.000000000000000000e+00,6.590000000000000000e+02,6.289789676666259766e-01,2.066394090652465820e+00,4.480292331343770362e-01,0.000000000000000000e+00,0.000000000000000000e+00,1.110000000000000000e+02
1.000000000000000000e+00,1.000000000000000000e+00,1.000000000000000000e+00,4.000000000000000000e+00,6.620000000000000000e+02,7.153661251068115234e-01,1.974387884140014648e+00,2.726474884810328736e-01,0.000000000000000000e+00,0.000000000000000000e+00,1.110000000000000000e+02
0.000000000000000000e+00,1.000000000000000000e+00,0.000000000000000000e+00,1.000000000000000000e+00,6.620000000000000000e+02,6.331720352172851562e-01,2.318245172500610352e+00,6.904674303164927140e-01,0.000000000000000000e+00,0.000000000000000000e+00,1.110000000000000000e+02
0.000000000000000000e+00,0.000000000000000000e+00,1.000000000000000000e+00,0.000000000000000000e+00,6.610000000000000000e+02,6.925699710845947266e-01,2.161285877227783203e+00,4.853645429430106240e-01,0.000000000000000000e+00,0.000000000000000000e+00,1.110000000000000000e+02
0.000000000000000000e+00,1.000000000000000000e+00,0.000000000000000000e+00,3.000000000000000000e+00,6.630000000000000000e+02,4.799759387969970703e-01,2.216034173965454102e+00,7.345414404861903002e-01,0.000000000000000000e+00,1.000000000000000000e+00,1.120000000000000000e+02
0.000000000000000000e+00,0.000000000000000000e+00,1.000000000000000000e+00,0.000000000000000000e+00,6.620000000000000000e+02,5.012631416320800781e-01,2.110055923461914062e+00,6.114236230177284570e-01,0.000000000000000000e+00,1.000000000000000000e+00,1.110000000000000000e+02
0.000000000000000000e+00,1.000000000000000000e+00,0.000000000000000000e+00,3.000000000000000000e+00,6.640000000000000000e+02,5.514259338378906250e-01,1.868257999420166016e+00,3.300089754510152074e-01,0.000000000000000000e+00,0.000000000000000000e+00,1.110000000000000000e+02
1.000000000000000000e+00,1.000000000000000000e+00,1.000000000000000000e+00,3.000000000000000000e+00,6.660000000000000000e+02,4.807801246643066406e-01,1.993084192276000977e+00,5.229206381129413161e-01,0.000000000000000000e+00,1.000000000000000000e+00,1.120000000000000000e+02
1.000000000000000000e+00,1.000000000000000000e+00,1.000000000000000000e+00,2.000000000000000000e+00,6.670000000000000000e+02,5.598540306091308594e-01,1.826308965682983398e+00,2.828287909896818331e-01,0.000000000000000000e+00,0.000000000000000000e+00,1.120000000000000000e+02
1.000000000000000000e+00,1.000000000000000000e+00,1.000000000000000000e+00,3.000000000000000000e+00,6.690000000000000000e+02,5.265350341796875000e-01,2.204823017120361328e+00,6.872768706555953955e-01,0.000000000000000000e+00,1.000000000000000000e+00,1.110000000000000000e+02
0.000000000000000000e+00,0.000000000000000000e+00,1.000000000000000000e+00,0.000000000000000000e+00,6.680000000000000000e+02,4.906070232391357422e-01,2.186923980712890625e+00,7.075542239961931656e-01,0.000000000000000000e+00,0.000000000000000000e+00,1.110000000000000000e+02
1.000000000000000000e+00,0.000000000000000000e+00,0.000000000000000000e+00,0.000000000000000000e+00,6.670000000000000000e+02,3.644850254058837891e-01,1.734498023986816406e+00,3.757448622214205614e-01,0.000000000000000000e+00,0.000000000000000000e+00,1.110000000000000000e+02
1.000000000000000000e+00,0.000000000000000000e+00,0.000000000000000000e+00,0.000000000000000000e+00,6.660000000000000000e+02,5.082421302795410156e-01,1.878658056259155273e+00,3.877371876714262866e-01,0.000000000000000000e+00,1.000000000000000000e+00,1.120000000000000000e+02
0.000000000000000000e+00,0.000000000000000000e+00,1.000000000000000000e+00,0.000000000000000000e+00,6.650000000000000000e+02,5.189139842987060547e-01,1.970721960067749023e+00,4.584745799323464710e-01,0.000000000000000000e+00,1.000000000000000000e+00,1.110000000000000000e+02
0.000000000000000000e+00,0.000000000000000000e+00,1.000000000000000000e+00,0.000000000000000000e+00,6.640000000000000000e+02,5.432868003845214844e-01,2.262538909912109375e+00,7.374112457856774050e-01,0.000000000000000000e+00,0.000000000000000000e+00,1.110000000000000000e+02
1.000000000000000000e+00,0.000000000000000000e+00,0.000000000000000000e+00,0.000000000000000000e+00,6.630000000000000000e+02,3.036360740661621094e-01,1.842399120330810547e+00,5.466846392442530345e-01,0.000000000000000000e+00,0.000000000000000000e+00,1.110000000000000000e+02
1.000000000000000000e+00,1.000000000000000000e+00,1.000000000000000000e+00,3.000000000000000000e+00,6.650000000000000000e+02,5.784718990325927734e-01,2.094473838806152344e+00,5.245515314834831022e-01,0.000000000000000000e+00,0.000000000000000000e+00,1.110000000000000000e+02
1.000000000000000000e+00,1.000000000000000000e+00,1.000000000000000000e+00,0.000000000000000000e+00,6.640000000000000000e+02,6.565489768981933594e-01,2.289039850234985352e+00,6.468216661147307978e-01,0.000000000000000000e+00,0.000000000000000000e+00,1.110000000000000000e+02
0.000000000000000000e+00,0.000000000000000000e+00,1.000000000000000000e+00,0.000000000000000000e+00,6.630000000000000000e+02,5.362200736999511719e-01,2.266024827957153320e+00,7.461382650318060250e-01,0.000000000000000000e+00,0.000000000000000000e+00,1.110000000000000000e+02
1.000000000000000000e+00,1.000000000000000000e+00,1.000000000000000000e+00,2.000000000000000000e+00,6.640000000000000000e+02,5.606570243835449219e-01,2.095659017562866211e+00,5.420634811185540691e-01,0.000000000000000000e+00,0.000000000000000000e+00,1.110000000000000000e+02
0.000000000000000000e+00,0.000000000000000000e+00,1.000000000000000000e+00,0.000000000000000000e+00,6.630000000000000000e+02,5.537610054016113281e-01,2.050546884536743164e+00,5.093183147827746726e-01,0.000000000000000000e+00,0.000000000000000000e+00,1.110000000000000000e+02
1.000000000000000000e+00,1.000000000000000000e+00,1.000000000000000000e+00,2.000000000000000000e+00,6.640000000000000000e+02,5.448482036590576172e-01,1.917993068695068359e+00,3.775011969682938173e-01,0.000000000000000000e+00,0.000000000000000000e+00,1.110000000000000000e+02
1.000000000000000000e+00,1.000000000000000000e+00,1.000000000000000000e+00,3.000000000000000000e+00,6.660000000000000000e+02,6.042799949645996094e-01,2.065397977828979492e+00,4.761529567002897867e-01,0.000000000000000000e+00,0.000000000000000000e+00,1.110000000000000000e+02
0.000000000000000000e+00,0.000000000000000000e+00,1.000000000000000000e+00,0.000000000000000000e+00,6.650000000000000000e+02,6.586909294128417969e-01,2.261138916015625000e+00,6.208257784911208610e-01,0.000000000000000000e+00,1.000000000000000000e+00,1.120000000000000000e+02
0.000000000000000000e+00,0.000000000000000000e+00,1.000000000000000000e+00,0.000000000000000000e+00,6.640000000000000000e+02,5.170900821685791016e-01,2.104141950607299805e+00,5.913752004370982363e-01,0.000000000000000000e+00,1.000000000000000000e+00,1.110000000000000000e+02
0.000000000000000000e+00,0.000000000000000000e+00,1.000000000000000000e+00,0.000000000000000000e+00,6.630000000000000000e+02,4.500780105590820312e-01,2.031170845031738281e+00,5.892580030631322519e-01,0.000000000000000000e+00,0.000000000000000000e+00,1.110000000000000000e+02
1.000000000000000000e+00,0.000000000000000000e+00,0.000000000000000000e+00,0.000000000000000000e+00,6.620000000000000000e+02,4.228529930114746094e-01,1.866275072097778320e+00,4.556643935093651065e-01,0.000000000000000000e+00,1.000000000000000000e+00,1.120000000000000000e+02
0.000000000000000000e+00,0.000000000000000000e+00,1.000000000000000000e+00,0.000000000000000000e+00,6.610000000000000000e+02,4.122731685638427734e-01,2.115635156631469727e+00,7.210904737040444434e-01,0.000000000000000000e+00,1.000000000000000000e+00,1.110000000000000000e+02
0.000000000000000000e+00,0.000000000000000000e+00,1.000000000000000000e+00,0.000000000000000000e+00,6.600000000000000000e+02,5.357320308685302734e-01,2.051643848419189453e+00,5.230039001039652469e-01,0.000000000000000000e+00,0.000000000000000000e+00,1.110000000000000000e+02
1.000000000000000000e+00,1.000000000000000000e+00,1.000000000000000000e+00,3.000000000000000000e+00,6.620000000000000000e+02,4.698400497436523438e-01,1.902079820632934570e+00,4.418624704211060461e-01,0.000000000000000000e+00,0.000000000000000000e+00,1.110000000000000000e+02
1.000000000000000000e+00,1.000000000000000000e+00,1.000000000000000000e+00,4.000000000000000000e+00,6.650000000000000000e+02,4.839057922363281250e-01,1.901906013488769531e+00,4.271475313317007472e-01,0.000000000000000000e+00,0.000000000000000000e+00,1.110000000000000000e+02
1.000000000000000000e+00,1.000000000000000000e+00,1.000000000000000000e+00,3.000000000000000000e+00,6.670000000000000000e+02,5.439140796661376953e-01,1.994707822799682617e+00,4.718457211456696387e-01,0.000000000000000000e+00,0.000000000000000000e+00,1.110000000000000000e+02
0.000000000000000000e+00,1.000000000000000000e+00,0.000000000000000000e+00,4.000000000000000000e+00,6.700000000000000000e+02,7.681219577789306641e-01,2.307397127151489258e+00,5.458632825994507165e-01,0.000000000000000000e+00,0.000000000000000000e+00,1.110000000000000000e+02
1.000000000000000000e+00,1.000000000000000000e+00,1.000000000000000000e+00,4.000000000000000000e+00,6.730000000000000000e+02,4.870688915252685547e-01,2.175444841384887695e+00,7.045002913930356048e-01,0.000000000000000000e+00,0.000000000000000000e+00,1.110000000000000000e+02
1.000000000000000000e+00,1.000000000000000000e+00,1.000000000000000000e+00,4.000000000000000000e+00,6.760000000000000000e+02,5.638399124145507812e-01,2.031200885772705078e+00,4.693257536634212745e-01,0.000000000000000000e+00,0.000000000000000000e+00,1.110000000000000000e+02
1.000000000000000000e+00,0.000000000000000000e+00,0.000000000000000000e+00,0.000000000000000000e+00,6.750000000000000000e+02,5.715918540954589844e-01,1.995848178863525391e+00,4.318959785671961371e-01,0.000000000000000000e+00,1.000000000000000000e+00,1.120000000000000000e+02
0.000000000000000000e+00,1.000000000000000000e+00,0.000000000000000000e+00,3.000000000000000000e+00,6.770000000000000000e+02,6.222820281982421875e-01,2.101210832595825195e+00,4.997548360891829744e-01,0.000000000000000000e+00,1.000000000000000000e+00,1.110000000000000000e+02
1.000000000000000000e+00,1.000000000000000000e+00,1.000000000000000000e+00,3.000000000000000000e+00,6.790000000000000000e+02,6.187031269073486328e-01,2.262974023818969727e+00,6.459514467576484842e-01,0.000000000000000000e+00,0.000000000000000000e+00,1.110000000000000000e+02
1.000000000000000000e+00,1.000000000000000000e+00,1.000000000000000000e+00,3.000000000000000000e+00,6.810000000000000000e+02,5.417871475219726562e-01,1.970109939575195312e+00,4.496245723659568205e-01,0.000000000000000000e+00,0.000000000000000000e+00,1.110000000000000000e+02
0.000000000000000000e+00,0.000000000000000000e+00,1.000000000000000000e+00,0.000000000000000000e+00,6.800000000000000000e+02,4.715790748596191406e-01,1.985940933227539062e+00,5.188542113664980082e-01,0.000000000000000000e+00,0.000000000000000000e+00,1.110000000000000000e+02
1.000000000000000000e+00,0.000000000000000000e+00,0.000000000000000000e+00,0.000000000000000000e+00,6.790000000000000000e+02,3.971860408782958984e-01,1.884210109710693359e+00,4.864675827295405486e-01,0.000000000000000000e+00,0.000000000000000000e+00,1.110000000000000000e+02
1.000000000000000000e+00,1.000000000000000000e+00,1.000000000000000000e+00,4.000000000000000000e+00,6.820000000000000000e+02,4.159770011901855469e-01,1.762037992477416992e+00,3.486588855936786358e-01,1.000000000000000000e+00,1.000000000000000000e+00,1.120000000000000000e+02
1.000000000000000000e+00,0.000000000000000000e+00,0.000000000000000000e+00,0.000000000000000000e+00,6.810000000000000000e+02,4.690389633178710938e-01,1.805109024047851562e+00,3.537776743374079769e-01,0.000000000000000000e+00,1.000000000000000000e+00,1.110000000000000000e+02
0.000000000000000000e+00,0.000000000000000000e+00,1.000000000000000000e+00,0.000000000000000000e+00,6.800000000000000000e+02,4.014530181884765625e-01,2.071686029434204102e+00,6.752024698323688678e-01,0.000000000000000000e+00,0.000000000000000000e+00,1.110000000000000000e+02
0.000000000000000000e+00,0.000000000000000000e+00,1.000000000000000000e+00,0.000000000000000000e+00,6.790000000000000000e+02,4.808499813079833984e-01,1.872988939285278320e+00,3.985030347241996229e-01,0.000000000000000000e+00,1.000000000000000000e+00,1.120000000000000000e+02
0.000000000000000000e+00,1.000000000000000000e+00,0.000000000000000000e+00,3.000000000000000000e+00,6.810000000000000000e+02,6.912198066711425781e-01,1.930928230285644531e+00,2.629492970997709400e-01,0.000000000000000000e+00,0.000000000000000000e+00,1.120000000000000000e+02
1.000000000000000000e+00,1.000000000000000000e+00,1.000000000000000000e+00,1.000000000000000000e+00,6.810000000000000000e+02,4.469871520996093750e-01,2.046306848526000977e+00,6.088825286752643784e-01,0.000000000000000000e+00,0.000000000000000000e+00,1.120000000000000000e+02
0.000000000000000000e+00,1.000000000000000000e+00,0.000000000000000000e+00,2.000000000000000000e+00,6.820000000000000000e+02,4.789931774139404297e-01,2.220602035522460938e+00,7.460892659570170782e-01,0.000000000000000000e+00,0.000000000000000000e+00,1.120000000000000000e+02
0.000000000000000000e+00,1.000000000000000000e+00,0.000000000000000000e+00,2.000000000000000000e+00,6.830000000000000000e+02,3.394730091094970703e-01,1.846407175064086914e+00,5.260944235755808940e-01,0.000000000000000000e+00,0.000000000000000000e+00,1.120000000000000000e+02
1.000000000000000000e+00,1.000000000000000000e+00,1.000000000000000000e+00,1.000000000000000000e+00,6.830000000000000000e+02,6.615190505981445312e-01,2.289865970611572266e+00,6.492255921987570844e-01,0.000000000000000000e+00,0.000000000000000000e+00,1.120000000000000000e+02
0.000000000000000000e+00,1.000000000000000000e+00,0.000000000000000000e+00,3.000000000000000000e+00,6.850000000000000000e+02,3.926179409027099609e-01,1.950221061706542969e+00,5.661629267965666568e-01,0.000000000000000000e+00,0.000000000000000000e+00,1.120000000000000000e+02
1.000000000000000000e+00,0.000000000000000000e+00,0.000000000000000000e+00,0.000000000000000000e+00,6.840000000000000000e+02,4.456830024719238281e-01,2.130701065063476562e+00,6.801197728095824679e-01,0.000000000000000000e+00,1.000000000000000000e+00,1.110000000000000000e+02
0.000000000000000000e+00,1.000000000000000000e+00,0.000000000000000000e+00,2.000000000000000000e+00,6.850000000000000000e+02,3.470869064331054688e-01,2.018031120300292969e+00,6.815503559423607971e-01,0.000000000000000000e+00,1.000000000000000000e+00,1.120000000000000000e+02
1.000000000000000000e+00,1.000000000000000000e+00,1.000000000000000000e+00,4.000000000000000000e+00,6.880000000000000000e+02,5.334918498992919922e-01,1.894878864288330078e+00,3.767724752263015287e-01,0.000000000000000000e+00,0.000000000000000000e+00,1.120000000000000000e+02
1.000000000000000000e+00,1.000000000000000000e+00,1.000000000000000000e+00,4.000000000000000000e+00,6.910000000000000000e+02,3.655312061309814453e-01,1.778831958770751953e+00,4.222413715912728960e-01,0.000000000000000000e+00,0.000000000000000000e+00,1.120000000000000000e+02
1.000000000000000000e+00,1.000000000000000000e+00,1.000000000000000000e+00,1.000000000000000000e+00,6.910000000000000000e+02,4.522819519042968750e-01,1.830296039581298828e+00,3.859603077375238223e-01,0.000000000000000000e+00,0.000000000000000000e+00,1.120000000000000000e+02
0.000000000000000000e+00,1.000000000000000000e+00,0.000000000000000000e+00,4.000000000000000000e+00,6.940000000000000000e+02,5.038609504699707031e-01,2.138357162475585938e+00,6.407595367307773460e-01,0.000000000000000000e+00,0.000000000000000000e+00,1.120000000000000000e+02
1.000000000000000000e+00,1.000000000000000000e+00,1.000000000000000000e+00,4.000000000000000000e+00,6.970000000000000000e+02,3.357610702514648438e-01,1.825242042541503906e+00,4.994967420626160171e-01,0.000000000000000000e+00,0.000000000000000000e+00,1.120000000000000000e+02
0.000000000000000000e+00,1.000000000000000000e+00,0.000000000000000000e+00,3.000000000000000000e+00,6.990000000000000000e+02,3.043818473815917969e-01,2.019778966903686523e+00,7.190971743577849740e-01,0.000000000000000000e+00,0.000000000000000000e+00,1.120000000000000000e+02
0.000000000000000000e+00,1.000000000000000000e+00,0.000000000000000000e+00,1.000000000000000000e+00,6.990000000000000000e+02,3.547790050506591797e-01,1.597109079360961914e+00,2.500338198591599004e-01,0.000000000000000000e+00,0.000000000000000000e+00,1.120000000000000000e+02
1.000000000000000000e+00,0.000000000000000000e+00,0.000000000000000000e+00,0.000000000000000000e+00,6.980000000000000000e+02,5.018179416656494141e-01,1.848412990570068359e+00,3.483944253246865630e-01,0.000000000000000000e+00,1.000000000000000000e+00,1.110000000000000000e+02
0.000000000000000000e+00,1.000000000000000000e+00,0.000000000000000000e+00,3.000000000000000000e+00,7.000000000000000000e+02,3.275358676910400391e-01,1.834746122360229492e+00,5.329628406495159343e-01,0.000000000000000000e+00,1.000000000000000000e+00,1.120000000000000000e+02
1.000000000000000000e+00,0.000000000000000000e+00,0.000000000000000000e+00,0.000000000000000000e+00,6.990000000000000000e+02,3.751139640808105469e-01,1.996511936187744141e+00,6.127699680961276041e-01,0.000000000000000000e+00,1.000000000000000000e+00,1.110000000000000000e+02
0.000000000000000000e+00,1.000000000000000000e+00,0.000000000000000000e+00,2.000000000000000000e+00,7.000000000000000000e+02,2.833638191223144531e-01,1.908740043640136719e+00,6.381786931195186918e-01,0.000000000000000000e+00,1.000000000000000000e+00,1.120000000000000000e+02
0.000000000000000000e+00,1.000000000000000000e+00,0.000000000000000000e+00,4.000000000000000000e+00,7.030000000000000000e+02,3.807480335235595703e-01,2.092245101928710938e+00,7.137398901678428942e-01,0.000000000000000000e+00,0.000000000000000000e+00,1.120000000000000000e+02
1.000000000000000000e+00,1.000000000000000000e+00,1.000000000000000000e+00,4.000000000000000000e+00,7.060000000000000000e+02,2.954750061035156250e-01,1.793365001678466797e+00,5.073185764001667541e-01,0.000000000000000000e+00,0.000000000000000000e+00,1.120000000000000000e+02
1.000000000000000000e+00,1.000000000000000000e+00,1.000000000000000000e+00,2.000000000000000000e+00,7.070000000000000000e+02,3.736710548400878906e-01,1.934149980545043945e+00,5.747689279432237619e-01,0.000000000000000000e+00,0.000000000000000000e+00,1.120000000000000000e+02
1.000000000000000000e+00,1.000000000000000000e+00,1.000000000000000000e+00,3.000000000000000000e+00,7.090000000000000000e+02,3.662610054016113281e-01,1.608814001083374023e+00,2.506091876671985852e-01,0.000000000000000000e+00,0.000000000000000000e+00,1.120000000000000000e+02
1.000000000000000000e+00,1.000000000000000000e+00,1.000000000000000000e+00,3.000000000000000000e+00,7.110000000000000000e+02,4.096658229827880859e-01,1.944898843765258789e+00,5.452934361934523855e-01,0.000000000000000000e+00,0.000000000000000000e+00,1.120000000000000000e+02
1.000000000000000000e+00,1.000000000000000000e+00,1.000000000000000000e+00,2.000000000000000000e+00,7.120000000000000000e+02,3.286120891571044922e-01,1.782289028167724609e+00,4.610266850809142669e-01,0.000000000000000000e+00,0.000000000000000000e+00,1.120000000000000000e+02
0.000000000000000000e+00,1.000000000000000000e+00,0.000000000000000000e+00,1.000000000000000000e+00,7.120000000000000000e+02,3.361599445343017578e-01,1.683066129684448242e+00,3.608970524028317639e-01,0.000000000000000000e+00,0.000000000000000000e+00,1.120000000000000000e+02
0.000000000000000000e+00,0.000000000000000000e+00,1.000000000000000000e+00,0.000000000000000000e+00,7.110000000000000000e+02,3.499789237976074219e-01,1.774975061416625977e+00,4.357966522473061266e-01,0.000000000000000000e+00,1.000000000000000000e+00,1.110000000000000000e+02
1.000000000000000000e+00,1.000000000000000000e+00,1.000000000000000000e+00,3.000000000000000000e+00,7.130000000000000000e+02,2.896449565887451172e-01,1.980000019073486328e+00,6.989134143931829968e-01,0.000000000000000000e+00,1.000000000000000000e+00,1.120000000000000000e+02
1.000000000000000000e+00,1.000000000000000000e+00,1.000000000000000000e+00,1.000000000000000000e+00,7.130000000000000000e+02,3.073937892913818359e-01,1.866003036499023438e+00,5.651020419402199568e-01,0.000000000000000000e+00,0.000000000000000000e+00,1.120000000000000000e+02
1.000000000000000000e+00,1.000000000000000000e+00,1.000000000000000000e+00,3.000000000000000000e+00,7.150000000000000000e+02,3.575699329376220703e-01,1.956803083419799805e+00,6.218573264490380170e-01,0.000000000000000000e+00,0.000000000000000000e+00,1.120000000000000000e+02
0.000000000000000000e+00,1.000000000000000000e+00,0.000000000000000000e+00,3.000000000000000000e+00,7.170000000000000000e+02,3.549370765686035156e-01,2.069766044616699219e+00,7.248998303256992681e-01,0.000000000000000000e+00,0.000000000000000000e+00,1.120000000000000000e+02
1.000000000000000000e+00,1.000000000000000000e+00,1.000000000000000000e+00,4.000000000000000000e+00,7.200000000000000000e+02,3.463249206542968750e-01,1.928799867630004883e+00,5.871946509952423732e-01,0.000000000000000000e+00,0.000000000000000000e+00,1.120000000000000000e+02
0.000000000000000000e+00,1.000000000000000000e+00,0.000000000000000000e+00,3.000000000000000000e+00,7.220000000000000000e+02,3.681001663208007812e-01,1.990022182464599609e+00,6.272106956011933576e-01,0.000000000000000000e+00,0.000000000000000000e+00,1.120000000000000000e+02
1.000000000000000000e+00,1.000000000000000000e+00,1.000000000000000000e+00,4.000000000000000000e+00,7.250000000000000000e+02,3.237681388854980469e-01,1.963551044464111328e+00,6.574133974593450169e-01,0.000000000000000000e+00,0.000000000000000000e+00,1.120000000000000000e+02
1.000000000000000000e+00,1.000000000000000000e+00,1.000000000000000000e+00,2.000000000000000000e+00,7.260000000000000000e+02,3.572769165039062500e-01,2.073864936828613281e+00,7.312216031784544157e-01,0.000000000000000000e+00,0.000000000000000000e+00,1.120000000000000000e+02
0.000000000000000000e+00,0.000000000000000000e+00,1.000000000000000000e+00,0.000000000000000000e+00,7.250000000000000000e+02,3.296089172363281250e-01,1.601583003997802734e+00,2.832835660122771659e-01,1.000000000000000000e+00,1.000000000000000000e+00,1.110000000000000000e+02
1.000000000000000000e+00,0.000000000000000000e+00,0.000000000000000000e+00,0.000000000000000000e+00,7.240000000000000000e+02,3.649418354034423828e-01,2.065864086151123047e+00,6.987551332035371043e-01,0.000000000000000000e+00,0.000000000000000000e+00,1.110000000000000000e+02
1.000000000000000000e+00,0.000000000000000000e+00,0.000000000000000000e+00,0.000000000000000000e+00,7.230000000000000000e+02,3.803501129150390625e-01,1.899769067764282227e+00,5.154293803930831697e-01,0.000000000000000000e+00,0.000000000000000000e+00,1.110000000000000000e+02
1.000000000000000000e+00,0.000000000000000000e+00,0.000000000000000000e+00,0.000000000000000000e+00,7.220000000000000000e+02,5.064489841461181641e-01,2.164906024932861328e+00,6.635117259089310382e-01,0.000000000000000000e+00,0.000000000000000000e+00,1.110000000000000000e+02
1.000000000000000000e+00,0.000000000000000000e+00,0.000000000000000000e+00,0.000000000000000000e+00,7.210000000000000000e+02,4.654879570007324219e-01,1.784474849700927734e+00,3.317190618507339650e-01,0.000000000000000000e+00,1.000000000000000000e+00,1.120000000000000000e+02
0.000000000000000000e+00,0.000000000000000000e+00,1.000000000000000000e+00,0.000000000000000000e+00,7.200000000000000000e+02,6.122610569000244141e-01,2.135180950164794922e+00,5.500397924676494466e-01,0.000000000000000000e+00,1.000000000000000000e+00,1.110000000000000000e+02
0.000000000000000000e+00,1.000000000000000000e+00,0.000000000000000000e+00,2.000000000000000000e+00,7.210000000000000000e+02,4.663419723510742188e-01,1.852308034896850586e+00,3.858836774546227644e-01,0.000000000000000000e+00,1.000000000000000000e+00,1.120000000000000000e+02
1.000000000000000000e+00,0.000000000000000000e+00,0.000000000000000000e+00,0.000000000000000000e+00,7.200000000000000000e+02,4.043600559234619141e-01,1.758619070053100586e+00,3.611937452116428804e-01,0.000000000000000000e+00,1.000000000000000000e+00,1.110000000000000000e+02
0.000000000000000000e+00,0.000000000000000000e+00,1.000000000000000000e+00,0.000000000000000000e+00,7.190000000000000000e+02,4.414429664611816406e-01,1.762137889862060547e+00,3.400889799745342446e-01,0.000000000000000000e+00,0.000000000000000000e+00,1.110000000000000000e+02
1.000000000000000000e+00,0.000000000000000000e+00,0.000000000000000000e+00,0.000000000000000000e+00,7.180000000000000000e+02,6.698670387268066406e-01,2.147717952728271484e+00,4.876712229384064234e-01,0.000000000000000000e+00,1.000000000000000000e+00,1.120000000000000000e+02
0.000000000000000000e+00,1.000000000000000000e+00,0.000000000000000000e+00,6.000000000000000000e+00,7.230000000000000000e+02,7.919909954071044922e-01,2.133332967758178711e+00,3.545148614423554445e-01,0.000000000000000000e+00,0.000000000000000000e+00,1.120000000000000000e+02
0.000000000000000000e+00,0.000000000000000000e+00,1.000000000000000000e+00,0.000000000000000000e+00,7.220000000000000000e+02,4.805929660797119141e-01,2.066235065460205078e+00,5.872466021891833421e-01,0.000000000000000000e+00,1.000000000000000000e+00,1.110000000000000000e+02
0.000000000000000000e+00,1.000000000000000000e+00,0.000000000000000000e+00,0.000000000000000000e+00,7.210000000000000000e+02,4.410400390625000000e-01,1.699923038482666016e+00,2.708319090535592499e-01,0.000000000000000000e+00,1.000000000000000000e+00,1.120000000000000000e+02
0.000000000000000000e+00,0.000000000000000000e+00,1.000000000000000000e+00,0.000000000000000000e+00,7.200000000000000000e+02,6.051619052886962891e-01,2.344299793243408203e+00,7.480278398846471610e-01,0.000000000000000000e+00,1.000000000000000000e+00,1.110000000000000000e+02
0.000000000000000000e+00,0.000000000000000000e+00,1.000000000000000000e+00,0.000000000000000000e+00,7.190000000000000000e+02,4.718749523162841797e-01,2.057676076889038086e+00,6.058778420917356744e-01,0.000000000000000000e+00,0.000000000000000000e+00,1.110000000000000000e+02
1.000000000000000000e+00,1.000000000000000000e+00,1.000000000000000000e+00,1.000000000000000000e+00,7.190000000000000000e+02,4.322810173034667969e-01,2.023323059082031250e+00,5.959203732225308858e-01,0.000000000000000000e+00,1.000000000000000000e+00,1.120000000000000000e+02
0.000000000000000000e+00,0.000000000000000000e+00,1.000000000000000000e+00,0.000000000000000000e+00,7.180000000000000000e+02,6.046588420867919922e-01,2.062520027160644531e+00,4.752461918972127886e-01,0.000000000000000000e+00,1.000000000000000000e+00,1.110000000000000000e+02
1.000000000000000000e+00,1.000000000000000000e+00,1.000000000000000000e+00,4.000000000000000000e+00,7.210000000000000000e+02,5.369780063629150391e-01,2.143736124038696289e+00,6.188757186545716937e-01,0.000000000000000000e+00,0.000000000000000000e+00,1.110000000000000000e+02
1.000000000000000000e+00,1.000000000000000000e+00,1.000000000000000000e+00,4.000000000000000000e+00,7.240000000000000000e+02,4.761629104614257812e-01,1.720352888107299805e+00,2.563073195274820915e-01,0.000000000000000000e+00,0.000000000000000000e+00,1.110000000000000000e+02
1.000000000000000000e+00,1.000000000000000000e+00,1.000000000000000000e+00,2.000000000000000000e+00,7.250000000000000000e+02,5.815849304199218750e-01,1.868895053863525391e+00,2.918547591033170963e-01,0.000000000000000000e+00,0.000000000000000000e+00,1.110000000000000000e+02
1.000000000000000000e+00,1.000000000000000000e+00,1.000000000000000000e+00,3.000000000000000000e+00,7.270000000000000000e+02,4.130191802978515625e-01,1.801730155944824219e+00,3.935224980033888431e-01,0.000000000000000000e+00,0.000000000000000000e+00,1.110000000000000000e+02
0.000000000000000000e+00,1.000000000000000000e+00,0.000000000000000000e+00,3.000000000000000000e+00,7.290000000000000000e+02,4.619138240814208984e-01,2.030816078186035156e+00,5.908551065752903897e-01,0.000000000000000000e+00,0.000000000000000000e+00,1.110000000000000000e+02
0.000000000000000000e+00,1.000000000000000000e+00,0.000000000000000000e+00,2.000000000000000000e+00,7.300000000000000000e+02,3.967549800872802734e-01,1.994333028793334961e+00,6.018370142677049728e-01,0.000000000000000000e+00,0.000000000000000000e+00,1.110000000000000000e+02
1.000000000000000000e+00,1.000000000000000000e+00,1.000000000000000000e+00,2.000000000000000000e+00,7.310000000000000000e+02,3.128459453582763672e-01,1.684406995773315430e+00,3.699054744533404326e-01,0.000000000000000000e+00,0.000000000000000000e+00,1.110000000000000000e+02
0.000000000000000000e+00,1.000000000000000000e+00,0.000000000000000000e+00,3.000000000000000000e+00,7.330000000000000000e+02,5.115540027618408203e-01,2.109592914581298828e+00,5.958956624245680400e-01,0.000000000000000000e+00,0.000000000000000000e+00,1.110000000000000000e+02
1.000000000000000000e+00,1.000000000000000000e+00,1.000000000000000000e+00,2.000000000000000000e+00,7.340000000000000000e+02,3.346688747406005859e-01,1.915205001831054688e+00,5.944774179717562390e-01,0.000000000000000000e+00,0.000000000000000000e+00,1.110000000000000000e+02
1.000000000000000000e+00,1.000000000000000000e+00,1.000000000000000000e+00,2.000000000000000000e+00,7.350000000000000000e+02,4.211080074310302734e-01,1.684423923492431641e+00,2.792486564719931508e-01,0.000000000000000000e+00,0.000000000000000000e+00,1.110000000000000000e+02
1.000000000000000000e+00,0.000000000000000000e+00,0.000000000000000000e+00,0.000000000000000000e+00,7.340000000000000000e+02,4.327440261840820312e-01,1.977735042572021484e+00,5.567462040073974938e-01,0.000000000000000000e+00,1.000000000000000000e+00,1.120000000000000000e+02
1.000000000000000000e+00,1.000000000000000000e+00,1.000000000000000000e+00,3.000000000000000000e+00,7.360000000000000000e+02,3.385009765625000000e-01,2.030909061431884766e+00,7.042084546041680326e-01,0.000000000000000000e+00,1.000000000000000000e+00,1.110000000000000000e+02
1.000000000000000000e+00,1.000000000000000000e+00,1.000000000000000000e+00,2.000000000000000000e+00,7.370000000000000000e+02,3.472089767456054688e-01,1.619421958923339844e+00,2.741122087880490388e-01,0.000000000000000000e+00,0.000000000000000000e+00,1.110000000000000000e+02
1.000000000000000000e+00,0.000000000000000000e+00,0.000000000000000000e+00,0.000000000000000000e+00,7.360000000000000000e+02,5.496199131011962891e-01,2.271211862564086914e+00,7.282031193990995410e-01,0.000000000000000000e+00,1.000000000000000000e+00,1.120000000000000000e+02
1.000000000000000000e+00,1.000000000000000000e+00,1.000000000000000000e+00,3.000000000000000000e+00,7.380000000000000000e+02,3.850181102752685547e-01,1.642004013061523438e+00,2.707371862502033211e-01,0.000000000000000000e+00,1.000000000000000000e+00,1.110000000000000000e+02
1.000000000000000000e+00,1.000000000000000000e+00,1.000000000000000000e+00,2.000000000000000000e+00,7.390000000000000000e+02,4.471220970153808594e-01,1.958760023117065430e+00,5.126202352252325900e-01,0.000000000000000000e+00,0.000000000000000000e+00,1.110000000000000000e+02
1.000000000000000000e+00,1.000000000000000000e+00,1.000000000000000000e+00,1.000000000000000000e+00,7.390000000000000000e+02,3.941879272460937500e-01,1.657620906829833984e+00,2.871474416732363033e-01,0.000000000000000000e+00,0.000000000000000000e+00,1.110000000000000000e+02
1.000000000000000000e+00,0.000000000000000000e+00,0.000000000000000000e+00,0.000000000000000000e+00,7.380000000000000000e+02,3.405320644378662109e-01,1.948355913162231445e+00,6.185152881745259457e-01,1.000000000000000000e+00,1.000000000000000000e+00,1.120000000000000000e+02
0.000000000000000000e+00,1.000000000000000000e+00,0.000000000000000000e+00,3.000000000000000000e+00,7.400000000000000000e+02,4.006600379943847656e-01,1.895117998123168945e+00,4.971102506886142525e-01,0.000000000000000000e+00,1.000000000000000000e+00,1.110000000000000000e+02
1.000000000000000000e+00,0.000000000000000000e+00,0.000000000000000000e+00,0.000000000000000000e+00,7.390000000000000000e+02,3.843328952789306641e-01,1.898234128952026367e+00,5.287057273834780968e-01,0.000000000000000000e+00,1.000000000000000000e+00,1.120000000000000000e+02
0.000000000000000000e+00,1.000000000000000000e+00,0.000000000000000000e+00,2.000000000000000000e+00,7.400000000000000000e+02,3.853840827941894531e-01,1.985713005065917969e+00,6.143935697461693213e-01,0.000000000000000000e+00,1.000000000000000000e+00,1.110000000000000000e+02
0.000000000000000000e+00,0.000000000000000000e+00,1.000000000000000000e+00,0.000000000000000000e+00,7.390000000000000000e+02,3.511400222778320312e-01,1.910456180572509766e+00,5.749012474465511335e-01,0.000000000000000000e+00,1.000000000000000000e+00,1.120000000000000000e+02
0.000000000000000000e+00,1.000000000000000000e+00,0.000000000000000000e+00,3.000000000000000000e+00,7.410000000000000000e+02,3.216209411621093750e-01,1.891619920730590820e+00,5.831906759920646444e-01,0.000000000000000000e+00,1.000000000000000000e+00,1.110000000000000000e+02
0.000000000000000000e+00,0.000000000000000000e+00,1.000000000000000000e+00,0.000000000000000000e+00,7.400000000000000000e+02,4.656779766082763672e-01,1.762474060058593750e+00,2.960031068412256605e-01,0.000000000000000000e+00,1.000000000000000000e+00,1.120000000000000000e+02
1.000000000000000000e+00,0.000000000000000000e+00,0.000000000000000000e+00,0.000000000000000000e+00,7.390000000000000000e+02,4.017438888549804688e-01,1.661318063735961914e+00,2.740553623199490918e-01,0.000000000000000000e+00,0.000000000000000000e+00,1.120000000000000000e+02
0.000000000000000000e+00,1.000000000000000000e+00,0.000000000000000000e+00,1.000000000000000000e+00,7.390000000000000000e+02,3.450069427490234375e-01,1.813526868820190430e+00,4.873789086785553226e-01,0.000000000000000000e+00,1.000000000000000000e+00,1.110000000000000000e+02
0.000000000000000000e+00,0.000000000000000000e+00,1.000000000000000000e+00,0.000000000000000000e+00,7.380000000000000000e+02,3.594470024108886719e-01,2.021694183349609375e+00,6.755610102014962814e-01,0.000000000000000000e+00,1.000000000000000000e+00,1.120000000000000000e+02
0.000000000000000000e+00,1.000000000000000000e+00,0.000000000000000000e+00,3.000000000000000000e+00,7.400000000000000000e+02,4.058859348297119141e-01,1.831786870956420898e+00,4.409795652076144989e-01,0.000000000000000000e+00,1.000000000000000000e+00,1.110000000000000000e+02
0.000000000000000000e+00,1.000000000000000000e+00,0.000000000000000000e+00,2.000000000000000000e+00,7.410000000000000000e+02,6.065988540649414062e-01,2.040802001953125000e+00,4.484380257583535090e-01,0.000000000000000000e+00,1.000000000000000000e+00,1.120000000000000000e+02
0.000000000000000000e+00,1.000000000000000000e+00,0.000000000000000000e+00,3.000000000000000000e+00,7.430000000000000000e+02,5.523431301116943359e-01,1.836979866027832031e+00,3.023378279408466263e-01,0.000000000000000000e+00,0.000000000000000000e+00,1.120000000000000000e+02
1.000000000000000000e+00,1.000000000000000000e+00,1.000000000000000000e+00,2.000000000000000000e+00,7.440000000000000000e+02,4.353799819946289062e-01,1.877807140350341797e+00,4.466956304096361685e-01,0.000000000000000000e+00,0.000000000000000000e+00,1.120000000000000000e+02
0.000000000000000000e+00,1.000000000000000000e+00,0.000000000000000000e+00,4.000000000000000000e+00,7.470000000000000000e+02,3.957691192626953125e-01,1.843761920928955078e+00,4.570977964879590627e-01,0.000000000000000000e+00,0.000000000000000000e+00,1.120000000000000000e+02
1.000000000000000000e+00,0.000000000000000000e+00,0.000000000000000000e+00,0.000000000000000000e+00,7.460000000000000000e+02,3.488540649414062500e-01,1.977437973022460938e+00,6.344299600065594902e-01,0.000000000000000000e+00,1.000000000000000000e+00,1.110000000000000000e+02
0.000000000000000000e+00,0.000000000000000000e+00,1.000000000000000000e+00,0.000000000000000000e+00,7.450000000000000000e+02,3.356029987335205078e-01,1.719147205352783203e+00,3.871789130466168904e-01,0.000000000000000000e+00,0.000000000000000000e+00,1.110000000000000000e+02
0.000000000000000000e+00,1.000000000000000000e+00,0.000000000000000000e+00,3.000000000000000000e+00,7.470000000000000000e+02,4.609868526458740234e-01,2.114698886871337891e+00,6.516038180230949717e-01,0.000000000000000000e+00,1.000000000000000000e+00,1.120000000000000000e+02
0.000000000000000000e+00,1.000000000000000000e+00,0.000000000000000000e+00,3.000000000000000000e+00,7.490000000000000000e+02,3.474740982055664062e-01,1.967834949493408203e+00,6.195175543746203051e-01,0.000000000000000000e+00,0.000000000000000000e+00,1.120000000000000000e+02
1.000000000000000000e+00,1.000000000000000000e+00,1.000000000000000000e+00,2.000000000000000000e+00,7.500000000000000000e+02,2.897579669952392578e-01,1.576619863510131836e+00,2.965066075601255347e-01,0.000000000000000000e+00,0.000000000000000000e+00,1.120000000000000000e+02
0.000000000000000000e+00,0.000000000000000000e+00,1.000000000000000000e+00,0.000000000000000000e+00,7.490000000000000000e+02,3.731598854064941406e-01,1.898268938064575195e+00,5.445852635213108695e-01,0.000000000000000000e+00,1.000000000000000000e+00,1.110000000000000000e+02
1.000000000000000000e+00,1.000000000000000000e+00,1.000000000000000000e+00,1.000000000000000000e+00,7.490000000000000000e+02,3.542821407318115234e-01,1.718235015869140625e+00,3.796273073892195149e-01,0.000000000000000000e+00,1.000000000000000000e+00,1.120000000000000000e+02
1.000000000000000000e+00,1.000000000000000000e+00,1.000000000000000000e+00,2.000000000000000000e+00,7.500000000000000000e+02,3.616631031036376953e-01,1.743178844451904297e+00,3.895063755210874668e-01,0.000000000000000000e+00,0.000000000000000000e+00,1.120000000000000000e+02
1.000000000000000000e+00,1.000000000000000000e+00,1.000000000000000000e+00,0.000000000000000000e+00,7.490000000000000000e+02,3.147180080413818359e-01,1.729118108749389648e+00,4.186284414057139802e-01,0.000000000000000000e+00,0.000000000000000000e+00,1.120000000000000000e+02
0.000000000000000000e+00,1.000000000000000000e+00,0.000000000000000000e+00,2.000000000000000000e+00,7.500000000000000000e+02,2.994208335876464844e-01,1.801537036895751953e+00,5.034498275717900206e-01,0.000000000000000000e+00,0.000000000000000000e+00,1.120000000000000000e+02
1.000000000000000000e+00,1.000000000000000000e+00,1.000000000000000000e+00,3.000000000000000000e+00,7.520000000000000000e+02,2.425518035888671875e-01,1.484152078628540039e+00,2.545822365085729788e-01,0.000000000000000000e+00,0.000000000000000000e+00,1.120000000000000000e+02
1.000000000000000000e+00,1.000000000000000000e+00,1.000000000000000000e+00,3.000000000000000000e+00,7.540000000000000000e+02,3.772377967834472656e-01,2.109772920608520508e+00,7.471891803569608026e-01,0.000000000000000000e+00,0.000000000000000000e+00,1.120000000000000000e+02
1.000000000000000000e+00,0.000000000000000000e+00,0.000000000000000000e+00,0.000000000000000000e+00,7.530000000000000000e+02,3.832252025604248047e-01,1.847608089447021484e+00,4.784043365097269684e-01,0.000000000000000000e+00,1.000000000000000000e+00,1.110000000000000000e+02
0.000000000000000000e+00,1.000000000000000000e+00,0.000000000000000000e+00,3.000000000000000000e+00,7.550000000000000000e+02,4.623889923095703125e-01,1.765724897384643555e+00,3.110332600057104657e-01,0.000000000000000000e+00,1.000000000000000000e+00,1.120000000000000000e+02
1.000000000000000000e+00,1.000000000000000000e+00,1.000000000000000000e+00,3.000000000000000000e+00,7.570000000000000000e+02,5.567619800567626953e-01,1.879335165023803711e+00,3.403666406023541646e-01,0.000000000000000000e+00,0.000000000000000000e+00,1.120000000000000000e+02
1.000000000000000000e+00,1.000000000000000000e+00,1.000000000000000000e+00,2.000000000000000000e+00,7.580000000000000000e+02,4.554781913757324219e-01,1.858073949813842773e+00,4.150319153468775557e-01,0.000000000000000000e+00,0.000000000000000000e+00,1.120000000000000000e+02
0.000000000000000000e+00,0.000000000000000000e+00,1.000000000000000000e+00,0.000000000000000000e+00,7.570000000000000000e+02,4.105968475341796875e-01,1.666723966598510742e+00,2.819378153376050355e-01,0.000000000000000000e+00,1.000000000000000000e+00,1.110000000000000000e+02
0.000000000000000000e+00,1.000000000000000000e+00,0.000000000000000000e+00,2.000000000000000000e+00,7.580000000000000000e+02,3.478047847747802734e-01,1.999596834182739258e+00,6.642045439470521950e-01,0.000000000000000000e+00,1.000000000000000000e+00,1.120000000000000000e+02
0.000000000000000000e+00,1.000000000000000000e+00,0.000000000000000000e+00,1.000000000000000000e+00,7.580000000000000000e+02,3.549320697784423828e-01,1.703099012374877930e+00,3.679318238287176968e-01,0.000000000000000000e+00,0.000000000000000000e+00,1.120000000000000000e+02
1.000000000000000000e+00,1.000000000000000000e+00,1.000000000000000000e+00,2.000000000000000000e+00,7.590000000000000000e+02,3.243949413299560547e-01,2.043339014053344727e+00,7.275916708742377059e-01,0.000000000000000000e+00,0.000000000000000000e+00,1.120000000000000000e+02
1.000000000000000000e+00,1.000000000000000000e+00,1.000000000000000000e+00,3.000000000000000000e+00,7.610000000000000000e+02,3.160459995269775391e-01,1.697828769683837891e+00,3.924767998310744743e-01,0.000000000000000000e+00,0.000000000000000000e+00,1.120000000000000000e+02
1.000000000000000000e+00,1.000000000000000000e+00,1.000000000000000000e+00,1.000000000000000000e+00,7.610000000000000000e+02,3.241469860076904297e-01,1.638211011886596680e+00,3.307751602077187991e-01,1.000000000000000000e+00,0.000000000000000000e+00,1.120000000000000000e+02
1.000000000000000000e+00,0.000000000000000000e+00,0.000000000000000000e+00,0.000000000000000000e+00,7.600000000000000000e+02,4.139559268951416016e-01,2.006815910339355469e+00,6.040308597791187450e-01,0.000000000000000000e+00,1.000000000000000000e+00,1.110000000000000000e+02
0.000000000000000000e+00,1.000000000000000000e+00,0.000000000000000000e+00,2.000000000000000000e+00,7.610000000000000000e+02,3.012340068817138672e-01,2.036925077438354492e+00,7.408033473225306142e-01,0.000000000000000000e+00,1.000000000000000000e+00,1.120000000000000000e+02
1.000000000000000000e+00,0.000000000000000000e+00,0.000000000000000000e+00,0.000000000000000000e+00,7.600000000000000000e+02,4.140129089355468750e-01,2.113151073455810547e+00,7.040249548386831036e-01,0.000000000000000000e+00,1.000000000000000000e+00,1.110000000000000000e+02
1.000000000000000000e+00,0.000000000000000000e+00,0.000000000000000000e+00,0.000000000000000000e+00,7.590000000000000000e+02,2.854359149932861328e-01,1.835372924804687500e+00,5.562601825848536574e-01,0.000000000000000000e+00,0.000000000000000000e+00,1.110000000000000000e+02
1.000000000000000000e+00,1.000000000000000000e+00,1.000000000000000000e+00,1.000000000000000000e+00,7.590000000000000000e+02,3.912889957427978516e-01,1.961019992828369141e+00,5.840197939538716021e-01,0.000000000000000000e+00,0.000000000000000000e+00,1.110000000000000000e+02
0.000000000000000000e+00,1.000000000000000000e+00,0.000000000000000000e+00,1.000000000000000000e+00,7.590000000000000000e+02,3.706438541412353516e-01,1.645982027053833008e+00,2.803183886844001216e-01,0.000000000000000000e+00,0.000000000000000000e+00,1.110000000000000000e+02
1.000000000000000000e+00,1.000000000000000000e+00,1.000000000000000000e+00,2.000000000000000000e+00,7.600000000000000000e+02,3.933668136596679688e-01,2.005908012390136719e+00,6.358936922536786440e-01,0.000000000000000000e+00,0.000000000000000000e+00,1.110000000000000000e+02
1.000000000000000000e+00,0.000000000000000000e+00,0.000000000000000000e+00,0.000000000000000000e+00,7.590000000000000000e+02,4.477770328521728516e-01,2.013831138610839844e+00,5.664964048228308124e-01,0.000000000000000000e+00,0.000000000000000000e+00,1.110000000000000000e+02
1.000000000000000000e+00,1.000000000000000000e+00,1.000000000000000000e+00,3.000000000000000000e+00,7.610000000000000000e+02,3.733620643615722656e-01,1.651985883712768555e+00,2.854727470071136697e-01,0.000000000000000000e+00,1.000000000000000000e+00,1.120000000000000000e+02
1.000000000000000000e+00,0.000000000000000000e+00,0.000000000000000000e+00,0.000000000000000000e+00,7.600000000000000000e+02,4.672529697418212891e-01,1.814391136169433594e+00,3.498338915633943946e-01,0.000000000000000000e+00,1.000000000000000000e+00,1.110000000000000000e+02
0.000000000000000000e+00,0.000000000000000000e+00,1.000000000000000000e+00,0.000000000000000000e+00,7.590000000000000000e+02,2.966101169586181641e-01,1.950476884841918945e+00,6.500415131577923500e-01,0.000000000000000000e+00,0.000000000000000000e+00,1.110000000000000000e+02
1.000000000000000000e+00,1.000000000000000000e+00,1.000000000000000000e+00,0.000000000000000000e+00,7.580000000000000000e+02,3.817059993743896484e-01,1.656466007232666016e+00,2.736081671842255925e-01,0.000000000000000000e+00,0.000000000000000000e+00,1.110000000000000000e+02
0.000000000000000000e+00,0.000000000000000000e+00,1.000000000000000000e+00,0.000000000000000000e+00,7.570000000000000000e+02,4.818949699401855469e-01,1.936721086502075195e+00,4.601451920952416841e-01,0.000000000000000000e+00,1.000000000000000000e+00,1.120000000000000000e+02
1.000000000000000000e+00,0.000000000000000000e+00,0.000000000000000000e+00,0.000000000000000000e+00,7.560000000000000000e+02,4.175231456756591797e-01,1.875138998031616211e+00,4.686359202158972281e-01,0.000000000000000000e+00,1.000000000000000000e+00,1.110000000000000000e+02
1.000000000000000000e+00,0.000000000000000000e+00,0.000000000000000000e+00,0.000000000000000000e+00,7.550000000000000000e+02,4.222638607025146484e-01,1.721515893936157227e+00,3.070345444875486884e-01,0.000000000000000000e+00,0.000000000000000000e+00,1.110000000000000000e+02
0.000000000000000000e+00,0.000000000000000000e+00,1.000000000000000000e+00,0.000000000000000000e+00,7.540000000000000000e+02,4.916319847106933594e-01,1.932039022445678711e+00,4.555976185305423143e-01,0.000000000000000000e+00,0.000000000000000000e+00,1.110000000000000000e+02
1.000000000000000000e+00,1.000000000000000000e+00,1.000000000000000000e+00,4.000000000000000000e+00,7.570000000000000000e+02,4.003670215606689453e-01,2.088824033737182617e+00,6.942274552827973899e-01,0.000000000000000000e+00,1.000000000000000000e+00,1.120000000000000000e+02
0.000000000000000000e+00,1.000000000000000000e+00,0.000000000000000000e+00,3.000000000000000000e+00,7.590000000000000000e+02,3.051559925079345703e-01,1.564414978027343750e+00,2.757748656910540830e-01,0.000000000000000000e+00,0.000000000000000000e+00,1.120000000000000000e+02
1.000000000000000000e+00,1.000000000000000000e+00,1.000000000000000000e+00,1.000000000000000000e+00,7.590000000000000000e+02,3.525350093841552734e-01,1.925344944000244141e+00,5.841442404558971901e-01,0.000000000000000000e+00,0.000000000000000000e+00,1.120000000000000000e+02
1.000000000000000000e+00,0.000000000000000000e+00,0.000000000000000000e+00,0.000000000000000000e+00,7.580000000000000000e+02,4.082269668579101562e-01,1.958986997604370117e+00,5.598465944770745217e-01,0.000000000000000000e+00,1.000000000000000000e+00,1.110000000000000000e+02
0.000000000000000000e+00,0.000000000000000000e+00,1.000000000000000000e+00,0.000000000000000000e+00,7.570000000000000000e+02,3.292720317840576172e-01,1.853463172912597656e+00,5.300468438973189311e-01,0.000000000000000000e+00,0.000000000000000000e+00,1.110000000000000000e+02
0.000000000000000000e+00,0.000000000000000000e+00,1.000000000000000000e+00,0.000000000000000000e+00,7.560000000000000000e+02,3.824088573455810547e-01,1.858173847198486328e+00,4.882633986950896121e-01,0.000000000000000000e+00,0.000000000000000000e+00,1.110000000000000000e+02
0.000000000000000000e+00,0.000000000000000000e+00,1.000000000000000000e+00,0.000000000000000000e+00,7.550000000000000000e+02,3.767969608306884766e-01,1.649103879928588867e+00,2.876231656771418010e-01,0.000000000000000000e+00,0.000000000000000000e+00,1.110000000000000000e+02
0.000000000000000000e+00,0.000000000000000000e+00,1.000000000000000000e+00,0.000000000000000000e+00,7.540000000000000000e+02,4.009058475494384766e-01,1.965229034423828125e+00,5.692412160643248731e-01,0.000000000000000000e+00,0.000000000000000000e+00,1.110000000000000000e+02
1.000000000000000000e+00,1.000000000000000000e+00,1.000000000000000000e+00,2.000000000000000000e+00,7.550000000000000000e+02,2.862591743469238281e-01,1.662499189376831055e+00,3.819971564388801033e-01,0.000000000000000000e+00,0.000000000000000000e+00,1.110000000000000000e+02
1.000000000000000000e+00,1.000000000000000000e+00,1.000000000000000000e+00,2.000000000000000000e+00,7.560000000000000000e+02,4.003579616546630859e-01,1.694301843643188477e+00,3.097326314248642354e-01,0.000000000000000000e+00,0.000000000000000000e+00,1.110000000000000000e+02
0.000000000000000000e+00,1.000000000000000000e+00,0.000000000000000000e+00,3.000000000000000000e+00,7.580000000000000000e+02,4.533679485321044922e-01,1.854766130447387695e+00,4.144215556079242635e-01,0.000000000000000000e+00,0.000000000000000000e+00,1.110000000000000000e+02
1.000000000000000000e+00,1.000000000000000000e+00,1.000000000000000000e+00,2.000000000000000000e+00,7.590000000000000000e+02,3.253569602966308594e-01,1.907744884490966797e+00,6.053693512005878796e-01,0.000000000000000000e+00,0.000000000000000000e+00,1.110000000000000000e+02
1.000000000000000000e+00,1.000000000000000000e+00,1.000000000000000000e+00,3.000000000000000000e+00,7.610000000000000000e+02,2.767071723937988281e-01,1.691238164901733398e+00,4.301095498564388442e-01,0.000000000000000000e+00,0.000000000000000000e+00,1.110000000000000000e+02
1.000000000000000000e+00,1.000000000000000000e+00,1.000000000000000000e+00,2.000000000000000000e+00,7.620000000000000000e+02,3.905489444732666016e-01,1.642274856567382812e+00,2.726070311643865041e-01,0.000000000000000000e+00,0.000000000000000000e+00,1.110000000000000000e+02
0.000000000000000000e+00,1.000000000000000000e+00,0.000000000000000000e+00,3.000000000000000000e+00,7.640000000000000000e+02,3.535110950469970703e-01,1.732564926147460938e+00,3.883901700530574819e-01,0.000000000000000000e+00,0.000000000000000000e+00,1.110000000000000000e+02
1.000000000000000000e+00,1.000000000000000000e+00,1.000000000000000000e+00,3.000000000000000000e+00,7.660000000000000000e+02,4.853448867797851562e-01,1.921957969665527344e+00,4.436887037442556747e-01,0.000000000000000000e+00,0.000000000000000000e+00,1.110000000000000000e+02
0.000000000000000000e+00,1.000000000000000000e+00,0.000000000000000000e+00,3.000000000000000000e+00,7.680000000000000000e+02,2.978270053863525391e-01,1.798692941665649414e+00,5.089958774869869362e-01,0.000000000000000000e+00,0.000000000000000000e+00,1.110000000000000000e+02
0.000000000000000000e+00,0.000000000000000000e+00,1.000000000000000000e+00,0.000000000000000000e+00,7.670000000000000000e+02,3.697202205657958984e-01,1.682327032089233398e+00,3.248878856121334979e-01,1.000000000000000000e+00,1.000000000000000000e+00,1.120000000000000000e+02
0.000000000000000000e+00,0.000000000000000000e+00,1.000000000000000000e+00,0.000000000000000000e+00,7.660000000000000000e+02,3.575489521026611328e-01,2.008872032165527344e+00,6.667985421502240495e-01,0.000000000000000000e+00,0.000000000000000000e+00,1.120000000000000000e+02
0.000000000000000000e+00,1.000000000000000000e+00,0.000000000000000000e+00,3.000000000000000000e+00,7.680000000000000000e+02,3.389439582824707031e-01,1.899385929107666016e+00,5.662514969899172801e-01,0.000000000000000000e+00,0.000000000000000000e+00,1.120000000000000000e+02
0.000000000000000000e+00,1.000000000000000000e+00,0.000000000000000000e+00,1.000000000000000000e+00,7.680000000000000000e+02,3.508799076080322266e-01,1.895917177200317383e+00,5.456028031346196183e-01,0.000000000000000000e+00,0.000000000000000000e+00,1.120000000000000000e+02
0.000000000000000000e+00,0.000000000000000000e+00,1.000000000000000000e+00,0.000000000000000000e+00,7.670000000000000000e+02,3.457591533660888672e-01,1.975416898727416992e+00,6.376260441492297426e-01,0.000000000000000000e+00,1.000000000000000000e+00,1.110000000000000000e+02
0.000000000000000000e+00,1.000000000000000000e+00,0.000000000000000000e+00,4.000000000000000000e+00,7.700000000000000000e+02,3.084788322448730469e-01,1.545633077621459961e+00,2.503818122487413977e-01,0.000000000000000000e+00,1.000000000000000000e+00,1.120000000000000000e+02
0.000000000000000000e+00,1.000000000000000000e+00,0.000000000000000000e+00,3.000000000000000000e+00,7.720000000000000000e+02,3.885829448699951172e-01,2.015594005584716797e+00,6.322707964076633713e-01,0.000000000000000000e+00,0.000000000000000000e+00,1.120000000000000000e+02
0.000000000000000000e+00,1.000000000000000000e+00,0.000000000000000000e+00,1.000000000000000000e+00,7.720000000000000000e+02,3.629288673400878906e-01,1.963295936584472656e+00,5.956258280043732478e-01,0.000000000000000000e+00,0.000000000000000000e+00,1.120000000000000000e+02
1.000000000000000000e+00,1.000000000000000000e+00,1.000000000000000000e+00,3.000000000000000000e+00,7.740000000000000000e+02,3.830318450927734375e-01,1.627156972885131836e+00,2.565028294465422909e-01,0.000000000000000000e+00,0.000000000000000000e+00,1.120000000000000000e+02
1.000000000000000000e+00,1.000000000000000000e+00,1.000000000000000000e+00,2.000000000000000000e+00,7.750000000000000000e+02,4.537260532379150391e-01,2.033114910125732422e+00,5.893243500922662470e-01,0.000000000000000000e+00,0.000000000000000000e+00,1.120000000000000000e+02
0.000000000000000000e+00,1.000000000000000000e+00,0.000000000000000000e+00,3.000000000000000000e+00,7.770000000000000000e+02,6.743669509887695312e-01,2.319380998611450195e+00,6.586388930003883591e-01,0.000000000000000000e+00,0.000000000000000000e+00,1.120000000000000000e+02
0.000000000000000000e+00,1.000000000000000000e+00,0.000000000000000000e+00,1.000000000000000000e+00,7.770000000000000000e+02,4.058108329772949219e-01,1.668306827545166016e+00,2.773487918780944139e-01,0.000000000000000000e+00,0.000000000000000000e+00,1.120000000000000000e+02
0.000000000000000000e+00,1.000000000000000000e+00,0.000000000000000000e+00,4.000000000000000000e+00,7.800000000000000000e+02,4.486610889434814453e-01,2.072490215301513672e+00,6.328330122279131054e-01,0.000000000000000000e+00,0.000000000000000000e+00,1.120000000000000000e+02
0.000000000000000000e+00,0.000000000000000000e+00,1.000000000000000000e+00,0.000000000000000000e+00,7.790000000000000000e+02,3.389308452606201172e-01,1.792533874511718750e+00,4.589076844029175706e-01,0.000000000000000000e+00,1.000000000000000000e+00,1.110000000000000000e+02
1.000000000000000000e+00,1.000000000000000000e+00,1.000000000000000000e+00,2.000000000000000000e+00,7.800000000000000000e+02,4.177460670471191406e-01,1.784951210021972656e+00,3.773146749639905151e-01,0.000000000000000000e+00,1.000000000000000000e+00,1.120000000000000000e+02
0.000000000000000000e+00,1.000000000000000000e+00,0.000000000000000000e+00,5.000000000000000000e+00,7.840000000000000000e+02,4.063138961791992188e-01,1.836915969848632812e+00,4.475200323018639348e-01,0.000000000000000000e+00,0.000000000000000000e+00,1.120000000000000000e+02
0.000000000000000000e+00,1.000000000000000000e+00,0.000000000000000000e+00,3.000000000000000000e+00,7.860000000000000000e+02,3.290069103240966797e-01,1.636162042617797852e+00,3.171570708049029075e-01,0.000000000000000000e+00,0.000000000000000000e+00,1.120000000000000000e+02
1.000000000000000000e+00,1.000000000000000000e+00,1.000000000000000000e+00,4.000000000000000000e+00,7.890000000000000000e+02,3.581180572509765625e-01,1.922018051147460938e+00,5.722668995643817036e-01,0.000000000000000000e+00,0.000000000000000000e+00,1.120000000000000000e+02
0.000000000000000000e+00,1.000000000000000000e+00,0.000000000000000000e+00,4.000000000000000000e+00,7.920000000000000000e+02,5.088121891021728516e-01,1.522343802452087402e+01,4.961305375734383349e-01,1.000000000000000000e+00,0.000000000000000000e+00,1.120000000000000000e+02
0.000000000000000000e+00,0.000000000000000000e+00,1.000000000000000000e+00,0.000000000000000000e+00,7.910000000000000000e+02,3.394730091094970703e-01,2.048929929733276367e+00,7.281365658284981723e-01,0.000000000000000000e+00,1.000000000000000000e+00,1.110000000000000000e+02
1.000000000000000000e+00,0.000000000000000000e+00,0.000000000000000000e+00,0.000000000000000000e+00,7.900000000000000000e+02,3.125240802764892578e-01,1.932636022567749023e+00,6.442354181334624119e-01,0.000000000000000000e+00,0.000000000000000000e+00,1.110000000000000000e+02
0.000000000000000000e+00,0.000000000000000000e+00,1.000000000000000000e+00,0.000000000000000000e+00,7.890000000000000000e+02,3.222460746765136719e-01,1.928426980972290039e+00,6.226952332416777480e-01,0.000000000000000000e+00,0.000000000000000000e+00,1.110000000000000000e+02
1.000000000000000000e+00,1.000000000000000000e+00,1.000000000000000000e+00,2.000000000000000000e+00,7.900000000000000000e+02,2.779710292816162109e-01,1.708395004272460938e+00,4.479595035994352048e-01,0.000000000000000000e+00,0.000000000000000000e+00,1.110000000000000000e+02
0.000000000000000000e+00,1.000000000000000000e+00,0.000000000000000000e+00,4.000000000000000000e+00,7.930000000000000000e+02,3.060970306396484375e-01,1.915219068527221680e+00,6.297124399890448032e-01,0.000000000000000000e+00,0.000000000000000000e+00,1.110000000000000000e+02
1.000000000000000000e+00,1.000000000000000000e+00,1.000000000000000000e+00,4.000000000000000000e+00,7.960000000000000000e+02,3.154330253601074219e-01,1.794008016586303711e+00,4.905480124026688205e-01,0.000000000000000000e+00,0.000000000000000000e+00,1.110000000000000000e+02
1.000000000000000000e+00,1.000000000000000000e+00,1.000000000000000000e+00,2.000000000000000000e+00,7.970000000000000000e+02,3.984270095825195312e-01,1.650816917419433594e+00,2.582801616475031703e-01,0.000000000000000000e+00,0.000000000000000000e+00,1.110000000000000000e+02
1.000000000000000000e+00,1.000000000000000000e+00,1.000000000000000000e+00,3.000000000000000000e+00,7.990000000000000000e+02,4.275600910186767578e-01,1.791686058044433594e+00,3.665532103689951859e-01,0.000000000000000000e+00,0.000000000000000000e+00,1.110000000000000000e+02
0.000000000000000000e+00,1.000000000000000000e+00,0.000000000000000000e+00,2.000000000000000000e+00,8.000000000000000000e+02,3.606112003326416016e-01,1.624678134918212891e+00,2.747081231092751152e-01,0.000000000000000000e+00,0.000000000000000000e+00,1.110000000000000000e+02
0.000000000000000000e+00,1.000000000000000000e+00,0.000000000000000000e+00,4.000000000000000000e+00,8.030000000000000000e+02,3.547809123992919922e-01,1.751060962677001953e+00,4.089406753981714160e-01,0.000000000000000000e+00,0.000000000000000000e+00,1.110000000000000000e+02
0.000000000000000000e+00,1.000000000000000000e+00,0.000000000000000000e+00,4.000000000000000000e+00,8.060000000000000000e+02,3.620688915252685547e-01,1.850377082824707031e+00,5.092998724315354053e-01,0.000000000000000000e+00,0.000000000000000000e+00,1.110000000000000000e+02
1.000000000000000000e+00,1.000000000000000000e+00,1.000000000000000000e+00,1.000000000000000000e+00,8.060000000000000000e+02,3.381240367889404297e-01,2.030607938766479492e+00,7.063871962940407867e-01,0.000000000000000000e+00,0.000000000000000000e+00,1.110000000000000000e+02
1.000000000000000000e+00,0.000000000000000000e+00,0.000000000000000000e+00,0.000000000000000000e+00,8.050000000000000000e+02,3.188741207122802734e-01,1.789330005645751953e+00,4.793159016873186351e-01,0.000000000000000000e+00,1.000000000000000000e+00,1.120000000000000000e+02
0.000000000000000000e+00,1.000000000000000000e+00,0.000000000000000000e+00,2.000000000000000000e+00,8.060000000000000000e+02,3.475790023803710938e-01,1.839474201202392578e+00,5.021662292541719808e-01,0.000000000000000000e+00,1.000000000000000000e+00,1.110000000000000000e+02
1.000000000000000000e+00,1.000000000000000000e+00,1.000000000000000000e+00,3.000000000000000000e+00,8.080000000000000000e+02,4.857051372528076172e-01,1.798673868179321289e+00,3.176984815241826743e-01,0.000000000000000000e+00,0.000000000000000000e+00,1.110000000000000000e+02
0.000000000000000000e+00,0.000000000000000000e+00,1.000000000000000000e+00,0.000000000000000000e+00,8.070000000000000000e+02,3.637340068817138672e-01,1.858327150344848633e+00,4.925544375261892704e-01,0.000000000000000000e+00,1.000000000000000000e+00,1.120000000000000000e+02
0.000000000000000000e+00,1.000000000000000000e+00,0.000000000000000000e+00,4.000000000000000000e+00,8.100000000000000000e+02,3.717868328094482422e-01,1.742801904678344727e+00,3.854769130519009046e-01,0.000000000000000000e+00,1.000000000000000000e+00,1.110000000000000000e+02
1.000000000000000000e+00,0.000000000000000000e+00,0.000000000000000000e+00,0.000000000000000000e+00,8.090000000000000000e+02,5.258991718292236328e-01,1.852472782135009766e+00,3.380519827799285948e-01,0.000000000000000000e+00,1.000000000000000000e+00,1.120000000000000000e+02
1.000000000000000000e+00,1.000000000000000000e+00,1.000000000000000000e+00,0.000000000000000000e+00,8.080000000000000000e+02,4.499979019165039062e-01,1.784719944000244141e+00,3.394730193857394829e-01,0.000000000000000000e+00,1.000000000000000000e+00,1.110000000000000000e+02
1.000000000000000000e+00,0.000000000000000000e+00,0.000000000000000000e+00,0.000000000000000000e+00,8.070000000000000000e+02,3.355989456176757812e-01,2.066855907440185547e+00,7.392824596161029493e-01,0.000000000000000000e+00,0.000000000000000000e+00,1.110000000000000000e+02
0.000000000000000000e+00,0.000000000000000000e+00,1.000000000000000000e+00,0.000000000000000000e+00,8.060000000000000000e+02,3.019790649414062500e-01,1.947016954421997070e+00,6.530906610778645094e-01,0.000000000000000000e+00,0.000000000000000000e+00,1.110000000000000000e+02
1.000000000000000000e+00,1.000000000000000000e+00,1.000000000000000000e+00,3.000000000000000000e+00,8.080000000000000000e+02,4.631731510162353516e-01,1.767893075942993164e+00,3.046892016536141279e-01,0.000000000000000000e+00,0.000000000000000000e+00,1.110000000000000000e+02
0.000000000000000000e+00,1.000000000000000000e+00,0.000000000000000000e+00,2.000000000000000000e+00,8.090000000000000000e+02,5.445458889007568359e-01,1.912214994430541992e+00,3.668944223038808627e-01,0.000000000000000000e+00,0.000000000000000000e+00,1.110000000000000000e+02
0.000000000000000000e+00,0.000000000000000000e+00,1.000000000000000000e+00,0.000000000000000000e+00,8.080000000000000000e+02,3.099298477172851562e-01,1.562529087066650391e+00,2.628772154774071113e-01,0.000000000000000000e+00,1.000000000000000000e+00,1.120000000000000000e+02
0.000000000000000000e+00,0.000000000000000000e+00,1.000000000000000000e+00,0.000000000000000000e+00,8.070000000000000000e+02,3.519630432128906250e-01,1.602030038833618164e+00,2.649396126448889111e-01,0.000000000000000000e+00,0.000000000000000000e+00,1.120000000000000000e+02
0.000000000000000000e+00,1.000000000000000000e+00,0.000000000000000000e+00,2.000000000000000000e+00,8.080000000000000000e+02,3.770918846130371094e-01,1.849819898605346680e+00,4.979044951442862521e-01,0.000000000000000000e+00,1.000000000000000000e+00,1.110000000000000000e+02
1.000000000000000000e+00,1.000000000000000000e+00,1.000000000000000000e+00,1.000000000000000000e+00,8.080000000000000000e+02,3.921480178833007812e-01,2.035147905349731445e+00,6.662580197096652501e-01,0.000000000000000000e+00,0.000000000000000000e+00,1.110000000000000000e+02
1.000000000000000000e+00,1.000000000000000000e+00,1.000000000000000000e+00,3.000000000000000000e+00,8.100000000000000000e+02,3.691949844360351562e-01,1.963684082031250000e+00,5.966837328034950705e-01,0.000000000000000000e+00,0.000000000000000000e+00,1.110000000000000000e+02
1.000000000000000000e+00,1.000000000000000000e+00,1.000000000000000000e+00,1.000000000000000000e+00,8.100000000000000000e+02,3.642339706420898438e-01,2.022489070892333984e+00,6.691284726020303442e-01,0.000000000000000000e+00,0.000000000000000000e+00,1.110000000000000000e+02
1.000000000000000000e+00,1.000000000000000000e+00,1.000000000000000000e+00,3.000000000000000000e+00,8.120000000000000000e+02,4.050371646881103516e-01,1.695407867431640625e+00,2.982788414652783326e-01,0.000000000000000000e+00,0.000000000000000000e+00,1.110000000000000000e+02
0.000000000000000000e+00,1.000000000000000000e+00,0.000000000000000000e+00,3.000000000000000000e+00,8.140000000000000000e+02,3.556981086730957031e-01,1.644840002059936523e+00,3.098028247981942651e-01,0.000000000000000000e+00,0.000000000000000000e+00,1.110000000000000000e+02
0.000000000000000000e+00,1.000000000000000000e+00,0.000000000000000000e+00,1.000000000000000000e+00,8.140000000000000000e+02,3.508660793304443359e-01,1.642565965652465820e+00,3.024269674807339991e-01,0.000000000000000000e+00,0.000000000000000000e+00,1.110000000000000000e+02
0.000000000000000000e+00,1.000000000000000000e+00,0.000000000000000000e+00,2.000000000000000000e+00,8.150000000000000000e+02,3.778469562530517578e-01,1.707669973373413086e+00,3.267415092251157449e-01,0.000000000000000000e+00,0.000000000000000000e+00,1.110000000000000000e+02
0.000000000000000000e+00,1.000000000000000000e+00,0.000000000000000000e+00,2.000000000000000000e+00,8.160000000000000000e+02,3.198380470275878906e-01,1.579691171646118164e+00,2.731938581944934330e-01,1.000000000000000000e+00,0.000000000000000000e+00,1.110000000000000000e+02
0.000000000000000000e+00,0.000000000000000000e+00,1.000000000000000000e+00,0.000000000000000000e+00,8.150000000000000000e+02,3.597021102905273438e-01,1.907925844192504883e+00,5.642234112140971369e-01,0.000000000000000000e+00,1.000000000000000000e+00,1.120000000000000000e+02
0.000000000000000000e+00,1.000000000000000000e+00,0.000000000000000000e+00,3.000000000000000000e+00,8.170000000000000000e+02,3.167698383331298828e-01,1.961298942565917969e+00,6.587783853440369874e-01,0.000000000000000000e+00,1.000000000000000000e+00,1.110000000000000000e+02
1.000000000000000000e+00,0.000000000000000000e+00,0.000000000000000000e+00,0.000000000000000000e+00,8.160000000000000000e+02,3.912019729614257812e-01,1.818454980850219727e+00,4.441706663986856873e-01,0.000000000000000000e+00,1.000000000000000000e+00,1.120000000000000000e+02
0.000000000000000000e+00,0.000000000000000000e+00,1.000000000000000000e+00,0.000000000000000000e+00,8.150000000000000000e+02,3.594441413879394531e-01,1.610920190811157227e+00,2.719782610850237647e-01,0.000000000000000000e+00,0.000000000000000000e+00,1.120000000000000000e+02
1.000000000000000000e+00,0.000000000000000000e+00,0.000000000000000000e+00,0.000000000000000000e+00,8.140000000000000000e+02,5.688149929046630859e-01,2.262850999832153320e+00,7.010372644048319390e-01,0.000000000000000000e+00,0.000000000000000000e+00,1.120000000000000000e+02
0.000000000000000000e+00,1.000000000000000000e+00,0.000000000000000000e+00,3.000000000000000000e+00,8.160000000000000000e+02,3.842351436614990234e-01,1.865103006362915039e+00,4.830707841726560869e-01,0.000000000000000000e+00,0.000000000000000000e+00,1.120000000000000000e+02
1.000000000000000000e+00,0.000000000000000000e+00,0.000000000000000000e+00,0.000000000000000000e+00,8.150000000000000000e+02,4.066650867462158203e-01,1.831647872924804688e+00,4.314822780137872460e-01,0.000000000000000000e+00,1.000000000000000000e+00,1.110000000000000000e+02
0.000000000000000000e+00,1.000000000000000000e+00,0.000000000000000000e+00,3.000000000000000000e+00,8.170000000000000000e+02,3.010580539703369141e-01,1.616614103317260742e+00,3.315705155610791377e-01,0.000000000000000000e+00,1.000000000000000000e+00,1.120000000000000000e+02
0.000000000000000000e+00,1.000000000000000000e+00,0.000000000000000000e+00,1.000000000000000000e+00,8.170000000000000000e+02,3.914299011230468750e-01,1.781166076660156250e+00,4.126972303110245099e-01,0.000000000000000000e+00,0.000000000000000000e+00,1.120000000000000000e+02
0.000000000000000000e+00,1.000000000000000000e+00,0.000000000000000000e+00,4.000000000000000000e+00,8.200000000000000000e+02,4.571750164031982422e-01,1.993237972259521484e+00,5.558258508865430159e-01,0.000000000000000000e+00,0.000000000000000000e+00,1.120000000000000000e+02
0.000000000000000000e+00,1.000000000000000000e+00,0.000000000000000000e+00,3.000000000000000000e+00,8.220000000000000000e+02,5.422670841217041016e-01,1.974676847457885742e+00,4.473080925761040993e-01,0.000000000000000000e+00,0.000000000000000000e+00,1.120000000000000000e+02
1.000000000000000000e+00,1.000000000000000000e+00,1.000000000000000000e+00,3.000000000000000000e+00,8.240000000000000000e+02,5.466511249542236328e-01,1.840328216552734375e+00,3.044806821185168655e-01,0.000000000000000000e+00,0.000000000000000000e+00,1.120000000000000000e+02
1.000000000000000000e+00,1.000000000000000000e+00,1.000000000000000000e+00,1.000000000000000000e+00,8.240000000000000000e+02,4.287419319152832031e-01,1.834161996841430664e+00,4.218879973150041485e-01,0.000000000000000000e+00,0.000000000000000000e+00,1.120000000000000000e+02
0.000000000000000000e+00,1.000000000000000000e+00,0.000000000000000000e+00,2.000000000000000000e+00,8.250000000000000000e+02,3.214538097381591797e-01,1.829170942306518555e+00,5.176767651443430207e-01,0.000000000000000000e+00,0.000000000000000000e+00,1.120000000000000000e+02
1.000000000000000000e+00,1.000000000000000000e+00,1.000000000000000000e+00,3.000000000000000000e+00,8.270000000000000000e+02,3.131780624389648438e-01,2.044832944869995117e+00,7.289408618195869494e-01,0.000000000000000000e+00,0.000000000000000000e+00,1.120000000000000000e+02
0.000000000000000000e+00,1.000000000000000000e+00,0.000000000000000000e+00,2.000000000000000000e+00,8.280000000000000000e+02,3.019061088562011719e-01,1.667056083679199219e+00,3.797687026237046015e-01,0.000000000000000000e+00,0.000000000000000000e+00,1.120000000000000000e+02
1.000000000000000000e+00,1.000000000000000000e+00,1.000000000000000000e+00,3.000000000000000000e+00,8.300000000000000000e+02,4.823241233825683594e-01,2.065728902816772461e+00,5.952765374780850660e-01,0.000000000000000000e+00,0.000000000000000000e+00,1.120000000000000000e+02
1.000000000000000000e+00,0.000000000000000000e+00,0.000000000000000000e+00,0.000000000000000000e+00,8.290000000000000000e+02,4.717080593109130859e-01,1.781901836395263672e+00,3.275084538515430355e-01,0.000000000000000000e+00,1.000000000000000000e+00,1.110000000000000000e+02
0.000000000000000000e+00,1.000000000000000000e+00,0.000000000000000000e+00,1.000000000000000000e+00,8.290000000000000000e+02,3.084421157836914062e-01,1.638590812683105469e+00,3.493935197471035314e-01,0.000000000000000000e+00,1.000000000000000000e+00,1.120000000000000000e+02
0.000000000000000000e+00,1.000000000000000000e+00,0.000000000000000000e+00,3.000000000000000000e+00,8.310000000000000000e+02,3.114740848541259766e-01,1.934917211532592773e+00,6.174523344212113907e-01,0.000000000000000000e+00,0.000000000000000000e+00,1.120000000000000000e+02
1.000000000000000000e+00,1.000000000000000000e+00,1.000000000000000000e+00,5.000000000000000000e+00,8.350000000000000000e+02,3.562819957733154297e-01,1.796917915344238281e+00,4.478904852408682191e-01,0.000000000000000000e+00,0.000000000000000000e+00,1.120000000000000000e+02
1.000000000000000000e+00,1.000000000000000000e+00,1.000000000000000000e+00,3.000000000000000000e+00,8.370000000000000000e+02,3.650529384613037109e-01,2.055081129074096680e+00,7.027242733533980434e-01,0.000000000000000000e+00,0.000000000000000000e+00,1.120000000000000000e+02
0.000000000000000000e+00,1.000000000000000000e+00,0.000000000000000000e+00,2.000000000000000000e+00,8.380000000000000000e+02,3.084809780120849609e-01,1.716286897659301758e+00,4.193472076791124881e-01,0.000000000000000000e+00,0.000000000000000000e+00,1.120000000000000000e+02
1.000000000000000000e+00,0.000000000000000000e+00,0.000000000000000000e+00,0.000000000000000000e+00,8.370000000000000000e+02,3.528568744659423828e-01,2.078162193298339844e+00,7.305457014025444895e-01,0.000000000000000000e+00,1.000000000000000000e+00,1.110000000000000000e+02
1.000000000000000000e+00,1.000000000000000000e+00,1.000000000000000000e+00,4.000000000000000000e+00,8.400000000000000000e+02,4.653160572052001953e-01,2.190644025802612305e+00,7.378250515816628941e-01,0.000000000000000000e+00,1.000000000000000000e+00,1.120000000000000000e+02
0.000000000000000000e+00,1.000000000000000000e+00,0.000000000000000000e+00,2.000000000000000000e+00,8.410000000000000000e+02,3.332419395446777344e-01,1.962176084518432617e+00,6.335011387596239940e-01,0.000000000000000000e+00,0.000000000000000000e+00,1.120000000000000000e+02
0.000000000000000000e+00,1.000000000000000000e+00,0.000000000000000000e+00,3.000000000000000000e+00,8.430000000000000000e+02,3.186650276184082031e-01,2.032181024551391602e+00,7.156384659162575712e-01,0.000000000000000000e+00,0.000000000000000000e+00,1.120000000000000000e+02
