choice, accuracy, solution,  reward, cumulative_reward, rt,  total_trial_time, iti, cp_with_slow_fast, obs_cp_with_slow_fast, high_val_cue
0.000000000000000000e+00,0.000000000000000000e+00,1.000000000000000000e+00,0.000000000000000000e+00,5.990000000000000000e+02,8.584480285644531250e-01,2.555738210678100586e+00,7.070481843736493577e-01,0.000000000000000000e+00,0.000000000000000000e+00,1.120000000000000000e+02
1.000000000000000000e+00,1.000000000000000000e+00,1.000000000000000000e+00,2.000000000000000000e+00,6.000000000000000000e+02,3.767070770263671875e-01,1.717981815338134766e+00,3.421587330381232750e-01,0.000000000000000000e+00,1.000000000000000000e+00,1.110000000000000000e+02
0.000000000000000000e+00,0.000000000000000000e+00,1.000000000000000000e+00,0.000000000000000000e+00,5.990000000000000000e+02,3.091268539428710938e-01,1.764208078384399414e+00,4.729461357944961253e-01,0.000000000000000000e+00,1.000000000000000000e+00,1.120000000000000000e+02
0.000000000000000000e+00,0.000000000000000000e+00,1.000000000000000000e+00,0.000000000000000000e+00,5.980000000000000000e+02,2.773511409759521484e-01,1.523125171661376953e+00,2.630106591778013647e-01,0.000000000000000000e+00,0.000000000000000000e+00,1.120000000000000000e+02
1.000000000000000000e+00,1.000000000000000000e+00,1.000000000000000000e+00,1.000000000000000000e+00,5.980000000000000000e+02,3.269071578979492188e-01,1.797240972518920898e+00,4.933752906376905889e-01,0.000000000000000000e+00,0.000000000000000000e+00,1.120000000000000000e+02
0.000000000000000000e+00,1.000000000000000000e+00,0.000000000000000000e+00,3.000000000000000000e+00,6.000000000000000000e+02,2.568919658660888672e-01,1.760665893554687500e+00,5.207185252627881678e-01,0.000000000000000000e+00,0.000000000000000000e+00,1.120000000000000000e+02
0.000000000000000000e+00,0.000000000000000000e+00,1.000000000000000000e+00,0.000000000000000000e+00,5.990000000000000000e+02,2.562720775604248047e-01,1.517942190170288086e+00,2.722956724074448998e-01,0.000000000000000000e+00,1.000000000000000000e+00,1.110000000000000000e+02
0.000000000000000000e+00,0.000000000000000000e+00,1.000000000000000000e+00,0.000000000000000000e+00,5.980000000000000000e+02,3.357150554656982422e-01,1.839720010757446289e+00,5.118128299466854214e-01,0.000000000000000000e+00,1.000000000000000000e+00,1.120000000000000000e+02
1.000000000000000000e+00,1.000000000000000000e+00,1.000000000000000000e+00,2.000000000000000000e+00,5.990000000000000000e+02,4.144780635833740234e-01,2.150000095367431641e+00,7.449435224504699082e-01,0.000000000000000000e+00,0.000000000000000000e+00,1.120000000000000000e+02
1.000000000000000000e+00,1.000000000000000000e+00,1.000000000000000000e+00,2.000000000000000000e+00,6.000000000000000000e+02,3.005390167236328125e-01,1.815230846405029297e+00,5.271408204130192399e-01,0.000000000000000000e+00,0.000000000000000000e+00,1.120000000000000000e+02
1.000000000000000000e+00,1.000000000000000000e+00,1.000000000000000000e+00,0.000000000000000000e+00,5.990000000000000000e+02,2.678749561309814453e-01,1.950887918472290039e+00,6.945919420578541281e-01,0.000000000000000000e+00,0.000000000000000000e+00,1.120000000000000000e+02
0.000000000000000000e+00,1.000000000000000000e+00,0.000000000000000000e+00,2.000000000000000000e+00,6.000000000000000000e+02,2.588858604431152344e-01,1.536768913269042969e+00,2.985017383452498452e-01,0.000000000000000000e+00,0.000000000000000000e+00,1.120000000000000000e+02
0.000000000000000000e+00,1.000000000000000000e+00,0.000000000000000000e+00,4.000000000000000000e+00,6.030000000000000000e+02,3.286440372467041016e-01,2.060773134231567383e+00,7.421915620843997363e-01,0.000000000000000000e+00,0.000000000000000000e+00,1.120000000000000000e+02
1.000000000000000000e+00,1.000000000000000000e+00,1.000000000000000000e+00,4.000000000000000000e+00,6.060000000000000000e+02,2.149939537048339844e-01,1.564498901367187500e+00,3.571295203626472237e-01,0.000000000000000000e+00,0.000000000000000000e+00,1.120000000000000000e+02
0.000000000000000000e+00,1.000000000000000000e+00,0.000000000000000000e+00,2.000000000000000000e+00,6.070000000000000000e+02,2.733860015869140625e-01,1.635380983352661133e+00,3.758663434869692344e-01,0.000000000000000000e+00,0.000000000000000000e+00,1.120000000000000000e+02
1.000000000000000000e+00,1.000000000000000000e+00,1.000000000000000000e+00,2.000000000000000000e+00,6.080000000000000000e+02,2.571668624877929688e-01,1.948137044906616211e+00,7.070383131160224988e-01,0.000000000000000000e+00,0.000000000000000000e+00,1.120000000000000000e+02
0.000000000000000000e+00,1.000000000000000000e+00,0.000000000000000000e+00,2.000000000000000000e+00,6.090000000000000000e+02,2.581961154937744141e-01,1.859549999237060547e+00,6.167546583954873762e-01,0.000000000000000000e+00,0.000000000000000000e+00,1.120000000000000000e+02
1.000000000000000000e+00,1.000000000000000000e+00,1.000000000000000000e+00,2.000000000000000000e+00,6.100000000000000000e+02,2.406520843505859375e-01,1.895634889602661133e+00,6.623916531655114071e-01,0.000000000000000000e+00,0.000000000000000000e+00,1.120000000000000000e+02
0.000000000000000000e+00,0.000000000000000000e+00,1.000000000000000000e+00,0.000000000000000000e+00,6.090000000000000000e+02,2.273259162902832031e-01,1.739233970642089844e+00,5.351100805362161150e-01,0.000000000000000000e+00,1.000000000000000000e+00,1.110000000000000000e+02
1.000000000000000000e+00,1.000000000000000000e+00,1.000000000000000000e+00,3.000000000000000000e+00,6.110000000000000000e+02,2.263829708099365234e-01,1.532346963882446289e+00,3.177418315233409563e-01,0.000000000000000000e+00,1.000000000000000000e+00,1.120000000000000000e+02
0.000000000000000000e+00,1.000000000000000000e+00,0.000000000000000000e+00,4.000000000000000000e+00,6.140000000000000000e+02,2.951359748840332031e-01,1.764381170272827148e+00,4.653617573782957706e-01,0.000000000000000000e+00,0.000000000000000000e+00,1.120000000000000000e+02
1.000000000000000000e+00,0.000000000000000000e+00,0.000000000000000000e+00,0.000000000000000000e+00,6.130000000000000000e+02,2.525849342346191406e-01,1.715354919433593750e+00,4.640862614040169865e-01,0.000000000000000000e+00,1.000000000000000000e+00,1.110000000000000000e+02
0.000000000000000000e+00,0.000000000000000000e+00,1.000000000000000000e+00,0.000000000000000000e+00,6.120000000000000000e+02,2.315690517425537109e-01,1.517855167388916016e+00,2.988246176036926660e-01,0.000000000000000000e+00,0.000000000000000000e+00,1.110000000000000000e+02
1.000000000000000000e+00,1.000000000000000000e+00,1.000000000000000000e+00,2.000000000000000000e+00,6.130000000000000000e+02,6.560409069061279297e-01,2.111155986785888672e+00,4.765287445798438437e-01,0.000000000000000000e+00,0.000000000000000000e+00,1.110000000000000000e+02
0.000000000000000000e+00,1.000000000000000000e+00,0.000000000000000000e+00,4.000000000000000000e+00,6.160000000000000000e+02,2.414510250091552734e-01,1.646836996078491211e+00,4.234769296304427555e-01,1.000000000000000000e+00,0.000000000000000000e+00,1.110000000000000000e+02
1.000000000000000000e+00,1.000000000000000000e+00,1.000000000000000000e+00,3.000000000000000000e+00,6.180000000000000000e+02,2.705039978027343750e-01,1.972449064254760742e+00,7.123477825814572562e-01,0.000000000000000000e+00,0.000000000000000000e+00,1.110000000000000000e+02
0.000000000000000000e+00,1.000000000000000000e+00,0.000000000000000000e+00,3.000000000000000000e+00,6.200000000000000000e+02,2.778580188751220703e-01,1.993476152420043945e+00,7.392175358304697852e-01,0.000000000000000000e+00,0.000000000000000000e+00,1.110000000000000000e+02
1.000000000000000000e+00,1.000000000000000000e+00,1.000000000000000000e+00,3.000000000000000000e+00,6.220000000000000000e+02,2.689077854156494141e-01,1.869436979293823242e+00,6.088204880240186689e-01,0.000000000000000000e+00,0.000000000000000000e+00,1.110000000000000000e+02
0.000000000000000000e+00,1.000000000000000000e+00,0.000000000000000000e+00,3.000000000000000000e+00,6.240000000000000000e+02,2.515079975128173828e-01,1.728583097457885742e+00,4.876005918781337045e-01,0.000000000000000000e+00,0.000000000000000000e+00,1.110000000000000000e+02
0.000000000000000000e+00,1.000000000000000000e+00,0.000000000000000000e+00,4.000000000000000000e+00,6.270000000000000000e+02,2.701900005340576172e-01,1.691874980926513672e+00,4.295620556683693581e-01,0.000000000000000000e+00,0.000000000000000000e+00,1.110000000000000000e+02
0.000000000000000000e+00,1.000000000000000000e+00,0.000000000000000000e+00,3.000000000000000000e+00,6.290000000000000000e+02,2.559139728546142578e-01,1.932657003402709961e+00,6.953775035187084175e-01,0.000000000000000000e+00,0.000000000000000000e+00,1.110000000000000000e+02
1.000000000000000000e+00,1.000000000000000000e+00,1.000000000000000000e+00,3.000000000000000000e+00,6.310000000000000000e+02,2.225918769836425781e-01,1.698274850845336914e+00,4.938988655061327671e-01,0.000000000000000000e+00,0.000000000000000000e+00,1.110000000000000000e+02
1.000000000000000000e+00,1.000000000000000000e+00,1.000000000000000000e+00,4.000000000000000000e+00,6.340000000000000000e+02,2.796468734741210938e-01,1.801664113998413086e+00,5.289281795467644098e-01,0.000000000000000000e+00,0.000000000000000000e+00,1.110000000000000000e+02
1.000000000000000000e+00,0.000000000000000000e+00,0.000000000000000000e+00,0.000000000000000000e+00,6.330000000000000000e+02,3.236880302429199219e-01,1.823614120483398438e+00,5.192408115959639137e-01,0.000000000000000000e+00,1.000000000000000000e+00,1.120000000000000000e+02
1.000000000000000000e+00,0.000000000000000000e+00,0.000000000000000000e+00,0.000000000000000000e+00,6.320000000000000000e+02,3.584690093994140625e-01,1.705799818038940430e+00,3.585687858505828274e-01,0.000000000000000000e+00,0.000000000000000000e+00,1.120000000000000000e+02
1.000000000000000000e+00,0.000000000000000000e+00,0.000000000000000000e+00,0.000000000000000000e+00,6.310000000000000000e+02,3.424830436706542969e-01,2.033940076828002930e+00,7.088053934103655251e-01,0.000000000000000000e+00,1.000000000000000000e+00,1.110000000000000000e+02
0.000000000000000000e+00,1.000000000000000000e+00,0.000000000000000000e+00,4.000000000000000000e+00,6.340000000000000000e+02,2.761890888214111328e-01,1.849025964736938477e+00,5.913620675240426339e-01,0.000000000000000000e+00,1.000000000000000000e+00,1.120000000000000000e+02
1.000000000000000000e+00,1.000000000000000000e+00,1.000000000000000000e+00,2.000000000000000000e+00,6.350000000000000000e+02,2.991490364074707031e-01,1.905503034591674805e+00,6.135651423047766562e-01,1.000000000000000000e+00,0.000000000000000000e+00,1.120000000000000000e+02
1.000000000000000000e+00,1.000000000000000000e+00,1.000000000000000000e+00,2.000000000000000000e+00,6.360000000000000000e+02,2.513098716735839844e-01,1.850191116333007812e+00,6.138408566545088263e-01,0.000000000000000000e+00,0.000000000000000000e+00,1.120000000000000000e+02
0.000000000000000000e+00,1.000000000000000000e+00,0.000000000000000000e+00,0.000000000000000000e+00,6.350000000000000000e+02,2.973830699920654297e-01,1.640172004699707031e+00,3.543181941277311897e-01,0.000000000000000000e+00,0.000000000000000000e+00,1.120000000000000000e+02
0.000000000000000000e+00,1.000000000000000000e+00,0.000000000000000000e+00,3.000000000000000000e+00,6.370000000000000000e+02,2.615759372711181641e-01,1.675120115280151367e+00,4.127505333764301398e-01,0.000000000000000000e+00,0.000000000000000000e+00,1.120000000000000000e+02
0.000000000000000000e+00,0.000000000000000000e+00,1.000000000000000000e+00,0.000000000000000000e+00,6.360000000000000000e+02,2.358479499816894531e-01,1.480272054672241211e+00,2.599158749729947870e-01,0.000000000000000000e+00,1.000000000000000000e+00,1.110000000000000000e+02
1.000000000000000000e+00,0.000000000000000000e+00,0.000000000000000000e+00,0.000000000000000000e+00,6.350000000000000000e+02,4.365799427032470703e-01,1.836374044418334961e+00,4.128384864728579240e-01,0.000000000000000000e+00,1.000000000000000000e+00,1.120000000000000000e+02
0.000000000000000000e+00,0.000000000000000000e+00,1.000000000000000000e+00,0.000000000000000000e+00,6.340000000000000000e+02,2.722737789154052734e-01,1.649049997329711914e+00,3.952944130160432890e-01,0.000000000000000000e+00,0.000000000000000000e+00,1.120000000000000000e+02
1.000000000000000000e+00,1.000000000000000000e+00,1.000000000000000000e+00,3.000000000000000000e+00,6.360000000000000000e+02,5.803730487823486328e-01,1.872400999069213867e+00,3.011770937704210116e-01,0.000000000000000000e+00,0.000000000000000000e+00,1.120000000000000000e+02
0.000000000000000000e+00,1.000000000000000000e+00,0.000000000000000000e+00,2.000000000000000000e+00,6.370000000000000000e+02,3.281009197235107422e-01,1.814676046371459961e+00,4.990235489445188910e-01,0.000000000000000000e+00,0.000000000000000000e+00,1.120000000000000000e+02
1.000000000000000000e+00,1.000000000000000000e+00,1.000000000000000000e+00,1.000000000000000000e+00,6.370000000000000000e+02,2.444739341735839844e-01,1.853098869323730469e+00,6.187796385794628318e-01,0.000000000000000000e+00,0.000000000000000000e+00,1.120000000000000000e+02
0.000000000000000000e+00,1.000000000000000000e+00,0.000000000000000000e+00,2.000000000000000000e+00,6.380000000000000000e+02,2.415678501129150391e-01,1.717047214508056641e+00,4.859427853737717240e-01,0.000000000000000000e+00,0.000000000000000000e+00,1.120000000000000000e+02
0.000000000000000000e+00,1.000000000000000000e+00,0.000000000000000000e+00,3.000000000000000000e+00,6.400000000000000000e+02,2.309491634368896484e-01,1.935204982757568359e+00,7.042828407597153673e-01,0.000000000000000000e+00,0.000000000000000000e+00,1.120000000000000000e+02
1.000000000000000000e+00,0.000000000000000000e+00,0.000000000000000000e+00,0.000000000000000000e+00,6.390000000000000000e+02,2.186710834503173828e-01,1.946548938751220703e+00,7.342482220797813541e-01,0.000000000000000000e+00,0.000000000000000000e+00,1.120000000000000000e+02
1.000000000000000000e+00,1.000000000000000000e+00,1.000000000000000000e+00,4.000000000000000000e+00,6.420000000000000000e+02,2.607471942901611328e-01,1.740531921386718750e+00,4.917376970922360258e-01,0.000000000000000000e+00,0.000000000000000000e+00,1.120000000000000000e+02
0.000000000000000000e+00,0.000000000000000000e+00,1.000000000000000000e+00,0.000000000000000000e+00,6.410000000000000000e+02,3.895609378814697266e-01,2.021251916885375977e+00,6.461930684459116225e-01,0.000000000000000000e+00,0.000000000000000000e+00,1.120000000000000000e+02
0.000000000000000000e+00,1.000000000000000000e+00,0.000000000000000000e+00,2.000000000000000000e+00,6.420000000000000000e+02,2.798929214477539062e-01,1.718543052673339844e+00,4.483475997451711326e-01,0.000000000000000000e+00,0.000000000000000000e+00,1.120000000000000000e+02
1.000000000000000000e+00,1.000000000000000000e+00,1.000000000000000000e+00,2.000000000000000000e+00,6.430000000000000000e+02,2.812378406524658203e-01,1.697501897811889648e+00,4.292422851148813834e-01,0.000000000000000000e+00,0.000000000000000000e+00,1.120000000000000000e+02
1.000000000000000000e+00,0.000000000000000000e+00,0.000000000000000000e+00,0.000000000000000000e+00,6.420000000000000000e+02,3.363311290740966797e-01,2.058017969131469727e+00,7.369452838161161257e-01,0.000000000000000000e+00,0.000000000000000000e+00,1.120000000000000000e+02
1.000000000000000000e+00,1.000000000000000000e+00,1.000000000000000000e+00,3.000000000000000000e+00,6.440000000000000000e+02,1.947500705718994141e-01,1.823741912841796875e+00,6.275729097064989270e-01,0.000000000000000000e+00,1.000000000000000000e+00,1.110000000000000000e+02
1.000000000000000000e+00,1.000000000000000000e+00,1.000000000000000000e+00,1.000000000000000000e+00,6.440000000000000000e+02,2.901611328125000000e-01,1.638755083084106445e+00,3.665978202439553746e-01,0.000000000000000000e+00,0.000000000000000000e+00,1.110000000000000000e+02
1.000000000000000000e+00,1.000000000000000000e+00,1.000000000000000000e+00,2.000000000000000000e+00,6.450000000000000000e+02,2.631959915161132812e-01,1.702193021774291992e+00,4.354567284534297533e-01,1.000000000000000000e+00,0.000000000000000000e+00,1.110000000000000000e+02
1.000000000000000000e+00,1.000000000000000000e+00,1.000000000000000000e+00,1.000000000000000000e+00,6.450000000000000000e+02,2.532598972320556641e-01,1.895272970199584961e+00,6.472700078620703401e-01,0.000000000000000000e+00,0.000000000000000000e+00,1.110000000000000000e+02
1.000000000000000000e+00,1.000000000000000000e+00,1.000000000000000000e+00,2.000000000000000000e+00,6.460000000000000000e+02,2.949929237365722656e-01,1.670254945755004883e+00,3.845004825713341234e-01,0.000000000000000000e+00,0.000000000000000000e+00,1.110000000000000000e+02
1.000000000000000000e+00,0.000000000000000000e+00,0.000000000000000000e+00,0.000000000000000000e+00,6.450000000000000000e+02,2.706511020660400391e-01,1.762428998947143555e+00,4.968563632186908663e-01,0.000000000000000000e+00,1.000000000000000000e+00,1.120000000000000000e+02
0.000000000000000000e+00,1.000000000000000000e+00,0.000000000000000000e+00,1.000000000000000000e+00,6.450000000000000000e+02,5.127470493316650391e-01,2.175688982009887695e+00,6.894067098514499170e-01,0.000000000000000000e+00,1.000000000000000000e+00,1.110000000000000000e+02
1.000000000000000000e+00,0.000000000000000000e+00,0.000000000000000000e+00,0.000000000000000000e+00,6.440000000000000000e+02,3.024511337280273438e-01,1.938650846481323242e+00,6.445009725931531985e-01,0.000000000000000000e+00,0.000000000000000000e+00,1.110000000000000000e+02
0.000000000000000000e+00,0.000000000000000000e+00,1.000000000000000000e+00,0.000000000000000000e+00,6.430000000000000000e+02,2.501058578491210938e-01,1.945596218109130859e+00,7.067159553574720032e-01,0.000000000000000000e+00,0.000000000000000000e+00,1.110000000000000000e+02
1.000000000000000000e+00,0.000000000000000000e+00,0.000000000000000000e+00,0.000000000000000000e+00,6.420000000000000000e+02,2.832701206207275391e-01,1.719554901123046875e+00,4.433095300545898954e-01,0.000000000000000000e+00,0.000000000000000000e+00,1.110000000000000000e+02
1.000000000000000000e+00,0.000000000000000000e+00,0.000000000000000000e+00,0.000000000000000000e+00,6.410000000000000000e+02,2.577390670776367188e-01,1.753789186477661133e+00,5.137638774699098132e-01,0.000000000000000000e+00,0.000000000000000000e+00,1.110000000000000000e+02
0.000000000000000000e+00,0.000000000000000000e+00,1.000000000000000000e+00,0.000000000000000000e+00,6.400000000000000000e+02,2.698380947113037109e-01,1.519665956497192383e+00,2.670468867101953858e-01,0.000000000000000000e+00,0.000000000000000000e+00,1.110000000000000000e+02
0.000000000000000000e+00,0.000000000000000000e+00,1.000000000000000000e+00,0.000000000000000000e+00,6.390000000000000000e+02,3.096120357513427734e-01,1.634730100631713867e+00,3.350672563676795890e-01,0.000000000000000000e+00,0.000000000000000000e+00,1.110000000000000000e+02
1.000000000000000000e+00,1.000000000000000000e+00,1.000000000000000000e+00,2.000000000000000000e+00,6.400000000000000000e+02,2.802188396453857422e-01,1.681833028793334961e+00,4.001900551551320073e-01,0.000000000000000000e+00,1.000000000000000000e+00,1.120000000000000000e+02
0.000000000000000000e+00,1.000000000000000000e+00,0.000000000000000000e+00,1.000000000000000000e+00,6.400000000000000000e+02,2.680559158325195312e-01,1.667150020599365234e+00,4.007361901289570594e-01,1.000000000000000000e+00,0.000000000000000000e+00,1.120000000000000000e+02
1.000000000000000000e+00,1.000000000000000000e+00,1.000000000000000000e+00,2.000000000000000000e+00,6.410000000000000000e+02,2.933340072631835938e-01,1.896739006042480469e+00,6.138838683462879420e-01,0.000000000000000000e+00,0.000000000000000000e+00,1.120000000000000000e+02
0.000000000000000000e+00,1.000000000000000000e+00,0.000000000000000000e+00,4.000000000000000000e+00,6.440000000000000000e+02,2.250471115112304688e-01,1.745990037918090820e+00,5.434186284447064530e-01,0.000000000000000000e+00,0.000000000000000000e+00,1.120000000000000000e+02
0.000000000000000000e+00,1.000000000000000000e+00,0.000000000000000000e+00,4.000000000000000000e+00,6.470000000000000000e+02,2.560679912567138672e-01,1.534461021423339844e+00,2.948611047396462181e-01,0.000000000000000000e+00,0.000000000000000000e+00,1.120000000000000000e+02
1.000000000000000000e+00,1.000000000000000000e+00,1.000000000000000000e+00,3.000000000000000000e+00,6.490000000000000000e+02,2.968540191650390625e-01,1.607722043991088867e+00,3.192539737770799801e-01,0.000000000000000000e+00,0.000000000000000000e+00,1.120000000000000000e+02
0.000000000000000000e+00,1.000000000000000000e+00,0.000000000000000000e+00,0.000000000000000000e+00,6.480000000000000000e+02,2.352759838104248047e-01,1.882045984268188477e+00,6.510073274401932952e-01,0.000000000000000000e+00,0.000000000000000000e+00,1.120000000000000000e+02
1.000000000000000000e+00,1.000000000000000000e+00,1.000000000000000000e+00,2.000000000000000000e+00,6.490000000000000000e+02,2.499120235443115234e-01,1.872535943984985352e+00,6.236105192990426538e-01,0.000000000000000000e+00,0.000000000000000000e+00,1.120000000000000000e+02
0.000000000000000000e+00,0.000000000000000000e+00,1.000000000000000000e+00,0.000000000000000000e+00,6.480000000000000000e+02,4.573400020599365234e-01,2.017752170562744141e+00,5.748208860364478756e-01,0.000000000000000000e+00,1.000000000000000000e+00,1.110000000000000000e+02
0.000000000000000000e+00,1.000000000000000000e+00,0.000000000000000000e+00,2.000000000000000000e+00,6.490000000000000000e+02,3.078458309173583984e-01,2.016690015792846680e+00,7.247375070930897056e-01,0.000000000000000000e+00,0.000000000000000000e+00,1.110000000000000000e+02
0.000000000000000000e+00,1.000000000000000000e+00,0.000000000000000000e+00,4.000000000000000000e+00,6.520000000000000000e+02,2.771959304809570312e-01,1.836364984512329102e+00,5.779789695789901982e-01,0.000000000000000000e+00,0.000000000000000000e+00,1.110000000000000000e+02
1.000000000000000000e+00,1.000000000000000000e+00,1.000000000000000000e+00,5.000000000000000000e+00,6.560000000000000000e+02,2.868509292602539062e-01,1.818376064300537109e+00,5.464016348703274462e-01,0.000000000000000000e+00,0.000000000000000000e+00,1.110000000000000000e+02
0.000000000000000000e+00,0.000000000000000000e+00,1.000000000000000000e+00,0.000000000000000000e+00,6.550000000000000000e+02,2.193040847778320312e-01,1.706797838211059570e+00,5.033092158527533444e-01,0.000000000000000000e+00,1.000000000000000000e+00,1.120000000000000000e+02
0.000000000000000000e+00,0.000000000000000000e+00,1.000000000000000000e+00,0.000000000000000000e+00,6.540000000000000000e+02,2.626950740814208984e-01,1.940316915512084961e+00,6.768384483137313001e-01,0.000000000000000000e+00,0.000000000000000000e+00,1.120000000000000000e+02
1.000000000000000000e+00,1.000000000000000000e+00,1.000000000000000000e+00,3.000000000000000000e+00,6.560000000000000000e+02,2.544870376586914062e-01,1.679152011871337891e+00,4.396360863607540193e-01,0.000000000000000000e+00,1.000000000000000000e+00,1.110000000000000000e+02
1.000000000000000000e+00,0.000000000000000000e+00,0.000000000000000000e+00,0.000000000000000000e+00,6.550000000000000000e+02,3.143019676208496094e-01,1.609819173812866211e+00,2.996819717948013828e-01,0.000000000000000000e+00,1.000000000000000000e+00,1.120000000000000000e+02
0.000000000000000000e+00,1.000000000000000000e+00,0.000000000000000000e+00,4.000000000000000000e+00,6.580000000000000000e+02,3.325510025024414062e-01,2.009754896163940430e+00,6.757396754170128528e-01,0.000000000000000000e+00,1.000000000000000000e+00,1.110000000000000000e+02
0.000000000000000000e+00,1.000000000000000000e+00,0.000000000000000000e+00,2.000000000000000000e+00,6.590000000000000000e+02,2.485830783843994141e-01,1.720259189605712891e+00,4.795994565094726103e-01,0.000000000000000000e+00,0.000000000000000000e+00,1.110000000000000000e+02
1.000000000000000000e+00,1.000000000000000000e+00,1.000000000000000000e+00,2.000000000000000000e+00,6.600000000000000000e+02,2.749180793762207031e-01,1.869470834732055664e+00,6.156063327101610749e-01,0.000000000000000000e+00,0.000000000000000000e+00,1.110000000000000000e+02
0.000000000000000000e+00,0.000000000000000000e+00,1.000000000000000000e+00,0.000000000000000000e+00,6.590000000000000000e+02,2.727169990539550781e-01,1.680732011795043945e+00,4.132756805703576841e-01,0.000000000000000000e+00,1.000000000000000000e+00,1.120000000000000000e+02
0.000000000000000000e+00,1.000000000000000000e+00,0.000000000000000000e+00,5.000000000000000000e+00,6.630000000000000000e+02,2.431461811065673828e-01,1.527683019638061523e+00,3.077762053737551073e-01,1.000000000000000000e+00,1.000000000000000000e+00,1.110000000000000000e+02
0.000000000000000000e+00,1.000000000000000000e+00,0.000000000000000000e+00,5.000000000000000000e+00,6.670000000000000000e+02,2.878499031066894531e-01,2.021846055984497070e+00,7.464113850401888905e-01,0.000000000000000000e+00,0.000000000000000000e+00,1.110000000000000000e+02
0.000000000000000000e+00,1.000000000000000000e+00,0.000000000000000000e+00,2.000000000000000000e+00,6.680000000000000000e+02,2.752439975738525391e-01,1.771349191665649414e+00,5.175449125350602975e-01,0.000000000000000000e+00,0.000000000000000000e+00,1.110000000000000000e+02
0.000000000000000000e+00,1.000000000000000000e+00,0.000000000000000000e+00,2.000000000000000000e+00,6.690000000000000000e+02,2.600290775299072266e-01,1.681098937988281250e+00,4.321024747233675467e-01,0.000000000000000000e+00,0.000000000000000000e+00,1.110000000000000000e+02
1.000000000000000000e+00,0.000000000000000000e+00,0.000000000000000000e+00,0.000000000000000000e+00,6.680000000000000000e+02,3.000249862670898438e-01,1.607984066009521484e+00,2.902685733806566470e-01,0.000000000000000000e+00,1.000000000000000000e+00,1.120000000000000000e+02
1.000000000000000000e+00,1.000000000000000000e+00,1.000000000000000000e+00,0.000000000000000000e+00,6.670000000000000000e+02,3.307170867919921875e-01,1.617391824722290039e+00,2.909995263118024256e-01,0.000000000000000000e+00,1.000000000000000000e+00,1.110000000000000000e+02
0.000000000000000000e+00,0.000000000000000000e+00,1.000000000000000000e+00,0.000000000000000000e+00,6.660000000000000000e+02,2.891831398010253906e-01,1.552572011947631836e+00,2.770027358883553337e-01,0.000000000000000000e+00,0.000000000000000000e+00,1.110000000000000000e+02
1.000000000000000000e+00,0.000000000000000000e+00,0.000000000000000000e+00,0.000000000000000000e+00,6.650000000000000000e+02,2.672190666198730469e-01,1.643559932708740234e+00,3.871626838882047394e-01,0.000000000000000000e+00,0.000000000000000000e+00,1.110000000000000000e+02
1.000000000000000000e+00,0.000000000000000000e+00,0.000000000000000000e+00,0.000000000000000000e+00,6.640000000000000000e+02,2.942719459533691406e-01,1.831311941146850586e+00,5.516798139201042339e-01,0.000000000000000000e+00,1.000000000000000000e+00,1.120000000000000000e+02
1.000000000000000000e+00,0.000000000000000000e+00,0.000000000000000000e+00,0.000000000000000000e+00,6.630000000000000000e+02,2.420008182525634766e-01,1.689010143280029297e+00,4.575245009256115880e-01,0.000000000000000000e+00,0.000000000000000000e+00,1.120000000000000000e+02
0.000000000000000000e+00,1.000000000000000000e+00,0.000000000000000000e+00,2.000000000000000000e+00,6.640000000000000000e+02,2.948048114776611328e-01,1.814043045043945312e+00,5.215172797706684182e-01,0.000000000000000000e+00,1.000000000000000000e+00,1.110000000000000000e+02
0.000000000000000000e+00,1.000000000000000000e+00,0.000000000000000000e+00,2.000000000000000000e+00,6.650000000000000000e+02,2.611780166625976562e-01,1.716431856155395508e+00,4.713762641480345739e-01,0.000000000000000000e+00,0.000000000000000000e+00,1.110000000000000000e+02
1.000000000000000000e+00,1.000000000000000000e+00,1.000000000000000000e+00,2.000000000000000000e+00,6.660000000000000000e+02,2.625539302825927734e-01,1.510204076766967773e+00,2.652153394357235627e-01,0.000000000000000000e+00,0.000000000000000000e+00,1.110000000000000000e+02
0.000000000000000000e+00,1.000000000000000000e+00,0.000000000000000000e+00,2.000000000000000000e+00,6.670000000000000000e+02,2.605669498443603516e-01,1.685038089752197266e+00,4.500671783977940876e-01,0.000000000000000000e+00,0.000000000000000000e+00,1.110000000000000000e+02
1.000000000000000000e+00,1.000000000000000000e+00,1.000000000000000000e+00,3.000000000000000000e+00,6.690000000000000000e+02,2.657089233398437500e-01,1.828210115432739258e+00,5.616062730568903705e-01,0.000000000000000000e+00,0.000000000000000000e+00,1.110000000000000000e+02
0.000000000000000000e+00,0.000000000000000000e+00,1.000000000000000000e+00,0.000000000000000000e+00,6.680000000000000000e+02,2.460761070251464844e-01,1.644559860229492188e+00,4.063243757750968355e-01,1.000000000000000000e+00,1.000000000000000000e+00,1.120000000000000000e+02
0.000000000000000000e+00,0.000000000000000000e+00,1.000000000000000000e+00,0.000000000000000000e+00,6.670000000000000000e+02,2.770779132843017578e-01,1.783838987350463867e+00,5.234129928461681569e-01,0.000000000000000000e+00,0.000000000000000000e+00,1.120000000000000000e+02
1.000000000000000000e+00,1.000000000000000000e+00,1.000000000000000000e+00,2.000000000000000000e+00,6.680000000000000000e+02,2.818520069122314453e-01,1.600884199142456055e+00,3.245860164027323247e-01,0.000000000000000000e+00,0.000000000000000000e+00,1.120000000000000000e+02
0.000000000000000000e+00,1.000000000000000000e+00,0.000000000000000000e+00,3.000000000000000000e+00,6.700000000000000000e+02,4.109218120574951172e-01,2.001016855239868164e+00,6.086499342617567310e-01,0.000000000000000000e+00,0.000000000000000000e+00,1.120000000000000000e+02
0.000000000000000000e+00,1.000000000000000000e+00,0.000000000000000000e+00,4.000000000000000000e+00,6.730000000000000000e+02,2.409229278564453125e-01,1.668323993682861328e+00,4.438882541959588424e-01,0.000000000000000000e+00,0.000000000000000000e+00,1.120000000000000000e+02
0.000000000000000000e+00,1.000000000000000000e+00,0.000000000000000000e+00,1.000000000000000000e+00,6.730000000000000000e+02,2.622959613800048828e-01,1.977628946304321289e+00,7.212774177537628617e-01,0.000000000000000000e+00,0.000000000000000000e+00,1.120000000000000000e+02
0.000000000000000000e+00,0.000000000000000000e+00,1.000000000000000000e+00,0.000000000000000000e+00,6.720000000000000000e+02,2.280879020690917969e-01,1.739764928817749023e+00,5.113146977308757890e-01,0.000000000000000000e+00,1.000000000000000000e+00,1.110000000000000000e+02
1.000000000000000000e+00,1.000000000000000000e+00,1.000000000000000000e+00,3.000000000000000000e+00,6.740000000000000000e+02,2.708599567413330078e-01,1.680202007293701172e+00,4.249925588957045308e-01,0.000000000000000000e+00,1.000000000000000000e+00,1.120000000000000000e+02
0.000000000000000000e+00,1.000000000000000000e+00,0.000000000000000000e+00,4.000000000000000000e+00,6.770000000000000000e+02,2.195072174072265625e-01,1.604871034622192383e+00,3.965870714838434785e-01,0.000000000000000000e+00,0.000000000000000000e+00,1.120000000000000000e+02
0.000000000000000000e+00,1.000000000000000000e+00,0.000000000000000000e+00,2.000000000000000000e+00,6.780000000000000000e+02,2.355489730834960938e-01,1.844820022583007812e+00,6.245681180572979496e-01,0.000000000000000000e+00,0.000000000000000000e+00,1.120000000000000000e+02
0.000000000000000000e+00,0.000000000000000000e+00,1.000000000000000000e+00,0.000000000000000000e+00,6.770000000000000000e+02,2.407190799713134766e-01,1.631680011749267578e+00,4.064855444259548034e-01,0.000000000000000000e+00,1.000000000000000000e+00,1.110000000000000000e+02
0.000000000000000000e+00,1.000000000000000000e+00,0.000000000000000000e+00,3.000000000000000000e+00,6.790000000000000000e+02,2.593581676483154297e-01,1.737149953842163086e+00,4.936360519525880841e-01,0.000000000000000000e+00,1.000000000000000000e+00,1.120000000000000000e+02
1.000000000000000000e+00,0.000000000000000000e+00,0.000000000000000000e+00,0.000000000000000000e+00,6.780000000000000000e+02,2.680788040161132812e-01,1.881970882415771484e+00,6.255155460576735660e-01,0.000000000000000000e+00,0.000000000000000000e+00,1.120000000000000000e+02
0.000000000000000000e+00,1.000000000000000000e+00,0.000000000000000000e+00,2.000000000000000000e+00,6.790000000000000000e+02,2.428200244903564453e-01,1.613297939300537109e+00,3.890954396771888479e-01,0.000000000000000000e+00,1.000000000000000000e+00,1.110000000000000000e+02
1.000000000000000000e+00,1.000000000000000000e+00,1.000000000000000000e+00,2.000000000000000000e+00,6.800000000000000000e+02,2.762060165405273438e-01,1.736443042755126953e+00,4.755231670734431648e-01,1.000000000000000000e+00,0.000000000000000000e+00,1.110000000000000000e+02
0.000000000000000000e+00,1.000000000000000000e+00,0.000000000000000000e+00,3.000000000000000000e+00,6.820000000000000000e+02,2.619428634643554688e-01,1.715614080429077148e+00,4.578660041635272959e-01,0.000000000000000000e+00,1.000000000000000000e+00,1.120000000000000000e+02
1.000000000000000000e+00,1.000000000000000000e+00,1.000000000000000000e+00,1.000000000000000000e+00,6.820000000000000000e+02,2.623159885406494141e-01,1.750766992568969727e+00,4.919797431596623083e-01,0.000000000000000000e+00,0.000000000000000000e+00,1.120000000000000000e+02
0.000000000000000000e+00,0.000000000000000000e+00,1.000000000000000000e+00,0.000000000000000000e+00,6.810000000000000000e+02,2.594509124755859375e-01,1.854429006576538086e+00,6.130171667455541762e-01,0.000000000000000000e+00,1.000000000000000000e+00,1.110000000000000000e+02
1.000000000000000000e+00,0.000000000000000000e+00,0.000000000000000000e+00,0.000000000000000000e+00,6.800000000000000000e+02,2.954540252685546875e-01,1.971321105957031250e+00,7.009950510186853112e-01,0.000000000000000000e+00,0.000000000000000000e+00,1.110000000000000000e+02
0.000000000000000000e+00,0.000000000000000000e+00,1.000000000000000000e+00,0.000000000000000000e+00,6.790000000000000000e+02,2.592880725860595703e-01,1.929468870162963867e+00,6.805135811478372210e-01,0.000000000000000000e+00,0.000000000000000000e+00,1.110000000000000000e+02
0.000000000000000000e+00,1.000000000000000000e+00,0.000000000000000000e+00,2.000000000000000000e+00,6.800000000000000000e+02,2.655949592590332031e-01,1.845685005187988281e+00,5.929546928975670816e-01,0.000000000000000000e+00,0.000000000000000000e+00,1.110000000000000000e+02
1.000000000000000000e+00,1.000000000000000000e+00,1.000000000000000000e+00,3.000000000000000000e+00,6.820000000000000000e+02,2.696681022644042969e-01,1.954511880874633789e+00,6.974023672998221901e-01,0.000000000000000000e+00,0.000000000000000000e+00,1.110000000000000000e+02
1.000000000000000000e+00,1.000000000000000000e+00,1.000000000000000000e+00,1.000000000000000000e+00,6.820000000000000000e+02,2.767450809478759766e-01,1.784269094467163086e+00,5.319525324534384314e-01,0.000000000000000000e+00,0.000000000000000000e+00,1.110000000000000000e+02
0.000000000000000000e+00,1.000000000000000000e+00,0.000000000000000000e+00,2.000000000000000000e+00,6.830000000000000000e+02,2.745139598846435547e-01,1.582266807556152344e+00,3.311610984935777213e-01,0.000000000000000000e+00,0.000000000000000000e+00,1.110000000000000000e+02
1.000000000000000000e+00,1.000000000000000000e+00,1.000000000000000000e+00,1.000000000000000000e+00,6.830000000000000000e+02,2.631270885467529297e-01,1.784479856491088867e+00,5.320899512718045843e-01,0.000000000000000000e+00,0.000000000000000000e+00,1.110000000000000000e+02
0.000000000000000000e+00,1.000000000000000000e+00,0.000000000000000000e+00,1.000000000000000000e+00,6.830000000000000000e+02,2.602360248565673828e-01,1.900878190994262695e+00,6.497406626848156730e-01,0.000000000000000000e+00,0.000000000000000000e+00,1.110000000000000000e+02
1.000000000000000000e+00,1.000000000000000000e+00,1.000000000000000000e+00,3.000000000000000000e+00,6.850000000000000000e+02,2.592799663543701172e-01,1.832557916641235352e+00,5.822583336303002177e-01,0.000000000000000000e+00,0.000000000000000000e+00,1.110000000000000000e+02
0.000000000000000000e+00,1.000000000000000000e+00,0.000000000000000000e+00,1.000000000000000000e+00,6.850000000000000000e+02,2.871870994567871094e-01,1.861557006835937500e+00,5.772002552205610648e-01,0.000000000000000000e+00,0.000000000000000000e+00,1.110000000000000000e+02
1.000000000000000000e+00,0.000000000000000000e+00,0.000000000000000000e+00,0.000000000000000000e+00,6.840000000000000000e+02,2.181160449981689453e-01,1.733772993087768555e+00,5.277755949302784799e-01,0.000000000000000000e+00,1.000000000000000000e+00,1.120000000000000000e+02
0.000000000000000000e+00,1.000000000000000000e+00,0.000000000000000000e+00,2.000000000000000000e+00,6.850000000000000000e+02,2.688241004943847656e-01,1.851532936096191406e+00,5.959380321119588375e-01,0.000000000000000000e+00,1.000000000000000000e+00,1.110000000000000000e+02
1.000000000000000000e+00,1.000000000000000000e+00,1.000000000000000000e+00,3.000000000000000000e+00,6.870000000000000000e+02,2.478671073913574219e-01,1.785018920898437500e+00,5.476970536110155052e-01,0.000000000000000000e+00,0.000000000000000000e+00,1.110000000000000000e+02
0.000000000000000000e+00,1.000000000000000000e+00,0.000000000000000000e+00,1.000000000000000000e+00,6.870000000000000000e+02,2.136490345001220703e-01,1.833111047744750977e+00,6.308182260139778563e-01,0.000000000000000000e+00,0.000000000000000000e+00,1.110000000000000000e+02
0.000000000000000000e+00,1.000000000000000000e+00,0.000000000000000000e+00,3.000000000000000000e+00,6.890000000000000000e+02,2.633490562438964844e-01,1.988294124603271484e+00,7.356724164249199838e-01,0.000000000000000000e+00,0.000000000000000000e+00,1.110000000000000000e+02
0.000000000000000000e+00,1.000000000000000000e+00,0.000000000000000000e+00,2.000000000000000000e+00,6.900000000000000000e+02,3.003880977630615234e-01,1.987612009048461914e+00,6.900519117688803661e-01,0.000000000000000000e+00,0.000000000000000000e+00,1.110000000000000000e+02
0.000000000000000000e+00,1.000000000000000000e+00,0.000000000000000000e+00,4.000000000000000000e+00,6.930000000000000000e+02,2.401101589202880859e-01,1.965645074844360352e+00,7.390728663453387526e-01,0.000000000000000000e+00,0.000000000000000000e+00,1.110000000000000000e+02
0.000000000000000000e+00,0.000000000000000000e+00,1.000000000000000000e+00,0.000000000000000000e+00,6.920000000000000000e+02,2.085669040679931641e-01,1.520556926727294922e+00,3.267582532018267760e-01,1.000000000000000000e+00,1.000000000000000000e+00,1.120000000000000000e+02
1.000000000000000000e+00,0.000000000000000000e+00,0.000000000000000000e+00,0.000000000000000000e+00,6.910000000000000000e+02,3.919479846954345703e-01,1.953772068023681641e+00,5.803313252900281771e-01,0.000000000000000000e+00,0.000000000000000000e+00,1.120000000000000000e+02
0.000000000000000000e+00,1.000000000000000000e+00,0.000000000000000000e+00,2.000000000000000000e+00,6.920000000000000000e+02,2.709810733795166016e-01,1.908446073532104492e+00,6.554323444550664846e-01,0.000000000000000000e+00,0.000000000000000000e+00,1.120000000000000000e+02
1.000000000000000000e+00,1.000000000000000000e+00,1.000000000000000000e+00,2.000000000000000000e+00,6.930000000000000000e+02,2.573950290679931641e-01,1.574006080627441406e+00,3.298105138871649245e-01,0.000000000000000000e+00,0.000000000000000000e+00,1.120000000000000000e+02
1.000000000000000000e+00,0.000000000000000000e+00,0.000000000000000000e+00,0.000000000000000000e+00,6.920000000000000000e+02,3.397750854492187500e-01,1.881210803985595703e+00,5.608316816838825325e-01,0.000000000000000000e+00,1.000000000000000000e+00,1.110000000000000000e+02
1.000000000000000000e+00,1.000000000000000000e+00,1.000000000000000000e+00,1.000000000000000000e+00,6.920000000000000000e+02,2.435119152069091797e-01,1.480430841445922852e+00,2.583007216831348929e-01,0.000000000000000000e+00,1.000000000000000000e+00,1.120000000000000000e+02
1.000000000000000000e+00,1.000000000000000000e+00,1.000000000000000000e+00,4.000000000000000000e+00,6.950000000000000000e+02,3.312740325927734375e-01,1.982543945312500000e+00,6.571149270773213313e-01,0.000000000000000000e+00,0.000000000000000000e+00,1.120000000000000000e+02
1.000000000000000000e+00,1.000000000000000000e+00,1.000000000000000000e+00,2.000000000000000000e+00,6.960000000000000000e+02,2.249910831451416016e-01,1.540332078933715820e+00,3.311911839004380576e-01,0.000000000000000000e+00,0.000000000000000000e+00,1.120000000000000000e+02
0.000000000000000000e+00,1.000000000000000000e+00,0.000000000000000000e+00,3.000000000000000000e+00,6.980000000000000000e+02,3.006970882415771484e-01,2.030788898468017578e+00,7.448994906915515912e-01,0.000000000000000000e+00,0.000000000000000000e+00,1.120000000000000000e+02
1.000000000000000000e+00,1.000000000000000000e+00,1.000000000000000000e+00,2.000000000000000000e+00,6.990000000000000000e+02,2.754070758819580078e-01,1.875303983688354492e+00,6.204015247988921011e-01,0.000000000000000000e+00,0.000000000000000000e+00,1.120000000000000000e+02
0.000000000000000000e+00,0.000000000000000000e+00,1.000000000000000000e+00,0.000000000000000000e+00,6.980000000000000000e+02,2.501180171966552734e-01,1.961075782775878906e+00,7.147867115115213998e-01,0.000000000000000000e+00,1.000000000000000000e+00,1.110000000000000000e+02
0.000000000000000000e+00,0.000000000000000000e+00,1.000000000000000000e+00,0.000000000000000000e+00,6.970000000000000000e+02,2.741770744323730469e-01,1.710017919540405273e+00,4.584682915871636788e-01,0.000000000000000000e+00,0.000000000000000000e+00,1.110000000000000000e+02
0.000000000000000000e+00,1.000000000000000000e+00,0.000000000000000000e+00,1.000000000000000000e+00,6.970000000000000000e+02,2.626359462738037109e-01,1.581099987030029297e+00,3.397120736676792485e-01,0.000000000000000000e+00,0.000000000000000000e+00,1.110000000000000000e+02
0.000000000000000000e+00,0.000000000000000000e+00,1.000000000000000000e+00,0.000000000000000000e+00,6.960000000000000000e+02,2.883839607238769531e-01,1.995161056518554688e+00,7.178644741527637763e-01,0.000000000000000000e+00,1.000000000000000000e+00,1.120000000000000000e+02
1.000000000000000000e+00,0.000000000000000000e+00,0.000000000000000000e+00,0.000000000000000000e+00,6.950000000000000000e+02,2.793800830841064453e-01,1.947420120239257812e+00,6.654127834806757846e-01,0.000000000000000000e+00,0.000000000000000000e+00,1.120000000000000000e+02
0.000000000000000000e+00,0.000000000000000000e+00,1.000000000000000000e+00,0.000000000000000000e+00,6.940000000000000000e+02,2.525098323822021484e-01,1.968493938446044922e+00,7.172199895853490492e-01,0.000000000000000000e+00,1.000000000000000000e+00,1.110000000000000000e+02
1.000000000000000000e+00,1.000000000000000000e+00,1.000000000000000000e+00,4.000000000000000000e+00,6.970000000000000000e+02,2.959079742431640625e-01,1.704289913177490234e+00,4.052302316221207401e-01,0.000000000000000000e+00,1.000000000000000000e+00,1.120000000000000000e+02
1.000000000000000000e+00,1.000000000000000000e+00,1.000000000000000000e+00,3.000000000000000000e+00,6.990000000000000000e+02,2.999780178070068359e-01,1.935043096542358398e+00,6.401225531342362718e-01,0.000000000000000000e+00,0.000000000000000000e+00,1.120000000000000000e+02
1.000000000000000000e+00,1.000000000000000000e+00,1.000000000000000000e+00,3.000000000000000000e+00,7.010000000000000000e+02,2.427031993865966797e-01,1.498811006546020508e+00,2.726523072655124280e-01,1.000000000000000000e+00,0.000000000000000000e+00,1.120000000000000000e+02
1.000000000000000000e+00,0.000000000000000000e+00,0.000000000000000000e+00,0.000000000000000000e+00,7.000000000000000000e+02,3.077151775360107422e-01,1.678834915161132812e+00,3.847677122830538976e-01,0.000000000000000000e+00,1.000000000000000000e+00,1.110000000000000000e+02
0.000000000000000000e+00,0.000000000000000000e+00,1.000000000000000000e+00,0.000000000000000000e+00,6.990000000000000000e+02,2.994618415832519531e-01,1.618745803833007812e+00,3.202825761790395465e-01,0.000000000000000000e+00,0.000000000000000000e+00,1.110000000000000000e+02
1.000000000000000000e+00,1.000000000000000000e+00,1.000000000000000000e+00,3.000000000000000000e+00,7.010000000000000000e+02,3.228540420532226562e-01,1.846961021423339844e+00,5.337150779090125141e-01,0.000000000000000000e+00,0.000000000000000000e+00,1.110000000000000000e+02
0.000000000000000000e+00,1.000000000000000000e+00,0.000000000000000000e+00,5.000000000000000000e+00,7.050000000000000000e+02,2.709479331970214844e-01,1.600534915924072266e+00,3.345252770027574152e-01,0.000000000000000000e+00,0.000000000000000000e+00,1.110000000000000000e+02
0.000000000000000000e+00,1.000000000000000000e+00,0.000000000000000000e+00,4.000000000000000000e+00,7.080000000000000000e+02,2.799260616302490234e-01,1.689682960510253906e+00,4.074972998740171715e-01,0.000000000000000000e+00,0.000000000000000000e+00,1.110000000000000000e+02
1.000000000000000000e+00,1.000000000000000000e+00,1.000000000000000000e+00,4.000000000000000000e+00,7.110000000000000000e+02,2.716820240020751953e-01,1.888278007507324219e+00,6.289631628960704601e-01,0.000000000000000000e+00,0.000000000000000000e+00,1.110000000000000000e+02
0.000000000000000000e+00,1.000000000000000000e+00,0.000000000000000000e+00,2.000000000000000000e+00,7.120000000000000000e+02,2.864019870758056641e-01,1.657042980194091797e+00,3.862934142080910460e-01,0.000000000000000000e+00,0.000000000000000000e+00,1.110000000000000000e+02
1.000000000000000000e+00,1.000000000000000000e+00,1.000000000000000000e+00,3.000000000000000000e+00,7.140000000000000000e+02,2.198009490966796875e-01,1.960909843444824219e+00,7.468764822011861870e-01,0.000000000000000000e+00,0.000000000000000000e+00,1.110000000000000000e+02
1.000000000000000000e+00,0.000000000000000000e+00,0.000000000000000000e+00,0.000000000000000000e+00,7.130000000000000000e+02,3.428730964660644531e-01,2.066699028015136719e+00,7.469730877467288810e-01,0.000000000000000000e+00,1.000000000000000000e+00,1.120000000000000000e+02
0.000000000000000000e+00,1.000000000000000000e+00,0.000000000000000000e+00,2.000000000000000000e+00,7.140000000000000000e+02,2.952818870544433594e-01,1.928403139114379883e+00,6.421621425759144186e-01,0.000000000000000000e+00,1.000000000000000000e+00,1.110000000000000000e+02
0.000000000000000000e+00,1.000000000000000000e+00,0.000000000000000000e+00,2.000000000000000000e+00,7.150000000000000000e+02,2.630150318145751953e-01,1.603362083435058594e+00,3.625654621287341395e-01,0.000000000000000000e+00,0.000000000000000000e+00,1.110000000000000000e+02
0.000000000000000000e+00,0.000000000000000000e+00,1.000000000000000000e+00,0.000000000000000000e+00,7.140000000000000000e+02,2.820940017700195312e-01,1.925842046737670898e+00,6.548336774578317199e-01,0.000000000000000000e+00,1.000000000000000000e+00,1.120000000000000000e+02
1.000000000000000000e+00,1.000000000000000000e+00,1.000000000000000000e+00,3.000000000000000000e+00,7.160000000000000000e+02,3.558280467987060547e-01,1.753933906555175781e+00,4.090602621751782686e-01,0.000000000000000000e+00,1.000000000000000000e+00,1.110000000000000000e+02
1.000000000000000000e+00,1.000000000000000000e+00,1.000000000000000000e+00,2.000000000000000000e+00,7.170000000000000000e+02,2.727990150451660156e-01,1.693752050399780273e+00,4.361721993971177103e-01,0.000000000000000000e+00,0.000000000000000000e+00,1.110000000000000000e+02
0.000000000000000000e+00,1.000000000000000000e+00,0.000000000000000000e+00,5.000000000000000000e+00,7.210000000000000000e+02,2.608819007873535156e-01,1.746297121047973633e+00,4.991250262804911020e-01,0.000000000000000000e+00,0.000000000000000000e+00,1.110000000000000000e+02
0.000000000000000000e+00,0.000000000000000000e+00,1.000000000000000000e+00,0.000000000000000000e+00,7.200000000000000000e+02,3.058540821075439453e-01,1.747172832489013672e+00,4.463849970054685756e-01,0.000000000000000000e+00,1.000000000000000000e+00,1.120000000000000000e+02
1.000000000000000000e+00,1.000000000000000000e+00,1.000000000000000000e+00,0.000000000000000000e+00,7.190000000000000000e+02,2.476480007171630859e-01,1.725513935089111328e+00,4.885738132396578171e-01,0.000000000000000000e+00,1.000000000000000000e+00,1.110000000000000000e+02
0.000000000000000000e+00,1.000000000000000000e+00,0.000000000000000000e+00,2.000000000000000000e+00,7.200000000000000000e+02,2.834072113037109375e-01,1.822679996490478516e+00,5.445843751391645782e-01,0.000000000000000000e+00,0.000000000000000000e+00,1.110000000000000000e+02
1.000000000000000000e+00,1.000000000000000000e+00,1.000000000000000000e+00,1.000000000000000000e+00,7.200000000000000000e+02,2.847740650177001953e-01,1.522552967071533203e+00,2.508249233649868515e-01,0.000000000000000000e+00,0.000000000000000000e+00,1.110000000000000000e+02
0.000000000000000000e+00,1.000000000000000000e+00,0.000000000000000000e+00,3.000000000000000000e+00,7.220000000000000000e+02,2.814810276031494141e-01,1.945666074752807617e+00,6.627675339182359515e-01,1.000000000000000000e+00,0.000000000000000000e+00,1.110000000000000000e+02
1.000000000000000000e+00,0.000000000000000000e+00,0.000000000000000000e+00,0.000000000000000000e+00,7.210000000000000000e+02,2.771952152252197266e-01,1.964005947113037109e+00,7.101339010083429493e-01,0.000000000000000000e+00,1.000000000000000000e+00,1.120000000000000000e+02
1.000000000000000000e+00,0.000000000000000000e+00,0.000000000000000000e+00,0.000000000000000000e+00,7.200000000000000000e+02,3.086249828338623047e-01,1.544219017028808594e+00,2.548583280442042742e-01,0.000000000000000000e+00,0.000000000000000000e+00,1.120000000000000000e+02
0.000000000000000000e+00,1.000000000000000000e+00,0.000000000000000000e+00,3.000000000000000000e+00,7.220000000000000000e+02,2.757570743560791016e-01,1.654741048812866211e+00,3.927961972092302023e-01,0.000000000000000000e+00,0.000000000000000000e+00,1.120000000000000000e+02
0.000000000000000000e+00,1.000000000000000000e+00,0.000000000000000000e+00,2.000000000000000000e+00,7.230000000000000000e+02,2.128381729125976562e-01,1.462208032608032227e+00,2.552154813319509330e-01,0.000000000000000000e+00,0.000000000000000000e+00,1.120000000000000000e+02
1.000000000000000000e+00,0.000000000000000000e+00,0.000000000000000000e+00,0.000000000000000000e+00,7.220000000000000000e+02,2.821509838104248047e-01,1.755254983901977539e+00,4.769579314570745465e-01,0.000000000000000000e+00,1.000000000000000000e+00,1.110000000000000000e+02
0.000000000000000000e+00,1.000000000000000000e+00,0.000000000000000000e+00,2.000000000000000000e+00,7.230000000000000000e+02,2.452960014343261719e-01,1.799411058425903320e+00,5.596623343705244835e-01,0.000000000000000000e+00,1.000000000000000000e+00,1.120000000000000000e+02
1.000000000000000000e+00,1.000000000000000000e+00,1.000000000000000000e+00,4.000000000000000000e+00,7.260000000000000000e+02,2.792689800262451172e-01,1.594463109970092773e+00,3.210729453831251967e-01,0.000000000000000000e+00,0.000000000000000000e+00,1.120000000000000000e+02
1.000000000000000000e+00,0.000000000000000000e+00,0.000000000000000000e+00,0.000000000000000000e+00,7.250000000000000000e+02,2.574119567871093750e-01,1.762996912002563477e+00,5.172564924313944879e-01,0.000000000000000000e+00,1.000000000000000000e+00,1.110000000000000000e+02
0.000000000000000000e+00,1.000000000000000000e+00,0.000000000000000000e+00,2.000000000000000000e+00,7.260000000000000000e+02,2.536859512329101562e-01,1.742443084716796875e+00,4.932611763839300778e-01,0.000000000000000000e+00,1.000000000000000000e+00,1.120000000000000000e+02
1.000000000000000000e+00,1.000000000000000000e+00,1.000000000000000000e+00,1.000000000000000000e+00,7.260000000000000000e+02,2.464919090270996094e-01,1.552067995071411133e+00,3.121245963087099229e-01,0.000000000000000000e+00,0.000000000000000000e+00,1.120000000000000000e+02
0.000000000000000000e+00,1.000000000000000000e+00,0.000000000000000000e+00,3.000000000000000000e+00,7.280000000000000000e+02,2.624788284301757812e-01,1.784449100494384766e+00,5.296587167831041665e-01,0.000000000000000000e+00,0.000000000000000000e+00,1.120000000000000000e+02
1.000000000000000000e+00,0.000000000000000000e+00,0.000000000000000000e+00,0.000000000000000000e+00,7.270000000000000000e+02,2.161939144134521484e-01,1.692691087722778320e+00,4.891156555763875313e-01,1.000000000000000000e+00,1.000000000000000000e+00,1.110000000000000000e+02
1.000000000000000000e+00,0.000000000000000000e+00,0.000000000000000000e+00,0.000000000000000000e+00,7.260000000000000000e+02,2.612550258636474609e-01,1.520839929580688477e+00,2.769122446413375127e-01,0.000000000000000000e+00,0.000000000000000000e+00,1.110000000000000000e+02
0.000000000000000000e+00,1.000000000000000000e+00,0.000000000000000000e+00,1.000000000000000000e+00,7.260000000000000000e+02,2.696599960327148438e-01,1.678024053573608398e+00,4.215140590091617789e-01,0.000000000000000000e+00,0.000000000000000000e+00,1.110000000000000000e+02
1.000000000000000000e+00,1.000000000000000000e+00,1.000000000000000000e+00,3.000000000000000000e+00,7.280000000000000000e+02,2.634241580963134766e-01,1.666199922561645508e+00,4.044164277735995405e-01,0.000000000000000000e+00,0.000000000000000000e+00,1.110000000000000000e+02
0.000000000000000000e+00,0.000000000000000000e+00,1.000000000000000000e+00,0.000000000000000000e+00,7.270000000000000000e+02,2.697570323944091797e-01,1.979223012924194336e+00,7.167010248090173175e-01,0.000000000000000000e+00,1.000000000000000000e+00,1.120000000000000000e+02
1.000000000000000000e+00,1.000000000000000000e+00,1.000000000000000000e+00,4.000000000000000000e+00,7.300000000000000000e+02,2.174811363220214844e-01,1.891281127929687500e+00,6.747711585760736153e-01,0.000000000000000000e+00,1.000000000000000000e+00,1.110000000000000000e+02
0.000000000000000000e+00,1.000000000000000000e+00,0.000000000000000000e+00,2.000000000000000000e+00,7.310000000000000000e+02,2.292070388793945312e-01,1.798954010009765625e+00,5.738711661823840959e-01,0.000000000000000000e+00,0.000000000000000000e+00,1.110000000000000000e+02
1.000000000000000000e+00,1.000000000000000000e+00,1.000000000000000000e+00,1.000000000000000000e+00,7.310000000000000000e+02,2.353041172027587891e-01,1.839973926544189453e+00,6.138295224593266486e-01,0.000000000000000000e+00,0.000000000000000000e+00,1.110000000000000000e+02
1.000000000000000000e+00,0.000000000000000000e+00,0.000000000000000000e+00,0.000000000000000000e+00,7.300000000000000000e+02,2.810211181640625000e-01,1.938267946243286133e+00,6.687657628566577861e-01,0.000000000000000000e+00,1.000000000000000000e+00,1.120000000000000000e+02
1.000000000000000000e+00,1.000000000000000000e+00,1.000000000000000000e+00,4.000000000000000000e+00,7.330000000000000000e+02,2.730588912963867188e-01,1.819773912429809570e+00,5.553760120634599895e-01,0.000000000000000000e+00,1.000000000000000000e+00,1.110000000000000000e+02
1.000000000000000000e+00,0.000000000000000000e+00,0.000000000000000000e+00,0.000000000000000000e+00,7.320000000000000000e+02,2.346398830413818359e-01,1.594316005706787109e+00,3.666023716063231963e-01,0.000000000000000000e+00,1.000000000000000000e+00,1.120000000000000000e+02
1.000000000000000000e+00,1.000000000000000000e+00,1.000000000000000000e+00,3.000000000000000000e+00,7.340000000000000000e+02,2.345430850982666016e-01,1.882474899291992188e+00,6.488628916139352887e-01,0.000000000000000000e+00,1.000000000000000000e+00,1.110000000000000000e+02
0.000000000000000000e+00,1.000000000000000000e+00,0.000000000000000000e+00,2.000000000000000000e+00,7.350000000000000000e+02,3.293631076812744141e-01,1.997467994689941406e+00,6.630908930210268615e-01,0.000000000000000000e+00,0.000000000000000000e+00,1.110000000000000000e+02
1.000000000000000000e+00,0.000000000000000000e+00,0.000000000000000000e+00,0.000000000000000000e+00,7.340000000000000000e+02,2.150809764862060547e-01,1.919193983078002930e+00,7.155500483996319883e-01,0.000000000000000000e+00,1.000000000000000000e+00,1.120000000000000000e+02
0.000000000000000000e+00,1.000000000000000000e+00,0.000000000000000000e+00,2.000000000000000000e+00,7.350000000000000000e+02,2.728271484375000000e-01,1.972809076309204102e+00,7.051260059641931699e-01,1.000000000000000000e+00,1.000000000000000000e+00,1.110000000000000000e+02
0.000000000000000000e+00,0.000000000000000000e+00,1.000000000000000000e+00,0.000000000000000000e+00,7.340000000000000000e+02,2.872350215911865234e-01,1.739338159561157227e+00,4.613955512790967606e-01,0.000000000000000000e+00,1.000000000000000000e+00,1.120000000000000000e+02
1.000000000000000000e+00,0.000000000000000000e+00,0.000000000000000000e+00,0.000000000000000000e+00,7.330000000000000000e+02,3.189058303833007812e-01,1.737015962600708008e+00,4.318209845363146226e-01,0.000000000000000000e+00,0.000000000000000000e+00,1.120000000000000000e+02
1.000000000000000000e+00,1.000000000000000000e+00,1.000000000000000000e+00,2.000000000000000000e+00,7.340000000000000000e+02,3.566708564758300781e-01,1.996062994003295898e+00,6.610587200735559277e-01,0.000000000000000000e+00,0.000000000000000000e+00,1.120000000000000000e+02
1.000000000000000000e+00,1.000000000000000000e+00,1.000000000000000000e+00,1.000000000000000000e+00,7.340000000000000000e+02,2.367479801177978516e-01,1.670382022857666016e+00,4.483733492974650847e-01,0.000000000000000000e+00,0.000000000000000000e+00,1.120000000000000000e+02
0.000000000000000000e+00,1.000000000000000000e+00,0.000000000000000000e+00,3.000000000000000000e+00,7.360000000000000000e+02,3.311529159545898438e-01,1.941487073898315430e+00,6.230617308258100673e-01,0.000000000000000000e+00,0.000000000000000000e+00,1.120000000000000000e+02
1.000000000000000000e+00,1.000000000000000000e+00,1.000000000000000000e+00,4.000000000000000000e+00,7.390000000000000000e+02,2.263031005859375000e-01,1.926893949508666992e+00,7.165662484628816387e-01,0.000000000000000000e+00,0.000000000000000000e+00,1.120000000000000000e+02
1.000000000000000000e+00,1.000000000000000000e+00,1.000000000000000000e+00,4.000000000000000000e+00,7.420000000000000000e+02,2.378609180450439453e-01,1.672321081161499023e+00,4.392253436435298863e-01,0.000000000000000000e+00,0.000000000000000000e+00,1.120000000000000000e+02
0.000000000000000000e+00,0.000000000000000000e+00,1.000000000000000000e+00,0.000000000000000000e+00,7.410000000000000000e+02,2.743179798126220703e-01,1.827524900436401367e+00,5.666942978968091404e-01,0.000000000000000000e+00,1.000000000000000000e+00,1.110000000000000000e+02
0.000000000000000000e+00,0.000000000000000000e+00,1.000000000000000000e+00,0.000000000000000000e+00,7.400000000000000000e+02,2.500030994415283203e-01,1.932620048522949219e+00,6.825632547054165666e-01,0.000000000000000000e+00,0.000000000000000000e+00,1.110000000000000000e+02
0.000000000000000000e+00,1.000000000000000000e+00,0.000000000000000000e+00,3.000000000000000000e+00,7.420000000000000000e+02,2.958009243011474609e-01,1.872801065444946289e+00,5.722156704068837030e-01,0.000000000000000000e+00,0.000000000000000000e+00,1.110000000000000000e+02
1.000000000000000000e+00,0.000000000000000000e+00,0.000000000000000000e+00,0.000000000000000000e+00,7.410000000000000000e+02,2.662248611450195312e-01,1.580729007720947266e+00,3.199118919120091387e-01,0.000000000000000000e+00,1.000000000000000000e+00,1.120000000000000000e+02
1.000000000000000000e+00,1.000000000000000000e+00,1.000000000000000000e+00,3.000000000000000000e+00,7.430000000000000000e+02,3.039829730987548828e-01,1.889657020568847656e+00,5.926915228909883648e-01,0.000000000000000000e+00,1.000000000000000000e+00,1.110000000000000000e+02
0.000000000000000000e+00,0.000000000000000000e+00,1.000000000000000000e+00,0.000000000000000000e+00,7.420000000000000000e+02,2.737510204315185547e-01,1.559675931930541992e+00,3.026960824751440682e-01,0.000000000000000000e+00,1.000000000000000000e+00,1.120000000000000000e+02
0.000000000000000000e+00,0.000000000000000000e+00,1.000000000000000000e+00,0.000000000000000000e+00,7.410000000000000000e+02,4.660930633544921875e-01,1.974293947219848633e+00,5.101569591752754818e-01,0.000000000000000000e+00,0.000000000000000000e+00,1.120000000000000000e+02
1.000000000000000000e+00,0.000000000000000000e+00,0.000000000000000000e+00,0.000000000000000000e+00,7.400000000000000000e+02,2.863910198211669922e-01,1.788899898529052734e+00,5.157651613790943390e-01,0.000000000000000000e+00,0.000000000000000000e+00,1.120000000000000000e+02
0.000000000000000000e+00,1.000000000000000000e+00,0.000000000000000000e+00,2.000000000000000000e+00,7.410000000000000000e+02,2.845032215118408203e-01,1.884040117263793945e+00,5.997500618713522691e-01,1.000000000000000000e+00,0.000000000000000000e+00,1.120000000000000000e+02
1.000000000000000000e+00,0.000000000000000000e+00,0.000000000000000000e+00,0.000000000000000000e+00,7.400000000000000000e+02,3.022289276123046875e-01,1.593164920806884766e+00,2.933125891152378317e-01,0.000000000000000000e+00,1.000000000000000000e+00,1.110000000000000000e+02
0.000000000000000000e+00,0.000000000000000000e+00,1.000000000000000000e+00,0.000000000000000000e+00,7.390000000000000000e+02,2.879331111907958984e-01,1.705149888992309570e+00,4.316903054672543982e-01,0.000000000000000000e+00,0.000000000000000000e+00,1.110000000000000000e+02
0.000000000000000000e+00,1.000000000000000000e+00,0.000000000000000000e+00,3.000000000000000000e+00,7.410000000000000000e+02,3.590350151062011719e-01,1.653362035751342773e+00,3.185385175047212858e-01,0.000000000000000000e+00,0.000000000000000000e+00,1.110000000000000000e+02
1.000000000000000000e+00,1.000000000000000000e+00,1.000000000000000000e+00,3.000000000000000000e+00,7.430000000000000000e+02,3.424930572509765625e-01,1.781551122665405273e+00,4.500133105364739761e-01,0.000000000000000000e+00,0.000000000000000000e+00,1.110000000000000000e+02
0.000000000000000000e+00,1.000000000000000000e+00,0.000000000000000000e+00,5.000000000000000000e+00,7.470000000000000000e+02,2.731418609619140625e-01,1.951515913009643555e+00,6.846381856051859671e-01,0.000000000000000000e+00,0.000000000000000000e+00,1.110000000000000000e+02
1.000000000000000000e+00,1.000000000000000000e+00,1.000000000000000000e+00,3.000000000000000000e+00,7.490000000000000000e+02,2.692658901214599609e-01,1.892224073410034180e+00,6.270219036102127053e-01,0.000000000000000000e+00,0.000000000000000000e+00,1.110000000000000000e+02
1.000000000000000000e+00,1.000000000000000000e+00,1.000000000000000000e+00,4.000000000000000000e+00,7.520000000000000000e+02,2.689259052276611328e-01,1.658843994140625000e+00,4.027936287686123551e-01,0.000000000000000000e+00,0.000000000000000000e+00,1.110000000000000000e+02
1.000000000000000000e+00,1.000000000000000000e+00,1.000000000000000000e+00,5.000000000000000000e+00,7.560000000000000000e+02,2.493529319763183594e-01,1.797883987426757812e+00,5.505784190219924490e-01,0.000000000000000000e+00,0.000000000000000000e+00,1.110000000000000000e+02
0.000000000000000000e+00,1.000000000000000000e+00,0.000000000000000000e+00,2.000000000000000000e+00,7.570000000000000000e+02,2.634520530700683594e-01,1.850072145462036133e+00,5.839772635186972760e-01,0.000000000000000000e+00,0.000000000000000000e+00,1.110000000000000000e+02
1.000000000000000000e+00,0.000000000000000000e+00,0.000000000000000000e+00,0.000000000000000000e+00,7.560000000000000000e+02,2.644631862640380859e-01,1.569526910781860352e+00,3.038625153528041745e-01,0.000000000000000000e+00,1.000000000000000000e+00,1.120000000000000000e+02
0.000000000000000000e+00,0.000000000000000000e+00,1.000000000000000000e+00,0.000000000000000000e+00,7.550000000000000000e+02,3.218939304351806641e-01,1.650092124938964844e+00,3.372938588087041056e-01,0.000000000000000000e+00,0.000000000000000000e+00,1.120000000000000000e+02
1.000000000000000000e+00,0.000000000000000000e+00,0.000000000000000000e+00,0.000000000000000000e+00,7.540000000000000000e+02,3.058891296386718750e-01,1.940872907638549805e+00,6.445926325858797323e-01,0.000000000000000000e+00,1.000000000000000000e+00,1.110000000000000000e+02
0.000000000000000000e+00,1.000000000000000000e+00,0.000000000000000000e+00,3.000000000000000000e+00,7.560000000000000000e+02,2.476308345794677734e-01,1.887051105499267578e+00,6.483468243337233705e-01,1.000000000000000000e+00,1.000000000000000000e+00,1.120000000000000000e+02
1.000000000000000000e+00,1.000000000000000000e+00,1.000000000000000000e+00,3.000000000000000000e+00,7.580000000000000000e+02,2.633821964263916016e-01,1.965667963027954102e+00,7.140145823810561954e-01,0.000000000000000000e+00,0.000000000000000000e+00,1.120000000000000000e+02
0.000000000000000000e+00,1.000000000000000000e+00,0.000000000000000000e+00,2.000000000000000000e+00,7.590000000000000000e+02,2.558729648590087891e-01,1.938856124877929688e+00,7.029538556062278065e-01,0.000000000000000000e+00,0.000000000000000000e+00,1.120000000000000000e+02
0.000000000000000000e+00,1.000000000000000000e+00,0.000000000000000000e+00,2.000000000000000000e+00,7.600000000000000000e+02,2.448859214782714844e-01,1.887174844741821289e+00,6.568906292456486717e-01,0.000000000000000000e+00,0.000000000000000000e+00,1.120000000000000000e+02
0.000000000000000000e+00,1.000000000000000000e+00,0.000000000000000000e+00,1.000000000000000000e+00,7.600000000000000000e+02,2.636017799377441406e-01,1.705592155456542969e+00,4.460804719695985465e-01,0.000000000000000000e+00,0.000000000000000000e+00,1.120000000000000000e+02
0.000000000000000000e+00,0.000000000000000000e+00,1.000000000000000000e+00,0.000000000000000000e+00,7.590000000000000000e+02,3.616800308227539062e-01,1.983359098434448242e+00,6.459306818236933978e-01,0.000000000000000000e+00,0.000000000000000000e+00,1.120000000000000000e+02
1.000000000000000000e+00,1.000000000000000000e+00,1.000000000000000000e+00,3.000000000000000000e+00,7.610000000000000000e+02,3.835051059722900391e-01,1.680862903594970703e+00,3.105797704652440983e-01,0.000000000000000000e+00,1.000000000000000000e+00,1.110000000000000000e+02
1.000000000000000000e+00,0.000000000000000000e+00,0.000000000000000000e+00,0.000000000000000000e+00,7.600000000000000000e+02,3.941721916198730469e-01,2.041619062423706055e+00,6.519018866567246606e-01,0.000000000000000000e+00,1.000000000000000000e+00,1.120000000000000000e+02
0.000000000000000000e+00,0.000000000000000000e+00,1.000000000000000000e+00,0.000000000000000000e+00,7.590000000000000000e+02,3.442041873931884766e-01,1.993647098541259766e+00,6.622506863413598621e-01,0.000000000000000000e+00,0.000000000000000000e+00,1.120000000000000000e+02
0.000000000000000000e+00,0.000000000000000000e+00,1.000000000000000000e+00,0.000000000000000000e+00,7.580000000000000000e+02,2.451021671295166016e-01,1.955365896224975586e+00,7.175899763756092842e-01,0.000000000000000000e+00,1.000000000000000000e+00,1.110000000000000000e+02
0.000000000000000000e+00,1.000000000000000000e+00,0.000000000000000000e+00,2.000000000000000000e+00,7.590000000000000000e+02,2.443308830261230469e-01,1.969119071960449219e+00,7.367531950380807881e-01,0.000000000000000000e+00,1.000000000000000000e+00,1.120000000000000000e+02
1.000000000000000000e+00,1.000000000000000000e+00,1.000000000000000000e+00,1.000000000000000000e+00,7.590000000000000000e+02,2.987401485443115234e-01,1.772742986679077148e+00,4.764462047118562249e-01,0.000000000000000000e+00,0.000000000000000000e+00,1.120000000000000000e+02
0.000000000000000000e+00,1.000000000000000000e+00,0.000000000000000000e+00,4.000000000000000000e+00,7.620000000000000000e+02,2.751028537750244141e-01,1.569378137588500977e+00,3.127294696997661161e-01,0.000000000000000000e+00,0.000000000000000000e+00,1.120000000000000000e+02
1.000000000000000000e+00,1.000000000000000000e+00,1.000000000000000000e+00,3.000000000000000000e+00,7.640000000000000000e+02,2.585110664367675781e-01,1.568593978881835938e+00,3.313301413720883826e-01,0.000000000000000000e+00,0.000000000000000000e+00,1.120000000000000000e+02
1.000000000000000000e+00,1.000000000000000000e+00,1.000000000000000000e+00,2.000000000000000000e+00,7.650000000000000000e+02,2.619299888610839844e-01,1.851073026657104492e+00,5.988673140599027889e-01,0.000000000000000000e+00,0.000000000000000000e+00,1.120000000000000000e+02
0.000000000000000000e+00,1.000000000000000000e+00,0.000000000000000000e+00,1.000000000000000000e+00,7.650000000000000000e+02,2.743360996246337891e-01,1.964514970779418945e+00,6.966430633357427737e-01,0.000000000000000000e+00,0.000000000000000000e+00,1.120000000000000000e+02
0.000000000000000000e+00,1.000000000000000000e+00,0.000000000000000000e+00,2.000000000000000000e+00,7.660000000000000000e+02,2.623870372772216797e-01,1.641266107559204102e+00,3.882989124913240331e-01,0.000000000000000000e+00,0.000000000000000000e+00,1.120000000000000000e+02
0.000000000000000000e+00,0.000000000000000000e+00,1.000000000000000000e+00,0.000000000000000000e+00,7.650000000000000000e+02,2.664611339569091797e-01,1.707849979400634766e+00,4.461393961249794926e-01,1.000000000000000000e+00,1.000000000000000000e+00,1.110000000000000000e+02
1.000000000000000000e+00,0.000000000000000000e+00,0.000000000000000000e+00,0.000000000000000000e+00,7.640000000000000000e+02,2.874670028686523438e-01,1.721043109893798828e+00,4.505450243957765943e-01,0.000000000000000000e+00,0.000000000000000000e+00,1.110000000000000000e+02
0.000000000000000000e+00,1.000000000000000000e+00,0.000000000000000000e+00,2.000000000000000000e+00,7.650000000000000000e+02,2.581639289855957031e-01,1.733847856521606445e+00,4.844239117428489338e-01,0.000000000000000000e+00,0.000000000000000000e+00,1.110000000000000000e+02
1.000000000000000000e+00,1.000000000000000000e+00,1.000000000000000000e+00,2.000000000000000000e+00,7.660000000000000000e+02,4.029440879821777344e-01,1.993547916412353516e+00,5.945740355371633701e-01,0.000000000000000000e+00,0.000000000000000000e+00,1.110000000000000000e+02
0.000000000000000000e+00,1.000000000000000000e+00,0.000000000000000000e+00,3.000000000000000000e+00,7.680000000000000000e+02,2.316589355468750000e-01,1.768770933151245117e+00,5.467724768274996316e-01,0.000000000000000000e+00,0.000000000000000000e+00,1.110000000000000000e+02
1.000000000000000000e+00,0.000000000000000000e+00,0.000000000000000000e+00,0.000000000000000000e+00,7.670000000000000000e+02,5.930719375610351562e-01,2.208007097244262695e+00,6.380613432792302531e-01,0.000000000000000000e+00,0.000000000000000000e+00,1.110000000000000000e+02
1.000000000000000000e+00,1.000000000000000000e+00,1.000000000000000000e+00,2.000000000000000000e+00,7.680000000000000000e+02,2.116239070892333984e-01,1.606585025787353516e+00,3.949690636886304951e-01,0.000000000000000000e+00,1.000000000000000000e+00,1.120000000000000000e+02
0.000000000000000000e+00,1.000000000000000000e+00,0.000000000000000000e+00,4.000000000000000000e+00,7.710000000000000000e+02,2.845330238342285156e-01,1.535407066345214844e+00,2.638794091938876929e-01,0.000000000000000000e+00,0.000000000000000000e+00,1.120000000000000000e+02
0.000000000000000000e+00,1.000000000000000000e+00,0.000000000000000000e+00,3.000000000000000000e+00,7.730000000000000000e+02,3.482429981231689453e-01,2.059681892395019531e+00,7.231310160844390822e-01,0.000000000000000000e+00,0.000000000000000000e+00,1.120000000000000000e+02
0.000000000000000000e+00,0.000000000000000000e+00,1.000000000000000000e+00,0.000000000000000000e+00,7.720000000000000000e+02,2.706868648529052734e-01,1.581223964691162109e+00,3.214908684840468989e-01,0.000000000000000000e+00,1.000000000000000000e+00,1.110000000000000000e+02
0.000000000000000000e+00,1.000000000000000000e+00,0.000000000000000000e+00,2.000000000000000000e+00,7.730000000000000000e+02,5.783269405364990234e-01,2.222090959548950195e+00,6.435946426881840043e-01,0.000000000000000000e+00,0.000000000000000000e+00,1.110000000000000000e+02
0.000000000000000000e+00,1.000000000000000000e+00,0.000000000000000000e+00,3.000000000000000000e+00,7.750000000000000000e+02,2.748088836669921875e-01,1.553994894027709961e+00,2.976869119961645382e-01,0.000000000000000000e+00,0.000000000000000000e+00,1.110000000000000000e+02
1.000000000000000000e+00,0.000000000000000000e+00,0.000000000000000000e+00,0.000000000000000000e+00,7.740000000000000000e+02,3.198668956756591797e-01,1.747851133346557617e+00,4.454665970967566779e-01,0.000000000000000000e+00,1.000000000000000000e+00,1.120000000000000000e+02
0.000000000000000000e+00,1.000000000000000000e+00,0.000000000000000000e+00,1.000000000000000000e+00,7.740000000000000000e+02,3.069059848785400391e-01,1.932446002960205078e+00,6.443990479668182392e-01,1.000000000000000000e+00,1.000000000000000000e+00,1.110000000000000000e+02
1.000000000000000000e+00,0.000000000000000000e+00,0.000000000000000000e+00,0.000000000000000000e+00,7.730000000000000000e+02,2.396399974822998047e-01,1.542342185974121094e+00,3.204637814066907398e-01,0.000000000000000000e+00,1.000000000000000000e+00,1.120000000000000000e+02
1.000000000000000000e+00,1.000000000000000000e+00,1.000000000000000000e+00,2.000000000000000000e+00,7.740000000000000000e+02,2.796909809112548828e-01,1.797513961791992188e+00,5.178263422569748808e-01,0.000000000000000000e+00,1.000000000000000000e+00,1.110000000000000000e+02
1.000000000000000000e+00,0.000000000000000000e+00,0.000000000000000000e+00,0.000000000000000000e+00,7.730000000000000000e+02,2.697260379791259766e-01,1.943320989608764648e+00,6.777022696378617317e-01,0.000000000000000000e+00,1.000000000000000000e+00,1.120000000000000000e+02
1.000000000000000000e+00,0.000000000000000000e+00,0.000000000000000000e+00,0.000000000000000000e+00,7.720000000000000000e+02,2.404630184173583984e-01,1.782513141632080078e+00,5.603985504741628709e-01,0.000000000000000000e+00,0.000000000000000000e+00,1.120000000000000000e+02
1.000000000000000000e+00,1.000000000000000000e+00,1.000000000000000000e+00,2.000000000000000000e+00,7.730000000000000000e+02,2.851688861846923828e-01,1.925019025802612305e+00,6.520372529486946345e-01,0.000000000000000000e+00,0.000000000000000000e+00,1.120000000000000000e+02
1.000000000000000000e+00,1.000000000000000000e+00,1.000000000000000000e+00,3.000000000000000000e+00,7.750000000000000000e+02,2.709460258483886719e-01,1.534589052200317383e+00,2.704078770921210517e-01,0.000000000000000000e+00,0.000000000000000000e+00,1.120000000000000000e+02
0.000000000000000000e+00,1.000000000000000000e+00,0.000000000000000000e+00,4.000000000000000000e+00,7.780000000000000000e+02,4.526801109313964844e-01,2.068576812744140625e+00,6.219839661274799703e-01,0.000000000000000000e+00,0.000000000000000000e+00,1.120000000000000000e+02
0.000000000000000000e+00,1.000000000000000000e+00,0.000000000000000000e+00,1.000000000000000000e+00,7.780000000000000000e+02,2.780768871307373047e-01,1.894205093383789062e+00,6.329102778001753915e-01,0.000000000000000000e+00,0.000000000000000000e+00,1.120000000000000000e+02
0.000000000000000000e+00,1.000000000000000000e+00,0.000000000000000000e+00,1.000000000000000000e+00,7.780000000000000000e+02,2.781190872192382812e-01,1.707678079605102539e+00,4.408385013049229695e-01,0.000000000000000000e+00,0.000000000000000000e+00,1.120000000000000000e+02
1.000000000000000000e+00,1.000000000000000000e+00,1.000000000000000000e+00,2.000000000000000000e+00,7.790000000000000000e+02,3.191680908203125000e-01,1.954325914382934570e+00,6.450180040901274392e-01,0.000000000000000000e+00,0.000000000000000000e+00,1.120000000000000000e+02
1.000000000000000000e+00,1.000000000000000000e+00,1.000000000000000000e+00,1.000000000000000000e+00,7.790000000000000000e+02,3.083529472351074219e-01,1.606549978256225586e+00,3.186531381590014256e-01,0.000000000000000000e+00,0.000000000000000000e+00,1.120000000000000000e+02
0.000000000000000000e+00,0.000000000000000000e+00,1.000000000000000000e+00,0.000000000000000000e+00,7.780000000000000000e+02,2.546808719635009766e-01,1.890658855438232422e+00,6.423360005626763680e-01,0.000000000000000000e+00,1.000000000000000000e+00,1.110000000000000000e+02
0.000000000000000000e+00,0.000000000000000000e+00,1.000000000000000000e+00,0.000000000000000000e+00,7.770000000000000000e+02,3.591408729553222656e-01,2.039968013763427734e+00,6.989909764650958923e-01,0.000000000000000000e+00,0.000000000000000000e+00,1.110000000000000000e+02
1.000000000000000000e+00,1.000000000000000000e+00,1.000000000000000000e+00,4.000000000000000000e+00,7.800000000000000000e+02,2.905149459838867188e-01,2.030550003051757812e+00,7.462231267497714260e-01,0.000000000000000000e+00,1.000000000000000000e+00,1.120000000000000000e+02
1.000000000000000000e+00,1.000000000000000000e+00,1.000000000000000000e+00,2.000000000000000000e+00,7.810000000000000000e+02,3.039698600769042969e-01,1.978591918945312500e+00,6.915903960597926670e-01,0.000000000000000000e+00,0.000000000000000000e+00,1.120000000000000000e+02
1.000000000000000000e+00,1.000000000000000000e+00,1.000000000000000000e+00,3.000000000000000000e+00,7.830000000000000000e+02,2.386219501495361328e-01,1.546875953674316406e+00,3.222308856240145847e-01,0.000000000000000000e+00,0.000000000000000000e+00,1.120000000000000000e+02
0.000000000000000000e+00,0.000000000000000000e+00,1.000000000000000000e+00,0.000000000000000000e+00,7.820000000000000000e+02,2.986388206481933594e-01,1.957085847854614258e+00,6.623058136431131393e-01,0.000000000000000000e+00,1.000000000000000000e+00,1.110000000000000000e+02
1.000000000000000000e+00,0.000000000000000000e+00,0.000000000000000000e+00,0.000000000000000000e+00,7.810000000000000000e+02,1.917390823364257812e-01,1.920822143554687500e+00,7.497382053133976321e-01,0.000000000000000000e+00,0.000000000000000000e+00,1.110000000000000000e+02
0.000000000000000000e+00,1.000000000000000000e+00,0.000000000000000000e+00,3.000000000000000000e+00,7.830000000000000000e+02,2.394809722900390625e-01,1.771998882293701172e+00,5.387194189537776179e-01,0.000000000000000000e+00,1.000000000000000000e+00,1.120000000000000000e+02
1.000000000000000000e+00,0.000000000000000000e+00,0.000000000000000000e+00,0.000000000000000000e+00,7.820000000000000000e+02,2.487771511077880859e-01,1.610553979873657227e+00,3.661643717900910922e-01,0.000000000000000000e+00,1.000000000000000000e+00,1.110000000000000000e+02
0.000000000000000000e+00,1.000000000000000000e+00,0.000000000000000000e+00,4.000000000000000000e+00,7.850000000000000000e+02,3.042099475860595703e-01,1.977690935134887695e+00,6.769513491457567200e-01,0.000000000000000000e+00,1.000000000000000000e+00,1.120000000000000000e+02
0.000000000000000000e+00,0.000000000000000000e+00,1.000000000000000000e+00,0.000000000000000000e+00,7.840000000000000000e+02,2.557480335235595703e-01,1.837389945983886719e+00,5.978035216553783116e-01,0.000000000000000000e+00,1.000000000000000000e+00,1.110000000000000000e+02
1.000000000000000000e+00,0.000000000000000000e+00,0.000000000000000000e+00,0.000000000000000000e+00,7.830000000000000000e+02,2.353758811950683594e-01,1.614063978195190430e+00,3.954487576320315778e-01,1.000000000000000000e+00,0.000000000000000000e+00,1.110000000000000000e+02
0.000000000000000000e+00,0.000000000000000000e+00,1.000000000000000000e+00,0.000000000000000000e+00,7.820000000000000000e+02,3.407549858093261719e-01,1.997902154922485352e+00,6.764195900381715365e-01,0.000000000000000000e+00,0.000000000000000000e+00,1.110000000000000000e+02
1.000000000000000000e+00,0.000000000000000000e+00,0.000000000000000000e+00,0.000000000000000000e+00,7.810000000000000000e+02,2.348558902740478516e-01,1.958782911300659180e+00,7.351854764800522801e-01,0.000000000000000000e+00,0.000000000000000000e+00,1.110000000000000000e+02
1.000000000000000000e+00,1.000000000000000000e+00,1.000000000000000000e+00,2.000000000000000000e+00,7.820000000000000000e+02,2.892239093780517578e-01,1.882026910781860352e+00,6.007337070129115109e-01,0.000000000000000000e+00,0.000000000000000000e+00,1.110000000000000000e+02
1.000000000000000000e+00,1.000000000000000000e+00,1.000000000000000000e+00,3.000000000000000000e+00,7.840000000000000000e+02,2.620038986206054688e-01,1.626487016677856445e+00,3.608467510429685388e-01,0.000000000000000000e+00,0.000000000000000000e+00,1.110000000000000000e+02
1.000000000000000000e+00,0.000000000000000000e+00,0.000000000000000000e+00,0.000000000000000000e+00,7.830000000000000000e+02,2.764370441436767578e-01,1.618716955184936523e+00,3.629376817145513745e-01,0.000000000000000000e+00,1.000000000000000000e+00,1.120000000000000000e+02
0.000000000000000000e+00,1.000000000000000000e+00,0.000000000000000000e+00,1.000000000000000000e+00,7.830000000000000000e+02,2.837579250335693359e-01,1.959690809249877930e+00,6.890181762424218981e-01,0.000000000000000000e+00,1.000000000000000000e+00,1.110000000000000000e+02
1.000000000000000000e+00,1.000000000000000000e+00,1.000000000000000000e+00,2.000000000000000000e+00,7.840000000000000000e+02,1.904280185699462891e-01,1.919663906097412109e+00,7.253741713444639139e-01,0.000000000000000000e+00,0.000000000000000000e+00,1.110000000000000000e+02
1.000000000000000000e+00,1.000000000000000000e+00,1.000000000000000000e+00,1.000000000000000000e+00,7.840000000000000000e+02,2.755308151245117188e-01,1.876637935638427734e+00,6.188444472797954843e-01,0.000000000000000000e+00,0.000000000000000000e+00,1.110000000000000000e+02
0.000000000000000000e+00,1.000000000000000000e+00,0.000000000000000000e+00,1.000000000000000000e+00,7.840000000000000000e+02,2.663528919219970703e-01,1.819663047790527344e+00,5.553132559867516305e-01,0.000000000000000000e+00,0.000000000000000000e+00,1.110000000000000000e+02
1.000000000000000000e+00,1.000000000000000000e+00,1.000000000000000000e+00,1.000000000000000000e+00,7.840000000000000000e+02,2.526359558105468750e-01,1.867002964019775391e+00,6.222759724831186112e-01,0.000000000000000000e+00,0.000000000000000000e+00,1.110000000000000000e+02
0.000000000000000000e+00,1.000000000000000000e+00,0.000000000000000000e+00,2.000000000000000000e+00,7.850000000000000000e+02,2.530579566955566406e-01,1.791973829269409180e+00,5.477082326660378531e-01,0.000000000000000000e+00,0.000000000000000000e+00,1.110000000000000000e+02
1.000000000000000000e+00,0.000000000000000000e+00,0.000000000000000000e+00,0.000000000000000000e+00,7.840000000000000000e+02,2.348830699920654297e-01,1.944548845291137695e+00,7.254668214074367905e-01,0.000000000000000000e+00,1.000000000000000000e+00,1.120000000000000000e+02
0.000000000000000000e+00,1.000000000000000000e+00,0.000000000000000000e+00,2.000000000000000000e+00,7.850000000000000000e+02,2.619547843933105469e-01,1.509253025054931641e+00,2.519307036166696934e-01,0.000000000000000000e+00,1.000000000000000000e+00,1.110000000000000000e+02
1.000000000000000000e+00,1.000000000000000000e+00,1.000000000000000000e+00,2.000000000000000000e+00,7.860000000000000000e+02,2.733368873596191406e-01,1.639696121215820312e+00,3.748339362452896562e-01,0.000000000000000000e+00,0.000000000000000000e+00,1.110000000000000000e+02
1.000000000000000000e+00,1.000000000000000000e+00,1.000000000000000000e+00,3.000000000000000000e+00,7.880000000000000000e+02,2.959518432617187500e-01,1.948448896408081055e+00,6.564184655276261715e-01,0.000000000000000000e+00,0.000000000000000000e+00,1.110000000000000000e+02
0.000000000000000000e+00,0.000000000000000000e+00,1.000000000000000000e+00,0.000000000000000000e+00,7.870000000000000000e+02,6.337339878082275391e-01,5.814094066619873047e+00,3.043701481473058967e-01,1.000000000000000000e+00,1.000000000000000000e+00,1.120000000000000000e+02
1.000000000000000000e+00,1.000000000000000000e+00,1.000000000000000000e+00,3.000000000000000000e+00,7.890000000000000000e+02,3.496191501617431641e-01,1.828442096710205078e+00,4.826737362173407209e-01,0.000000000000000000e+00,0.000000000000000000e+00,1.120000000000000000e+02
1.000000000000000000e+00,1.000000000000000000e+00,1.000000000000000000e+00,0.000000000000000000e+00,7.880000000000000000e+02,2.473299503326416016e-01,1.709933996200561523e+00,4.593521555806851508e-01,0.000000000000000000e+00,0.000000000000000000e+00,1.120000000000000000e+02
0.000000000000000000e+00,1.000000000000000000e+00,0.000000000000000000e+00,2.000000000000000000e+00,7.890000000000000000e+02,2.563838958740234375e-01,1.554282903671264648e+00,3.138239875019237513e-01,0.000000000000000000e+00,0.000000000000000000e+00,1.120000000000000000e+02
0.000000000000000000e+00,1.000000000000000000e+00,0.000000000000000000e+00,3.000000000000000000e+00,7.910000000000000000e+02,2.844109535217285156e-01,1.946476936340332031e+00,6.766705222703066624e-01,0.000000000000000000e+00,0.000000000000000000e+00,1.120000000000000000e+02
0.000000000000000000e+00,0.000000000000000000e+00,1.000000000000000000e+00,0.000000000000000000e+00,7.900000000000000000e+02,2.724959850311279297e-01,1.925785064697265625e+00,6.691594229978907737e-01,0.000000000000000000e+00,1.000000000000000000e+00,1.110000000000000000e+02
0.000000000000000000e+00,1.000000000000000000e+00,0.000000000000000000e+00,2.000000000000000000e+00,7.910000000000000000e+02,3.151819705963134766e-01,2.024749994277954102e+00,7.105751595972844559e-01,0.000000000000000000e+00,1.000000000000000000e+00,1.120000000000000000e+02
1.000000000000000000e+00,0.000000000000000000e+00,0.000000000000000000e+00,0.000000000000000000e+00,7.900000000000000000e+02,2.686018943786621094e-01,1.984321832656860352e+00,7.282989091177519692e-01,0.000000000000000000e+00,1.000000000000000000e+00,1.110000000000000000e+02
1.000000000000000000e+00,1.000000000000000000e+00,1.000000000000000000e+00,3.000000000000000000e+00,7.920000000000000000e+02,2.514209747314453125e-01,1.536237955093383789e+00,2.983413581234162781e-01,0.000000000000000000e+00,1.000000000000000000e+00,1.120000000000000000e+02
0.000000000000000000e+00,0.000000000000000000e+00,1.000000000000000000e+00,0.000000000000000000e+00,7.910000000000000000e+02,4.600439071655273438e-01,1.857354879379272461e+00,4.222698299618968809e-01,0.000000000000000000e+00,1.000000000000000000e+00,1.110000000000000000e+02
0.000000000000000000e+00,1.000000000000000000e+00,0.000000000000000000e+00,2.000000000000000000e+00,7.920000000000000000e+02,2.655231952667236328e-01,1.805543899536132812e+00,5.444361972965909846e-01,0.000000000000000000e+00,1.000000000000000000e+00,1.120000000000000000e+02
1.000000000000000000e+00,1.000000000000000000e+00,1.000000000000000000e+00,4.000000000000000000e+00,7.950000000000000000e+02,2.465560436248779297e-01,1.540554046630859375e+00,3.019421477271353460e-01,0.000000000000000000e+00,0.000000000000000000e+00,1.120000000000000000e+02
1.000000000000000000e+00,1.000000000000000000e+00,1.000000000000000000e+00,3.000000000000000000e+00,7.970000000000000000e+02,2.666001319885253906e-01,1.657197952270507812e+00,3.924032553073558138e-01,0.000000000000000000e+00,0.000000000000000000e+00,1.120000000000000000e+02
0.000000000000000000e+00,1.000000000000000000e+00,0.000000000000000000e+00,3.000000000000000000e+00,7.990000000000000000e+02,2.906808853149414062e-01,1.551652908325195312e+00,2.775936220478836258e-01,0.000000000000000000e+00,0.000000000000000000e+00,1.120000000000000000e+02
1.000000000000000000e+00,1.000000000000000000e+00,1.000000000000000000e+00,4.000000000000000000e+00,8.020000000000000000e+02,3.157310485839843750e-01,1.626008987426757812e+00,3.202661924215709499e-01,0.000000000000000000e+00,0.000000000000000000e+00,1.120000000000000000e+02
1.000000000000000000e+00,1.000000000000000000e+00,1.000000000000000000e+00,3.000000000000000000e+00,8.040000000000000000e+02,3.455619812011718750e-01,2.079184055328369141e+00,7.324135678138450345e-01,0.000000000000000000e+00,0.000000000000000000e+00,1.120000000000000000e+02
0.000000000000000000e+00,1.000000000000000000e+00,0.000000000000000000e+00,4.000000000000000000e+00,8.070000000000000000e+02,3.001189231872558594e-01,1.825666189193725586e+00,5.249702351997562744e-01,0.000000000000000000e+00,0.000000000000000000e+00,1.120000000000000000e+02
0.000000000000000000e+00,1.000000000000000000e+00,0.000000000000000000e+00,3.000000000000000000e+00,8.090000000000000000e+02,2.816059589385986328e-01,1.554169893264770508e+00,2.794310388478451479e-01,0.000000000000000000e+00,0.000000000000000000e+00,1.120000000000000000e+02
0.000000000000000000e+00,1.000000000000000000e+00,0.000000000000000000e+00,5.000000000000000000e+00,8.130000000000000000e+02,3.236379623413085938e-01,1.730059146881103516e+00,4.260881296675644303e-01,0.000000000000000000e+00,0.000000000000000000e+00,1.120000000000000000e+02
1.000000000000000000e+00,1.000000000000000000e+00,1.000000000000000000e+00,3.000000000000000000e+00,8.150000000000000000e+02,2.543859481811523438e-01,1.537907838821411133e+00,2.975158729472708319e-01,0.000000000000000000e+00,0.000000000000000000e+00,1.120000000000000000e+02
1.000000000000000000e+00,0.000000000000000000e+00,0.000000000000000000e+00,0.000000000000000000e+00,8.140000000000000000e+02,2.740981578826904297e-01,1.529834985733032227e+00,2.774551443302434861e-01,1.000000000000000000e+00,1.000000000000000000e+00,1.110000000000000000e+02
1.000000000000000000e+00,0.000000000000000000e+00,0.000000000000000000e+00,0.000000000000000000e+00,8.130000000000000000e+02,3.238010406494140625e-01,1.673357963562011719e+00,3.673930632175390065e-01,0.000000000000000000e+00,0.000000000000000000e+00,1.110000000000000000e+02
1.000000000000000000e+00,1.000000000000000000e+00,1.000000000000000000e+00,2.000000000000000000e+00,8.140000000000000000e+02,2.765519618988037109e-01,1.636864900588989258e+00,3.543278901093163125e-01,0.000000000000000000e+00,0.000000000000000000e+00,1.110000000000000000e+02
0.000000000000000000e+00,1.000000000000000000e+00,0.000000000000000000e+00,4.000000000000000000e+00,8.170000000000000000e+02,2.712831497192382812e-01,1.901575088500976562e+00,6.389487822344102064e-01,0.000000000000000000e+00,0.000000000000000000e+00,1.110000000000000000e+02
1.000000000000000000e+00,1.000000000000000000e+00,1.000000000000000000e+00,3.000000000000000000e+00,8.190000000000000000e+02,2.893769741058349609e-01,1.721534967422485352e+00,4.440764526740733076e-01,0.000000000000000000e+00,0.000000000000000000e+00,1.110000000000000000e+02
0.000000000000000000e+00,0.000000000000000000e+00,1.000000000000000000e+00,0.000000000000000000e+00,8.180000000000000000e+02,2.697570323944091797e-01,1.734219074249267578e+00,4.783086055912769141e-01,0.000000000000000000e+00,1.000000000000000000e+00,1.120000000000000000e+02
0.000000000000000000e+00,1.000000000000000000e+00,0.000000000000000000e+00,0.000000000000000000e+00,8.170000000000000000e+02,2.774710655212402344e-01,1.730651855468750000e+00,4.757029480641786767e-01,0.000000000000000000e+00,1.000000000000000000e+00,1.110000000000000000e+02
0.000000000000000000e+00,0.000000000000000000e+00,1.000000000000000000e+00,0.000000000000000000e+00,8.160000000000000000e+02,2.932250499725341797e-01,1.854048967361450195e+00,5.796937956171850370e-01,0.000000000000000000e+00,0.000000000000000000e+00,1.110000000000000000e+02
0.000000000000000000e+00,1.000000000000000000e+00,0.000000000000000000e+00,3.000000000000000000e+00,8.180000000000000000e+02,2.161889076232910156e-01,1.607620000839233398e+00,4.042202738529998562e-01,0.000000000000000000e+00,1.000000000000000000e+00,1.120000000000000000e+02
0.000000000000000000e+00,1.000000000000000000e+00,0.000000000000000000e+00,1.000000000000000000e+00,8.180000000000000000e+02,2.946269512176513672e-01,1.743514060974121094e+00,4.643555400401347955e-01,0.000000000000000000e+00,1.000000000000000000e+00,1.110000000000000000e+02
1.000000000000000000e+00,1.000000000000000000e+00,1.000000000000000000e+00,2.000000000000000000e+00,8.190000000000000000e+02,2.794120311737060547e-01,2.013922929763793945e+00,7.447242099589288511e-01,0.000000000000000000e+00,0.000000000000000000e+00,1.110000000000000000e+02
1.000000000000000000e+00,1.000000000000000000e+00,1.000000000000000000e+00,3.000000000000000000e+00,8.210000000000000000e+02,2.937731742858886719e-01,1.660011053085327148e+00,3.884931311572788482e-01,0.000000000000000000e+00,0.000000000000000000e+00,1.110000000000000000e+02
0.000000000000000000e+00,1.000000000000000000e+00,0.000000000000000000e+00,2.000000000000000000e+00,8.220000000000000000e+02,2.592210769653320312e-01,1.765247106552124023e+00,5.203040106998858549e-01,0.000000000000000000e+00,0.000000000000000000e+00,1.110000000000000000e+02
0.000000000000000000e+00,1.000000000000000000e+00,0.000000000000000000e+00,4.000000000000000000e+00,8.250000000000000000e+02,2.315061092376708984e-01,1.506922006607055664e+00,2.775337231954849715e-01,0.000000000000000000e+00,0.000000000000000000e+00,1.110000000000000000e+02
1.000000000000000000e+00,1.000000000000000000e+00,1.000000000000000000e+00,3.000000000000000000e+00,8.270000000000000000e+02,3.156130313873291016e-01,1.903800010681152344e+00,5.977297434498011208e-01,0.000000000000000000e+00,0.000000000000000000e+00,1.110000000000000000e+02
1.000000000000000000e+00,1.000000000000000000e+00,1.000000000000000000e+00,3.000000000000000000e+00,8.290000000000000000e+02,3.236830234527587891e-01,1.808111906051635742e+00,5.059776232741487467e-01,0.000000000000000000e+00,0.000000000000000000e+00,1.110000000000000000e+02
1.000000000000000000e+00,0.000000000000000000e+00,0.000000000000000000e+00,0.000000000000000000e+00,8.280000000000000000e+02,3.630690574645996094e-01,1.721238851547241211e+00,3.607592217584670302e-01,1.000000000000000000e+00,1.000000000000000000e+00,1.120000000000000000e+02
1.000000000000000000e+00,0.000000000000000000e+00,0.000000000000000000e+00,0.000000000000000000e+00,8.270000000000000000e+02,2.534730434417724609e-01,1.951985120773315430e+00,7.124241379248525963e-01,0.000000000000000000e+00,0.000000000000000000e+00,1.120000000000000000e+02
0.000000000000000000e+00,0.000000000000000000e+00,1.000000000000000000e+00,0.000000000000000000e+00,8.260000000000000000e+02,2.195069789886474609e-01,1.815834999084472656e+00,6.117223043828340368e-01,0.000000000000000000e+00,0.000000000000000000e+00,1.120000000000000000e+02
1.000000000000000000e+00,1.000000000000000000e+00,1.000000000000000000e+00,1.000000000000000000e+00,8.260000000000000000e+02,3.049521446228027344e-01,1.846428871154785156e+00,5.582627473142547370e-01,0.000000000000000000e+00,0.000000000000000000e+00,1.120000000000000000e+02
0.000000000000000000e+00,0.000000000000000000e+00,1.000000000000000000e+00,0.000000000000000000e+00,8.250000000000000000e+02,3.179950714111328125e-01,1.734382867813110352e+00,4.260801763362611627e-01,0.000000000000000000e+00,1.000000000000000000e+00,1.110000000000000000e+02
1.000000000000000000e+00,1.000000000000000000e+00,1.000000000000000000e+00,2.000000000000000000e+00,8.260000000000000000e+02,2.897541522979736328e-01,1.847391128540039062e+00,5.734715746314988927e-01,0.000000000000000000e+00,1.000000000000000000e+00,1.120000000000000000e+02
0.000000000000000000e+00,1.000000000000000000e+00,0.000000000000000000e+00,1.000000000000000000e+00,8.260000000000000000e+02,3.267641067504882812e-01,1.682451009750366211e+00,3.728311482978927116e-01,0.000000000000000000e+00,0.000000000000000000e+00,1.120000000000000000e+02
1.000000000000000000e+00,1.000000000000000000e+00,1.000000000000000000e+00,5.000000000000000000e+00,8.300000000000000000e+02,2.365169525146484375e-01,1.612613916397094727e+00,3.854975541108037196e-01,0.000000000000000000e+00,0.000000000000000000e+00,1.120000000000000000e+02
1.000000000000000000e+00,1.000000000000000000e+00,1.000000000000000000e+00,3.000000000000000000e+00,8.320000000000000000e+02,2.228810787200927734e-01,1.805920124053955078e+00,5.912674574838057140e-01,0.000000000000000000e+00,0.000000000000000000e+00,1.120000000000000000e+02
0.000000000000000000e+00,1.000000000000000000e+00,0.000000000000000000e+00,2.000000000000000000e+00,8.330000000000000000e+02,2.639348506927490234e-01,1.779964923858642578e+00,5.213363388480520833e-01,0.000000000000000000e+00,0.000000000000000000e+00,1.120000000000000000e+02
1.000000000000000000e+00,0.000000000000000000e+00,0.000000000000000000e+00,0.000000000000000000e+00,8.320000000000000000e+02,3.517110347747802734e-01,1.881170988082885742e+00,5.358909408936256558e-01,0.000000000000000000e+00,0.000000000000000000e+00,1.120000000000000000e+02
1.000000000000000000e+00,1.000000000000000000e+00,1.000000000000000000e+00,3.000000000000000000e+00,8.340000000000000000e+02,2.614691257476806641e-01,1.562241077423095703e+00,2.983355526390580881e-01,0.000000000000000000e+00,0.000000000000000000e+00,1.120000000000000000e+02
1.000000000000000000e+00,0.000000000000000000e+00,0.000000000000000000e+00,0.000000000000000000e+00,8.330000000000000000e+02,4.554848670959472656e-01,1.768990993499755859e+00,3.340784090563196362e-01,0.000000000000000000e+00,0.000000000000000000e+00,1.120000000000000000e+02
1.000000000000000000e+00,1.000000000000000000e+00,1.000000000000000000e+00,4.000000000000000000e+00,8.360000000000000000e+02,2.612190246582031250e-01,1.811311006546020508e+00,5.618949750674643306e-01,0.000000000000000000e+00,0.000000000000000000e+00,1.120000000000000000e+02
0.000000000000000000e+00,1.000000000000000000e+00,0.000000000000000000e+00,3.000000000000000000e+00,8.380000000000000000e+02,2.542641162872314453e-01,1.665090084075927734e+00,4.271427969118373746e-01,0.000000000000000000e+00,0.000000000000000000e+00,1.120000000000000000e+02
1.000000000000000000e+00,1.000000000000000000e+00,1.000000000000000000e+00,3.000000000000000000e+00,8.400000000000000000e+02,2.136430740356445312e-01,1.927546977996826172e+00,7.211268968629609422e-01,0.000000000000000000e+00,0.000000000000000000e+00,1.120000000000000000e+02
1.000000000000000000e+00,1.000000000000000000e+00,1.000000000000000000e+00,4.000000000000000000e+00,8.430000000000000000e+02,2.434170246124267578e-01,1.598277091979980469e+00,3.697842303858102087e-01,0.000000000000000000e+00,0.000000000000000000e+00,1.120000000000000000e+02
1.000000000000000000e+00,1.000000000000000000e+00,1.000000000000000000e+00,2.000000000000000000e+00,8.440000000000000000e+02,2.614839076995849609e-01,1.971725940704345703e+00,7.079087545166768969e-01,0.000000000000000000e+00,0.000000000000000000e+00,1.120000000000000000e+02
1.000000000000000000e+00,0.000000000000000000e+00,0.000000000000000000e+00,0.000000000000000000e+00,8.430000000000000000e+02,2.288608551025390625e-01,1.938881874084472656e+00,7.134367398190988308e-01,1.000000000000000000e+00,1.000000000000000000e+00,1.110000000000000000e+02
0.000000000000000000e+00,0.000000000000000000e+00,1.000000000000000000e+00,0.000000000000000000e+00,8.420000000000000000e+02,2.725880146026611328e-01,1.841583013534545898e+00,5.886127912632905801e-01,0.000000000000000000e+00,0.000000000000000000e+00,1.110000000000000000e+02
0.000000000000000000e+00,1.000000000000000000e+00,0.000000000000000000e+00,3.000000000000000000e+00,8.440000000000000000e+02,2.387251853942871094e-01,1.567947149276733398e+00,3.401756339052787736e-01,0.000000000000000000e+00,0.000000000000000000e+00,1.110000000000000000e+02
0.000000000000000000e+00,1.000000000000000000e+00,0.000000000000000000e+00,1.000000000000000000e+00,8.440000000000000000e+02,3.360521793365478516e-01,1.950406074523925781e+00,6.238489172862796694e-01,0.000000000000000000e+00,0.000000000000000000e+00,1.110000000000000000e+02
1.000000000000000000e+00,1.000000000000000000e+00,1.000000000000000000e+00,3.000000000000000000e+00,8.460000000000000000e+02,2.861511707305908203e-01,1.539053916931152344e+00,2.631585309172792542e-01,0.000000000000000000e+00,0.000000000000000000e+00,1.110000000000000000e+02
1.000000000000000000e+00,1.000000000000000000e+00,1.000000000000000000e+00,3.000000000000000000e+00,8.480000000000000000e+02,2.477958202362060547e-01,1.987025022506713867e+00,7.497329632664508914e-01,0.000000000000000000e+00,0.000000000000000000e+00,1.110000000000000000e+02
1.000000000000000000e+00,1.000000000000000000e+00,1.000000000000000000e+00,2.000000000000000000e+00,8.490000000000000000e+02,1.999070644378662109e-01,1.482105016708374023e+00,2.823628224984973123e-01,0.000000000000000000e+00,0.000000000000000000e+00,1.110000000000000000e+02
0.000000000000000000e+00,1.000000000000000000e+00,0.000000000000000000e+00,2.000000000000000000e+00,8.500000000000000000e+02,2.986238002777099609e-01,1.996814966201782227e+00,6.954808838926576087e-01,0.000000000000000000e+00,0.000000000000000000e+00,1.110000000000000000e+02
0.000000000000000000e+00,1.000000000000000000e+00,0.000000000000000000e+00,3.000000000000000000e+00,8.520000000000000000e+02,2.523419857025146484e-01,1.867531061172485352e+00,6.298110841018786932e-01,0.000000000000000000e+00,0.000000000000000000e+00,1.110000000000000000e+02
