choice, accuracy, solution,  reward, cumulative_reward, rt,  total_trial_time, iti, cp_with_slow_fast, obs_cp_with_slow_fast, high_val_cue
0.000000000000000000e+00,1.000000000000000000e+00,0.000000000000000000e+00,3.000000000000000000e+00,6.020000000000000000e+02,6.385588645935058594e-01,2.002822875976562500e+00,3.711346690262941617e-01,0.000000000000000000e+00,0.000000000000000000e+00,1.120000000000000000e+02
0.000000000000000000e+00,0.000000000000000000e+00,1.000000000000000000e+00,0.000000000000000000e+00,6.010000000000000000e+02,3.076019287109375000e-01,1.948673009872436523e+00,6.529575133859336633e-01,0.000000000000000000e+00,1.000000000000000000e+00,1.110000000000000000e+02
1.000000000000000000e+00,0.000000000000000000e+00,0.000000000000000000e+00,0.000000000000000000e+00,6.000000000000000000e+02,2.697179317474365234e-01,1.688903808593750000e+00,4.254969759774067661e-01,0.000000000000000000e+00,0.000000000000000000e+00,1.110000000000000000e+02
1.000000000000000000e+00,0.000000000000000000e+00,0.000000000000000000e+00,0.000000000000000000e+00,5.990000000000000000e+02,2.964382171630859375e-01,1.585677146911621094e+00,2.947332130492402724e-01,0.000000000000000000e+00,0.000000000000000000e+00,1.110000000000000000e+02
1.000000000000000000e+00,0.000000000000000000e+00,0.000000000000000000e+00,0.000000000000000000e+00,5.980000000000000000e+02,2.611849308013916016e-01,1.939822912216186523e+00,7.008714980471792977e-01,0.000000000000000000e+00,1.000000000000000000e+00,1.120000000000000000e+02
1.000000000000000000e+00,1.000000000000000000e+00,1.000000000000000000e+00,3.000000000000000000e+00,6.000000000000000000e+02,3.141441345214843750e-01,1.948161125183105469e+00,6.325137934823983343e-01,0.000000000000000000e+00,1.000000000000000000e+00,1.110000000000000000e+02
1.000000000000000000e+00,1.000000000000000000e+00,1.000000000000000000e+00,2.000000000000000000e+00,6.010000000000000000e+02,4.802870750427246094e-01,2.180248975753784180e+00,6.961562976474625630e-01,0.000000000000000000e+00,0.000000000000000000e+00,1.110000000000000000e+02
1.000000000000000000e+00,1.000000000000000000e+00,1.000000000000000000e+00,2.000000000000000000e+00,6.020000000000000000e+02,2.795970439910888672e-01,1.981236934661865234e+00,7.107952354364208691e-01,0.000000000000000000e+00,0.000000000000000000e+00,1.110000000000000000e+02
0.000000000000000000e+00,1.000000000000000000e+00,0.000000000000000000e+00,3.000000000000000000e+00,6.040000000000000000e+02,4.073910713195800781e-01,1.807251930236816406e+00,4.184144282089244937e-01,0.000000000000000000e+00,0.000000000000000000e+00,1.110000000000000000e+02
1.000000000000000000e+00,1.000000000000000000e+00,1.000000000000000000e+00,1.000000000000000000e+00,6.040000000000000000e+02,4.187960624694824219e-01,2.054945945739746094e+00,6.398538320823522474e-01,0.000000000000000000e+00,0.000000000000000000e+00,1.110000000000000000e+02
0.000000000000000000e+00,0.000000000000000000e+00,1.000000000000000000e+00,0.000000000000000000e+00,6.030000000000000000e+02,3.398630619049072266e-01,2.024082183837890625e+00,6.973106072830377311e-01,0.000000000000000000e+00,0.000000000000000000e+00,1.110000000000000000e+02
0.000000000000000000e+00,0.000000000000000000e+00,1.000000000000000000e+00,0.000000000000000000e+00,6.020000000000000000e+02,4.212920665740966797e-01,2.026000022888183594e+00,6.234642997394592712e-01,0.000000000000000000e+00,1.000000000000000000e+00,1.120000000000000000e+02
1.000000000000000000e+00,0.000000000000000000e+00,0.000000000000000000e+00,0.000000000000000000e+00,6.010000000000000000e+02,1.690258979797363281e-01,1.891251802444458008e+00,7.313618648482658191e-01,0.000000000000000000e+00,1.000000000000000000e+00,1.110000000000000000e+02
0.000000000000000000e+00,0.000000000000000000e+00,1.000000000000000000e+00,0.000000000000000000e+00,6.000000000000000000e+02,2.030692100524902344e-01,1.470808982849121094e+00,2.860335800048915966e-01,0.000000000000000000e+00,0.000000000000000000e+00,1.110000000000000000e+02
1.000000000000000000e+00,0.000000000000000000e+00,0.000000000000000000e+00,0.000000000000000000e+00,5.990000000000000000e+02,3.434000015258789062e-01,1.690393924713134766e+00,3.597586525518403633e-01,0.000000000000000000e+00,0.000000000000000000e+00,1.110000000000000000e+02
0.000000000000000000e+00,1.000000000000000000e+00,0.000000000000000000e+00,3.000000000000000000e+00,6.010000000000000000e+02,3.082339763641357422e-01,2.036055088043212891e+00,7.455168428849869855e-01,0.000000000000000000e+00,0.000000000000000000e+00,1.110000000000000000e+02
0.000000000000000000e+00,1.000000000000000000e+00,0.000000000000000000e+00,1.000000000000000000e+00,6.010000000000000000e+02,2.560110092163085938e-01,1.817662954330444336e+00,5.801033287815837713e-01,0.000000000000000000e+00,0.000000000000000000e+00,1.110000000000000000e+02
0.000000000000000000e+00,1.000000000000000000e+00,0.000000000000000000e+00,2.000000000000000000e+00,6.020000000000000000e+02,2.672531604766845703e-01,1.955281019210815430e+00,7.019795364365477575e-01,0.000000000000000000e+00,0.000000000000000000e+00,1.110000000000000000e+02
0.000000000000000000e+00,1.000000000000000000e+00,0.000000000000000000e+00,3.000000000000000000e+00,6.040000000000000000e+02,2.227578163146972656e-01,1.498318910598754883e+00,2.841722205993100769e-01,0.000000000000000000e+00,0.000000000000000000e+00,1.110000000000000000e+02
0.000000000000000000e+00,1.000000000000000000e+00,0.000000000000000000e+00,2.000000000000000000e+00,6.050000000000000000e+02,5.257029533386230469e-01,1.912446975708007812e+00,3.965907666231699435e-01,0.000000000000000000e+00,1.000000000000000000e+00,1.120000000000000000e+02
0.000000000000000000e+00,1.000000000000000000e+00,0.000000000000000000e+00,2.000000000000000000e+00,6.060000000000000000e+02,2.779030799865722656e-01,1.940840005874633789e+00,6.871930777607375695e-01,0.000000000000000000e+00,1.000000000000000000e+00,1.110000000000000000e+02
0.000000000000000000e+00,1.000000000000000000e+00,0.000000000000000000e+00,2.000000000000000000e+00,6.070000000000000000e+02,1.839330196380615234e-01,1.806197881698608398e+00,6.268555669264834762e-01,0.000000000000000000e+00,0.000000000000000000e+00,1.110000000000000000e+02
0.000000000000000000e+00,1.000000000000000000e+00,0.000000000000000000e+00,4.000000000000000000e+00,6.100000000000000000e+02,2.360210418701171875e-01,1.521186113357543945e+00,2.985061220236979174e-01,1.000000000000000000e+00,1.000000000000000000e+00,1.120000000000000000e+02
0.000000000000000000e+00,1.000000000000000000e+00,0.000000000000000000e+00,2.000000000000000000e+00,6.110000000000000000e+02,3.234050273895263672e-01,1.625468969345092773e+00,3.240036230777781912e-01,0.000000000000000000e+00,0.000000000000000000e+00,1.120000000000000000e+02
0.000000000000000000e+00,0.000000000000000000e+00,1.000000000000000000e+00,0.000000000000000000e+00,6.100000000000000000e+02,2.800459861755371094e-01,1.903083086013793945e+00,6.268737619094499891e-01,0.000000000000000000e+00,1.000000000000000000e+00,1.110000000000000000e+02
0.000000000000000000e+00,0.000000000000000000e+00,1.000000000000000000e+00,0.000000000000000000e+00,6.090000000000000000e+02,1.938199996948242188e-01,1.535907983779907227e+00,3.631391273036629896e-01,0.000000000000000000e+00,0.000000000000000000e+00,1.110000000000000000e+02
0.000000000000000000e+00,0.000000000000000000e+00,1.000000000000000000e+00,0.000000000000000000e+00,6.080000000000000000e+02,1.318359375000000000e-01,1.539652109146118164e+00,4.194322543435348716e-01,0.000000000000000000e+00,1.000000000000000000e+00,1.120000000000000000e+02
0.000000000000000000e+00,0.000000000000000000e+00,1.000000000000000000e+00,0.000000000000000000e+00,6.070000000000000000e+02,2.008810043334960938e-01,1.510271072387695312e+00,3.132315603408583615e-01,0.000000000000000000e+00,1.000000000000000000e+00,1.110000000000000000e+02
0.000000000000000000e+00,0.000000000000000000e+00,1.000000000000000000e+00,0.000000000000000000e+00,6.060000000000000000e+02,3.299460411071777344e-01,2.017433881759643555e+00,6.970331348579899000e-01,0.000000000000000000e+00,0.000000000000000000e+00,1.110000000000000000e+02
1.000000000000000000e+00,0.000000000000000000e+00,0.000000000000000000e+00,0.000000000000000000e+00,6.050000000000000000e+02,1.154401302337646484e-01,1.469037771224975586e+00,3.664754084782707033e-01,0.000000000000000000e+00,1.000000000000000000e+00,1.120000000000000000e+02
1.000000000000000000e+00,1.000000000000000000e+00,1.000000000000000000e+00,1.000000000000000000e+00,6.050000000000000000e+02,2.771081924438476562e-01,1.870010852813720703e+00,6.029771859644179610e-01,0.000000000000000000e+00,1.000000000000000000e+00,1.110000000000000000e+02
1.000000000000000000e+00,0.000000000000000000e+00,0.000000000000000000e+00,0.000000000000000000e+00,6.040000000000000000e+02,1.744921207427978516e-01,1.705053091049194336e+00,5.415088210605154551e-01,0.000000000000000000e+00,1.000000000000000000e+00,1.120000000000000000e+02
1.000000000000000000e+00,1.000000000000000000e+00,1.000000000000000000e+00,0.000000000000000000e+00,6.040000000000000000e+02,4.257488250732421875e-02,5.525273084640502930e+00,3.672189557432394280e-01,-2.000000000000000000e+00,-2.000000000000000000e+00,1.120000000000000000e+02
1.000000000000000000e+00,1.000000000000000000e+00,1.000000000000000000e+00,0.000000000000000000e+00,6.030000000000000000e+02,6.904580593109130859e-01,2.116224050521850586e+00,4.334656250886960160e-01,0.000000000000000000e+00,0.000000000000000000e+00,1.120000000000000000e+02
0.000000000000000000e+00,0.000000000000000000e+00,1.000000000000000000e+00,0.000000000000000000e+00,6.020000000000000000e+02,2.818188667297363281e-01,1.670511007308959961e+00,3.874377229279912238e-01,0.000000000000000000e+00,0.000000000000000000e+00,1.120000000000000000e+02
1.000000000000000000e+00,1.000000000000000000e+00,1.000000000000000000e+00,3.000000000000000000e+00,6.040000000000000000e+02,6.492750644683837891e-01,1.912598848342895508e+00,2.669317877814369466e-01,0.000000000000000000e+00,1.000000000000000000e+00,1.110000000000000000e+02
1.000000000000000000e+00,0.000000000000000000e+00,0.000000000000000000e+00,0.000000000000000000e+00,6.030000000000000000e+02,3.846390247344970703e-01,2.009364843368530273e+00,6.260061742582969657e-01,0.000000000000000000e+00,1.000000000000000000e+00,1.120000000000000000e+02
1.000000000000000000e+00,0.000000000000000000e+00,0.000000000000000000e+00,0.000000000000000000e+00,6.020000000000000000e+02,6.296858787536621094e-01,1.875816106796264648e+00,2.523009011148787395e-01,0.000000000000000000e+00,0.000000000000000000e+00,1.120000000000000000e+02
1.000000000000000000e+00,1.000000000000000000e+00,1.000000000000000000e+00,2.000000000000000000e+00,6.030000000000000000e+02,5.764110088348388672e-01,1.895988941192626953e+00,3.316117702915616916e-01,1.000000000000000000e+00,1.000000000000000000e+00,1.110000000000000000e+02
1.000000000000000000e+00,1.000000000000000000e+00,1.000000000000000000e+00,3.000000000000000000e+00,6.050000000000000000e+02,4.941730499267578125e-01,1.915946960449218750e+00,4.308994760810617164e-01,0.000000000000000000e+00,0.000000000000000000e+00,1.110000000000000000e+02
1.000000000000000000e+00,1.000000000000000000e+00,1.000000000000000000e+00,3.000000000000000000e+00,6.070000000000000000e+02,2.816019058227539062e-01,1.888959169387817383e+00,6.197192867972729502e-01,0.000000000000000000e+00,0.000000000000000000e+00,1.110000000000000000e+02
1.000000000000000000e+00,0.000000000000000000e+00,0.000000000000000000e+00,0.000000000000000000e+00,6.060000000000000000e+02,2.406709194183349609e-01,1.940572977066040039e+00,7.103064202554580930e-01,0.000000000000000000e+00,0.000000000000000000e+00,1.110000000000000000e+02
1.000000000000000000e+00,0.000000000000000000e+00,0.000000000000000000e+00,0.000000000000000000e+00,6.050000000000000000e+02,2.423820495605468750e-01,1.782194137573242188e+00,5.593916140558303773e-01,0.000000000000000000e+00,0.000000000000000000e+00,1.110000000000000000e+02
1.000000000000000000e+00,1.000000000000000000e+00,1.000000000000000000e+00,1.000000000000000000e+00,6.050000000000000000e+02,1.891210079193115234e-01,1.571800947189331055e+00,3.981071762307225037e-01,0.000000000000000000e+00,0.000000000000000000e+00,1.110000000000000000e+02
1.000000000000000000e+00,0.000000000000000000e+00,0.000000000000000000e+00,0.000000000000000000e+00,6.040000000000000000e+02,4.844999313354492188e-01,2.041538000106811523e+00,5.728536986230163830e-01,0.000000000000000000e+00,0.000000000000000000e+00,1.110000000000000000e+02
1.000000000000000000e+00,1.000000000000000000e+00,1.000000000000000000e+00,3.000000000000000000e+00,6.060000000000000000e+02,3.795311450958251953e-01,1.831341028213500977e+00,4.544274571052612233e-01,0.000000000000000000e+00,0.000000000000000000e+00,1.110000000000000000e+02
1.000000000000000000e+00,0.000000000000000000e+00,0.000000000000000000e+00,0.000000000000000000e+00,6.050000000000000000e+02,5.443301200866699219e-01,2.246181011199951172e+00,7.171065061269802365e-01,0.000000000000000000e+00,0.000000000000000000e+00,1.110000000000000000e+02
1.000000000000000000e+00,0.000000000000000000e+00,0.000000000000000000e+00,0.000000000000000000e+00,6.040000000000000000e+02,2.293939590454101562e-01,1.734853982925415039e+00,5.022561039351871592e-01,0.000000000000000000e+00,0.000000000000000000e+00,1.110000000000000000e+02
1.000000000000000000e+00,1.000000000000000000e+00,1.000000000000000000e+00,3.000000000000000000e+00,6.060000000000000000e+02,2.140858173370361328e-01,1.621040821075439453e+00,4.068173424296336882e-01,0.000000000000000000e+00,0.000000000000000000e+00,1.110000000000000000e+02
1.000000000000000000e+00,1.000000000000000000e+00,1.000000000000000000e+00,4.000000000000000000e+00,6.090000000000000000e+02,3.585228919982910156e-01,2.079865932464599609e+00,7.364434115573768036e-01,0.000000000000000000e+00,0.000000000000000000e+00,1.110000000000000000e+02
1.000000000000000000e+00,1.000000000000000000e+00,1.000000000000000000e+00,3.000000000000000000e+00,6.110000000000000000e+02,2.392539978027343750e-01,1.536268949508666992e+00,3.065329327460125652e-01,0.000000000000000000e+00,0.000000000000000000e+00,1.110000000000000000e+02
1.000000000000000000e+00,0.000000000000000000e+00,0.000000000000000000e+00,0.000000000000000000e+00,6.100000000000000000e+02,4.490268230438232422e-01,2.100785970687866211e+00,6.570320424707838391e-01,1.000000000000000000e+00,0.000000000000000000e+00,1.110000000000000000e+02
1.000000000000000000e+00,1.000000000000000000e+00,1.000000000000000000e+00,4.000000000000000000e+00,6.130000000000000000e+02,2.609648704528808594e-01,1.588444948196411133e+00,3.459138575129823701e-01,0.000000000000000000e+00,1.000000000000000000e+00,1.120000000000000000e+02
1.000000000000000000e+00,0.000000000000000000e+00,0.000000000000000000e+00,0.000000000000000000e+00,6.120000000000000000e+02,4.296860694885253906e-01,2.090193986892700195e+00,6.691743364069604461e-01,0.000000000000000000e+00,0.000000000000000000e+00,1.120000000000000000e+02
1.000000000000000000e+00,1.000000000000000000e+00,1.000000000000000000e+00,1.000000000000000000e+00,6.120000000000000000e+02,2.108349800109863281e-01,1.614216089248657227e+00,4.170665711483265703e-01,0.000000000000000000e+00,0.000000000000000000e+00,1.120000000000000000e+02
1.000000000000000000e+00,0.000000000000000000e+00,0.000000000000000000e+00,0.000000000000000000e+00,6.110000000000000000e+02,3.382160663604736328e-01,1.951279878616333008e+00,6.182414074543287619e-01,0.000000000000000000e+00,0.000000000000000000e+00,1.120000000000000000e+02
0.000000000000000000e+00,1.000000000000000000e+00,0.000000000000000000e+00,2.000000000000000000e+00,6.120000000000000000e+02,2.754821777343750000e-01,1.828356981277465820e+00,5.633844726194234820e-01,0.000000000000000000e+00,0.000000000000000000e+00,1.120000000000000000e+02
0.000000000000000000e+00,1.000000000000000000e+00,0.000000000000000000e+00,3.000000000000000000e+00,6.140000000000000000e+02,3.336739540100097656e-01,1.661640882492065430e+00,3.419994723912930246e-01,0.000000000000000000e+00,0.000000000000000000e+00,1.120000000000000000e+02
0.000000000000000000e+00,0.000000000000000000e+00,1.000000000000000000e+00,0.000000000000000000e+00,6.130000000000000000e+02,3.891220092773437500e-01,1.802870988845825195e+00,4.282174875683550930e-01,0.000000000000000000e+00,0.000000000000000000e+00,1.120000000000000000e+02
1.000000000000000000e+00,0.000000000000000000e+00,0.000000000000000000e+00,0.000000000000000000e+00,6.120000000000000000e+02,3.181669712066650391e-01,1.942770004272460938e+00,6.375033817188398011e-01,0.000000000000000000e+00,0.000000000000000000e+00,1.120000000000000000e+02
0.000000000000000000e+00,1.000000000000000000e+00,0.000000000000000000e+00,2.000000000000000000e+00,6.130000000000000000e+02,2.352838516235351562e-01,1.946635961532592773e+00,7.174727746772243675e-01,0.000000000000000000e+00,1.000000000000000000e+00,1.110000000000000000e+02
0.000000000000000000e+00,1.000000000000000000e+00,0.000000000000000000e+00,2.000000000000000000e+00,6.140000000000000000e+02,2.142558097839355469e-01,1.907445907592773438e+00,6.916217767176892073e-01,0.000000000000000000e+00,1.000000000000000000e+00,1.120000000000000000e+02
0.000000000000000000e+00,1.000000000000000000e+00,0.000000000000000000e+00,3.000000000000000000e+00,6.160000000000000000e+02,2.923741340637207031e-01,1.617355823516845703e+00,3.428620946336781161e-01,0.000000000000000000e+00,1.000000000000000000e+00,1.110000000000000000e+02
0.000000000000000000e+00,1.000000000000000000e+00,0.000000000000000000e+00,4.000000000000000000e+00,6.190000000000000000e+02,2.857429981231689453e-01,1.989050149917602539e+00,7.149121562033419197e-01,0.000000000000000000e+00,1.000000000000000000e+00,1.120000000000000000e+02
0.000000000000000000e+00,1.000000000000000000e+00,0.000000000000000000e+00,2.000000000000000000e+00,6.200000000000000000e+02,2.274551391601562500e-01,1.680591106414794922e+00,4.791753769677308261e-01,0.000000000000000000e+00,0.000000000000000000e+00,1.120000000000000000e+02
0.000000000000000000e+00,0.000000000000000000e+00,1.000000000000000000e+00,0.000000000000000000e+00,6.190000000000000000e+02,2.801899909973144531e-01,1.868141889572143555e+00,5.972759152660538362e-01,0.000000000000000000e+00,1.000000000000000000e+00,1.110000000000000000e+02
0.000000000000000000e+00,0.000000000000000000e+00,1.000000000000000000e+00,0.000000000000000000e+00,6.180000000000000000e+02,1.715769767761230469e-01,1.787377119064331055e+00,6.346929986531555379e-01,0.000000000000000000e+00,1.000000000000000000e+00,1.120000000000000000e+02
1.000000000000000000e+00,0.000000000000000000e+00,0.000000000000000000e+00,0.000000000000000000e+00,6.170000000000000000e+02,2.126758098602294922e-01,1.930127859115600586e+00,7.148358509442729325e-01,0.000000000000000000e+00,0.000000000000000000e+00,1.120000000000000000e+02
1.000000000000000000e+00,0.000000000000000000e+00,0.000000000000000000e+00,0.000000000000000000e+00,6.160000000000000000e+02,2.510900497436523438e-01,1.704946994781494141e+00,4.700909976994366857e-01,1.000000000000000000e+00,1.000000000000000000e+00,1.110000000000000000e+02
1.000000000000000000e+00,1.000000000000000000e+00,1.000000000000000000e+00,3.000000000000000000e+00,6.180000000000000000e+02,2.934720516204833984e-01,1.597091913223266602e+00,3.171535172565997929e-01,0.000000000000000000e+00,0.000000000000000000e+00,1.110000000000000000e+02
1.000000000000000000e+00,1.000000000000000000e+00,1.000000000000000000e+00,3.000000000000000000e+00,6.200000000000000000e+02,4.815878868103027344e-01,1.821224927902221680e+00,3.387221324689072000e-01,0.000000000000000000e+00,0.000000000000000000e+00,1.110000000000000000e+02
1.000000000000000000e+00,1.000000000000000000e+00,1.000000000000000000e+00,2.000000000000000000e+00,6.210000000000000000e+02,3.388879299163818359e-01,1.699390172958374023e+00,3.715020073964263592e-01,0.000000000000000000e+00,0.000000000000000000e+00,1.110000000000000000e+02
1.000000000000000000e+00,1.000000000000000000e+00,1.000000000000000000e+00,1.000000000000000000e+00,6.210000000000000000e+02,4.049818515777587891e-01,1.700536012649536133e+00,3.054914156355100774e-01,0.000000000000000000e+00,0.000000000000000000e+00,1.110000000000000000e+02
1.000000000000000000e+00,0.000000000000000000e+00,0.000000000000000000e+00,0.000000000000000000e+00,6.200000000000000000e+02,3.970730304718017578e-01,1.816586971282958984e+00,4.220367267588884252e-01,0.000000000000000000e+00,0.000000000000000000e+00,1.110000000000000000e+02
1.000000000000000000e+00,1.000000000000000000e+00,1.000000000000000000e+00,3.000000000000000000e+00,6.220000000000000000e+02,2.554509639739990234e-01,1.721785068511962891e+00,4.771979710624442705e-01,0.000000000000000000e+00,0.000000000000000000e+00,1.110000000000000000e+02
1.000000000000000000e+00,0.000000000000000000e+00,0.000000000000000000e+00,0.000000000000000000e+00,6.210000000000000000e+02,2.848711013793945312e-01,1.980124950408935547e+00,7.071687019445320743e-01,0.000000000000000000e+00,1.000000000000000000e+00,1.120000000000000000e+02
1.000000000000000000e+00,0.000000000000000000e+00,0.000000000000000000e+00,0.000000000000000000e+00,6.200000000000000000e+02,1.906380653381347656e-01,1.662117004394531250e+00,4.862280387873906817e-01,0.000000000000000000e+00,1.000000000000000000e+00,1.110000000000000000e+02
1.000000000000000000e+00,0.000000000000000000e+00,0.000000000000000000e+00,0.000000000000000000e+00,6.190000000000000000e+02,2.820150852203369141e-01,1.773747920989990234e+00,4.933850574350902574e-01,0.000000000000000000e+00,0.000000000000000000e+00,1.110000000000000000e+02
0.000000000000000000e+00,1.000000000000000000e+00,0.000000000000000000e+00,5.000000000000000000e+00,6.230000000000000000e+02,2.503738403320312500e-01,1.759727954864501953e+00,5.198351149113322744e-01,0.000000000000000000e+00,1.000000000000000000e+00,1.120000000000000000e+02
0.000000000000000000e+00,0.000000000000000000e+00,1.000000000000000000e+00,0.000000000000000000e+00,6.220000000000000000e+02,3.146901130676269531e-01,1.836462020874023438e+00,5.230670788931806037e-01,0.000000000000000000e+00,1.000000000000000000e+00,1.110000000000000000e+02
0.000000000000000000e+00,0.000000000000000000e+00,1.000000000000000000e+00,0.000000000000000000e+00,6.210000000000000000e+02,2.893910408020019531e-01,1.761522054672241211e+00,4.846975164276896009e-01,0.000000000000000000e+00,0.000000000000000000e+00,1.110000000000000000e+02
1.000000000000000000e+00,1.000000000000000000e+00,1.000000000000000000e+00,2.000000000000000000e+00,6.220000000000000000e+02,3.018209934234619141e-01,1.594339132308959961e+00,2.959900952577614319e-01,0.000000000000000000e+00,0.000000000000000000e+00,1.110000000000000000e+02
1.000000000000000000e+00,0.000000000000000000e+00,0.000000000000000000e+00,0.000000000000000000e+00,6.210000000000000000e+02,4.995930194854736328e-01,1.975012063980102539e+00,4.875625198188792697e-01,0.000000000000000000e+00,0.000000000000000000e+00,1.110000000000000000e+02
1.000000000000000000e+00,1.000000000000000000e+00,1.000000000000000000e+00,5.000000000000000000e+00,6.250000000000000000e+02,3.732571601867675781e-01,2.022906064987182617e+00,6.603829236918088430e-01,0.000000000000000000e+00,0.000000000000000000e+00,1.110000000000000000e+02
1.000000000000000000e+00,0.000000000000000000e+00,0.000000000000000000e+00,0.000000000000000000e+00,6.240000000000000000e+02,2.376170158386230469e-01,1.589004039764404297e+00,3.664407970910145695e-01,0.000000000000000000e+00,1.000000000000000000e+00,1.120000000000000000e+02
1.000000000000000000e+00,0.000000000000000000e+00,0.000000000000000000e+00,0.000000000000000000e+00,6.230000000000000000e+02,2.887351512908935547e-01,1.964393854141235352e+00,6.807017158063338735e-01,0.000000000000000000e+00,1.000000000000000000e+00,1.110000000000000000e+02
1.000000000000000000e+00,1.000000000000000000e+00,1.000000000000000000e+00,1.000000000000000000e+00,6.230000000000000000e+02,1.515669822692871094e-01,1.407716989517211914e+00,2.721033349998797091e-01,0.000000000000000000e+00,0.000000000000000000e+00,1.110000000000000000e+02
1.000000000000000000e+00,1.000000000000000000e+00,1.000000000000000000e+00,2.000000000000000000e+00,6.240000000000000000e+02,2.852478027343750000e-01,1.545930862426757812e+00,2.681163704035581796e-01,0.000000000000000000e+00,1.000000000000000000e+00,1.120000000000000000e+02
1.000000000000000000e+00,1.000000000000000000e+00,1.000000000000000000e+00,3.000000000000000000e+00,6.260000000000000000e+02,4.023318290710449219e-01,1.678002119064331055e+00,2.795032618246462985e-01,0.000000000000000000e+00,0.000000000000000000e+00,1.120000000000000000e+02
1.000000000000000000e+00,0.000000000000000000e+00,0.000000000000000000e+00,0.000000000000000000e+00,6.250000000000000000e+02,3.997888565063476562e-01,1.710381031036376953e+00,3.232603604293666777e-01,0.000000000000000000e+00,1.000000000000000000e+00,1.110000000000000000e+02
1.000000000000000000e+00,1.000000000000000000e+00,1.000000000000000000e+00,2.000000000000000000e+00,6.260000000000000000e+02,3.440868854522705078e-01,1.854146957397460938e+00,5.273094787356478186e-01,0.000000000000000000e+00,0.000000000000000000e+00,1.110000000000000000e+02
1.000000000000000000e+00,0.000000000000000000e+00,0.000000000000000000e+00,0.000000000000000000e+00,6.250000000000000000e+02,3.213560581207275391e-01,1.559332132339477539e+00,2.536675531008494855e-01,0.000000000000000000e+00,0.000000000000000000e+00,1.110000000000000000e+02
1.000000000000000000e+00,0.000000000000000000e+00,0.000000000000000000e+00,0.000000000000000000e+00,6.240000000000000000e+02,6.526119709014892578e-01,2.273252964019775391e+00,6.266264395578503565e-01,0.000000000000000000e+00,0.000000000000000000e+00,1.110000000000000000e+02
1.000000000000000000e+00,0.000000000000000000e+00,0.000000000000000000e+00,0.000000000000000000e+00,6.230000000000000000e+02,2.419979572296142578e-01,1.474823951721191406e+00,2.519312922553531009e-01,0.000000000000000000e+00,1.000000000000000000e+00,1.120000000000000000e+02
1.000000000000000000e+00,1.000000000000000000e+00,1.000000000000000000e+00,2.000000000000000000e+00,6.240000000000000000e+02,5.337510108947753906e-01,1.981866121292114258e+00,4.503544115023894179e-01,0.000000000000000000e+00,1.000000000000000000e+00,1.110000000000000000e+02
1.000000000000000000e+00,1.000000000000000000e+00,1.000000000000000000e+00,3.000000000000000000e+00,6.260000000000000000e+02,2.684850692749023438e-01,1.886202096939086914e+00,6.197547447443536583e-01,0.000000000000000000e+00,0.000000000000000000e+00,1.110000000000000000e+02
1.000000000000000000e+00,1.000000000000000000e+00,1.000000000000000000e+00,2.000000000000000000e+00,6.270000000000000000e+02,2.591991424560546875e-01,1.539027929306030273e+00,2.925654068416239650e-01,1.000000000000000000e+00,1.000000000000000000e+00,1.120000000000000000e+02
1.000000000000000000e+00,1.000000000000000000e+00,1.000000000000000000e+00,2.000000000000000000e+00,6.280000000000000000e+02,4.748930931091308594e-01,1.934067010879516602e+00,4.764581123336250612e-01,0.000000000000000000e+00,1.000000000000000000e+00,1.110000000000000000e+02
1.000000000000000000e+00,1.000000000000000000e+00,1.000000000000000000e+00,3.000000000000000000e+00,6.300000000000000000e+02,3.045761585235595703e-01,1.716389894485473633e+00,4.263695179925015566e-01,0.000000000000000000e+00,1.000000000000000000e+00,1.120000000000000000e+02
1.000000000000000000e+00,0.000000000000000000e+00,0.000000000000000000e+00,0.000000000000000000e+00,6.290000000000000000e+02,2.909698486328125000e-01,1.960264921188354492e+00,6.864550960024591308e-01,0.000000000000000000e+00,0.000000000000000000e+00,1.120000000000000000e+02
1.000000000000000000e+00,0.000000000000000000e+00,0.000000000000000000e+00,0.000000000000000000e+00,6.280000000000000000e+02,1.654448509216308594e-01,1.729305982589721680e+00,5.659185109817574943e-01,0.000000000000000000e+00,1.000000000000000000e+00,1.110000000000000000e+02
1.000000000000000000e+00,1.000000000000000000e+00,1.000000000000000000e+00,0.000000000000000000e+00,6.270000000000000000e+02,2.100389003753662109e-01,1.816619157791137695e+00,6.158962025978387267e-01,0.000000000000000000e+00,1.000000000000000000e+00,1.120000000000000000e+02
1.000000000000000000e+00,0.000000000000000000e+00,0.000000000000000000e+00,0.000000000000000000e+00,6.260000000000000000e+02,2.875058650970458984e-01,1.758919000625610352e+00,4.750307987511914187e-01,0.000000000000000000e+00,1.000000000000000000e+00,1.110000000000000000e+02
1.000000000000000000e+00,1.000000000000000000e+00,1.000000000000000000e+00,2.000000000000000000e+00,6.270000000000000000e+02,2.455658912658691406e-01,1.883341073989868164e+00,6.416306771016604404e-01,0.000000000000000000e+00,1.000000000000000000e+00,1.120000000000000000e+02
0.000000000000000000e+00,0.000000000000000000e+00,1.000000000000000000e+00,0.000000000000000000e+00,6.260000000000000000e+02,3.242938518524169922e-01,1.776260852813720703e+00,4.681835848786840559e-01,0.000000000000000000e+00,0.000000000000000000e+00,1.120000000000000000e+02
0.000000000000000000e+00,1.000000000000000000e+00,0.000000000000000000e+00,1.000000000000000000e+00,6.260000000000000000e+02,3.240039348602294922e-01,1.756011009216308594e+00,4.409409040430311011e-01,0.000000000000000000e+00,0.000000000000000000e+00,1.120000000000000000e+02
1.000000000000000000e+00,1.000000000000000000e+00,1.000000000000000000e+00,2.000000000000000000e+00,6.270000000000000000e+02,3.601050376892089844e-01,1.628685951232910156e+00,2.865338462199776837e-01,0.000000000000000000e+00,0.000000000000000000e+00,1.120000000000000000e+02
0.000000000000000000e+00,0.000000000000000000e+00,1.000000000000000000e+00,0.000000000000000000e+00,6.260000000000000000e+02,4.758279323577880859e-01,1.961198806762695312e+00,4.975853301168148834e-01,1.000000000000000000e+00,0.000000000000000000e+00,1.120000000000000000e+02
1.000000000000000000e+00,0.000000000000000000e+00,0.000000000000000000e+00,0.000000000000000000e+00,6.250000000000000000e+02,2.967979907989501953e-01,1.674296855926513672e+00,3.887765836554831766e-01,0.000000000000000000e+00,0.000000000000000000e+00,1.120000000000000000e+02
0.000000000000000000e+00,1.000000000000000000e+00,0.000000000000000000e+00,3.000000000000000000e+00,6.270000000000000000e+02,2.217221260070800781e-01,1.782867193222045898e+00,5.715128403760092457e-01,0.000000000000000000e+00,0.000000000000000000e+00,1.120000000000000000e+02
1.000000000000000000e+00,1.000000000000000000e+00,1.000000000000000000e+00,3.000000000000000000e+00,6.290000000000000000e+02,2.103731632232666016e-01,1.864029884338378906e+00,6.688631365164210418e-01,0.000000000000000000e+00,1.000000000000000000e+00,1.110000000000000000e+02
0.000000000000000000e+00,0.000000000000000000e+00,1.000000000000000000e+00,0.000000000000000000e+00,6.280000000000000000e+02,3.506700992584228516e-01,1.705730915069580078e+00,3.583501282292201884e-01,0.000000000000000000e+00,0.000000000000000000e+00,1.110000000000000000e+02
1.000000000000000000e+00,0.000000000000000000e+00,0.000000000000000000e+00,0.000000000000000000e+00,6.270000000000000000e+02,4.027900695800781250e-01,1.656011104583740234e+00,2.645135601429059458e-01,0.000000000000000000e+00,0.000000000000000000e+00,1.110000000000000000e+02
0.000000000000000000e+00,1.000000000000000000e+00,0.000000000000000000e+00,1.000000000000000000e+00,6.270000000000000000e+02,3.418219089508056641e-01,1.726384878158569336e+00,4.074791000680366704e-01,0.000000000000000000e+00,0.000000000000000000e+00,1.110000000000000000e+02
1.000000000000000000e+00,1.000000000000000000e+00,1.000000000000000000e+00,3.000000000000000000e+00,6.290000000000000000e+02,4.025781154632568359e-01,2.097990989685058594e+00,7.052737741647316927e-01,0.000000000000000000e+00,1.000000000000000000e+00,1.120000000000000000e+02
0.000000000000000000e+00,1.000000000000000000e+00,0.000000000000000000e+00,1.000000000000000000e+00,6.290000000000000000e+02,3.017179965972900391e-01,1.612523078918457031e+00,3.182908036305498456e-01,0.000000000000000000e+00,1.000000000000000000e+00,1.110000000000000000e+02
1.000000000000000000e+00,0.000000000000000000e+00,0.000000000000000000e+00,0.000000000000000000e+00,6.280000000000000000e+02,4.750881195068359375e-01,2.008290052413940430e+00,5.430861614560840156e-01,0.000000000000000000e+00,0.000000000000000000e+00,1.110000000000000000e+02
0.000000000000000000e+00,1.000000000000000000e+00,0.000000000000000000e+00,3.000000000000000000e+00,6.300000000000000000e+02,1.791059970855712891e-01,1.912856101989746094e+00,7.391522551593535661e-01,1.000000000000000000e+00,1.000000000000000000e+00,1.120000000000000000e+02
1.000000000000000000e+00,1.000000000000000000e+00,1.000000000000000000e+00,2.000000000000000000e+00,6.310000000000000000e+02,2.315211296081542969e-01,1.855233907699584961e+00,6.279446859415720450e-01,0.000000000000000000e+00,0.000000000000000000e+00,1.120000000000000000e+02
0.000000000000000000e+00,1.000000000000000000e+00,0.000000000000000000e+00,3.000000000000000000e+00,6.330000000000000000e+02,2.795820236206054688e-01,1.703315019607543945e+00,4.315172567865305231e-01,0.000000000000000000e+00,0.000000000000000000e+00,1.120000000000000000e+02
1.000000000000000000e+00,1.000000000000000000e+00,1.000000000000000000e+00,3.000000000000000000e+00,6.350000000000000000e+02,4.286489486694335938e-01,2.144011020660400391e+00,7.253084783654297762e-01,0.000000000000000000e+00,0.000000000000000000e+00,1.120000000000000000e+02
0.000000000000000000e+00,0.000000000000000000e+00,1.000000000000000000e+00,0.000000000000000000e+00,6.340000000000000000e+02,2.227470874786376953e-01,1.808670043945312500e+00,6.011193261537907118e-01,0.000000000000000000e+00,1.000000000000000000e+00,1.110000000000000000e+02
1.000000000000000000e+00,0.000000000000000000e+00,0.000000000000000000e+00,0.000000000000000000e+00,6.330000000000000000e+02,3.241422176361083984e-01,2.005926132202148438e+00,6.901133152833867079e-01,0.000000000000000000e+00,0.000000000000000000e+00,1.110000000000000000e+02
0.000000000000000000e+00,0.000000000000000000e+00,1.000000000000000000e+00,0.000000000000000000e+00,6.320000000000000000e+02,2.941939830780029297e-01,1.721173048019409180e+00,4.449640151821774303e-01,0.000000000000000000e+00,1.000000000000000000e+00,1.120000000000000000e+02
1.000000000000000000e+00,1.000000000000000000e+00,1.000000000000000000e+00,4.000000000000000000e+00,6.350000000000000000e+02,4.326179027557373047e-01,1.782220840454101562e+00,3.606830943208378937e-01,0.000000000000000000e+00,0.000000000000000000e+00,1.120000000000000000e+02
0.000000000000000000e+00,0.000000000000000000e+00,1.000000000000000000e+00,0.000000000000000000e+00,6.340000000000000000e+02,5.462949275970458984e-01,1.984848022460937500e+00,4.455452377239956796e-01,0.000000000000000000e+00,0.000000000000000000e+00,1.120000000000000000e+02
0.000000000000000000e+00,1.000000000000000000e+00,0.000000000000000000e+00,2.000000000000000000e+00,6.350000000000000000e+02,5.680699348449707031e-01,2.005989074707031250e+00,4.515837278787371845e-01,0.000000000000000000e+00,0.000000000000000000e+00,1.120000000000000000e+02
0.000000000000000000e+00,0.000000000000000000e+00,1.000000000000000000e+00,0.000000000000000000e+00,6.340000000000000000e+02,3.704738616943359375e-01,1.778876066207885742e+00,4.139227699125469506e-01,0.000000000000000000e+00,1.000000000000000000e+00,1.110000000000000000e+02
1.000000000000000000e+00,0.000000000000000000e+00,0.000000000000000000e+00,0.000000000000000000e+00,6.330000000000000000e+02,4.388749599456787109e-01,2.029546022415161133e+00,6.100512760617695651e-01,0.000000000000000000e+00,1.000000000000000000e+00,1.120000000000000000e+02
0.000000000000000000e+00,0.000000000000000000e+00,1.000000000000000000e+00,0.000000000000000000e+00,6.320000000000000000e+02,2.565791606903076172e-01,1.493387937545776367e+00,2.538385454899346194e-01,0.000000000000000000e+00,0.000000000000000000e+00,1.120000000000000000e+02
0.000000000000000000e+00,0.000000000000000000e+00,1.000000000000000000e+00,0.000000000000000000e+00,6.310000000000000000e+02,5.556480884552001953e-01,1.859146833419799805e+00,3.130514755589280940e-01,0.000000000000000000e+00,0.000000000000000000e+00,1.120000000000000000e+02
1.000000000000000000e+00,1.000000000000000000e+00,1.000000000000000000e+00,3.000000000000000000e+00,6.330000000000000000e+02,5.707418918609619141e-01,2.171829223632812500e+00,6.179538102797332844e-01,0.000000000000000000e+00,0.000000000000000000e+00,1.120000000000000000e+02
1.000000000000000000e+00,0.000000000000000000e+00,0.000000000000000000e+00,0.000000000000000000e+00,6.320000000000000000e+02,4.295961856842041016e-01,2.000317811965942383e+00,5.684372140348664670e-01,0.000000000000000000e+00,0.000000000000000000e+00,1.120000000000000000e+02
1.000000000000000000e+00,0.000000000000000000e+00,0.000000000000000000e+00,0.000000000000000000e+00,6.310000000000000000e+02,3.346397876739501953e-01,1.963834047317504883e+00,6.321444879624827928e-01,0.000000000000000000e+00,1.000000000000000000e+00,1.110000000000000000e+02
1.000000000000000000e+00,1.000000000000000000e+00,1.000000000000000000e+00,3.000000000000000000e+00,6.330000000000000000e+02,2.739408016204833984e-01,2.016614198684692383e+00,7.488609639675118945e-01,0.000000000000000000e+00,1.000000000000000000e+00,1.120000000000000000e+02
1.000000000000000000e+00,1.000000000000000000e+00,1.000000000000000000e+00,2.000000000000000000e+00,6.340000000000000000e+02,2.353651523590087891e-01,1.532048940658569336e+00,2.981464394645226279e-01,1.000000000000000000e+00,1.000000000000000000e+00,1.110000000000000000e+02
1.000000000000000000e+00,1.000000000000000000e+00,1.000000000000000000e+00,5.000000000000000000e+00,6.380000000000000000e+02,4.937670230865478516e-01,2.118752002716064453e+00,6.499463230904507505e-01,0.000000000000000000e+00,0.000000000000000000e+00,1.110000000000000000e+02
1.000000000000000000e+00,1.000000000000000000e+00,1.000000000000000000e+00,3.000000000000000000e+00,6.400000000000000000e+02,4.264738559722900391e-01,1.698304176330566406e+00,2.820634138061856033e-01,0.000000000000000000e+00,0.000000000000000000e+00,1.110000000000000000e+02
1.000000000000000000e+00,0.000000000000000000e+00,0.000000000000000000e+00,0.000000000000000000e+00,6.390000000000000000e+02,5.662028789520263672e-01,1.813472986221313477e+00,2.622762806565128169e-01,0.000000000000000000e+00,1.000000000000000000e+00,1.120000000000000000e+02
0.000000000000000000e+00,1.000000000000000000e+00,0.000000000000000000e+00,4.000000000000000000e+00,6.420000000000000000e+02,3.876030445098876953e-01,1.983366012573242188e+00,6.120291139759315158e-01,0.000000000000000000e+00,0.000000000000000000e+00,1.120000000000000000e+02
0.000000000000000000e+00,1.000000000000000000e+00,0.000000000000000000e+00,2.000000000000000000e+00,6.430000000000000000e+02,2.292809486389160156e-01,1.903033018112182617e+00,6.817706121598721136e-01,0.000000000000000000e+00,1.000000000000000000e+00,1.110000000000000000e+02
0.000000000000000000e+00,0.000000000000000000e+00,1.000000000000000000e+00,0.000000000000000000e+00,6.420000000000000000e+02,1.776950359344482422e-01,1.757060050964355469e+00,5.889914025099307615e-01,0.000000000000000000e+00,0.000000000000000000e+00,1.110000000000000000e+02
1.000000000000000000e+00,0.000000000000000000e+00,0.000000000000000000e+00,0.000000000000000000e+00,6.410000000000000000e+02,3.627760410308837891e-01,1.754494905471801758e+00,3.938235834540966818e-01,0.000000000000000000e+00,0.000000000000000000e+00,1.110000000000000000e+02
0.000000000000000000e+00,0.000000000000000000e+00,1.000000000000000000e+00,0.000000000000000000e+00,6.400000000000000000e+02,4.108898639678955078e-01,1.760994195938110352e+00,3.715294571543972801e-01,0.000000000000000000e+00,1.000000000000000000e+00,1.120000000000000000e+02
1.000000000000000000e+00,1.000000000000000000e+00,1.000000000000000000e+00,3.000000000000000000e+00,6.420000000000000000e+02,3.872981071472167969e-01,2.018219947814941406e+00,6.395624493847313907e-01,0.000000000000000000e+00,1.000000000000000000e+00,1.110000000000000000e+02
1.000000000000000000e+00,0.000000000000000000e+00,0.000000000000000000e+00,0.000000000000000000e+00,6.410000000000000000e+02,2.726409435272216797e-01,1.719138145446777344e+00,4.589638683532418773e-01,0.000000000000000000e+00,1.000000000000000000e+00,1.120000000000000000e+02
0.000000000000000000e+00,0.000000000000000000e+00,1.000000000000000000e+00,0.000000000000000000e+00,6.400000000000000000e+02,2.400820255279541016e-01,1.781347036361694336e+00,5.569793918699563751e-01,0.000000000000000000e+00,1.000000000000000000e+00,1.110000000000000000e+02
1.000000000000000000e+00,0.000000000000000000e+00,0.000000000000000000e+00,0.000000000000000000e+00,6.390000000000000000e+02,2.307848930358886719e-01,1.514956951141357422e+00,2.889596758060539172e-01,0.000000000000000000e+00,0.000000000000000000e+00,1.110000000000000000e+02
0.000000000000000000e+00,1.000000000000000000e+00,0.000000000000000000e+00,2.000000000000000000e+00,6.400000000000000000e+02,4.641439914703369141e-01,2.049200057983398438e+00,5.876587999089256664e-01,0.000000000000000000e+00,1.000000000000000000e+00,1.120000000000000000e+02
0.000000000000000000e+00,1.000000000000000000e+00,0.000000000000000000e+00,3.000000000000000000e+00,6.420000000000000000e+02,2.651910781860351562e-01,1.768948078155517578e+00,5.070372990016769332e-01,0.000000000000000000e+00,1.000000000000000000e+00,1.110000000000000000e+02
0.000000000000000000e+00,1.000000000000000000e+00,0.000000000000000000e+00,1.000000000000000000e+00,6.420000000000000000e+02,2.101180553436279297e-01,1.588800907135009766e+00,3.959915047051021375e-01,0.000000000000000000e+00,0.000000000000000000e+00,1.110000000000000000e+02
0.000000000000000000e+00,1.000000000000000000e+00,0.000000000000000000e+00,2.000000000000000000e+00,6.430000000000000000e+02,5.072779655456542969e-01,1.854494094848632812e+00,3.673024263724466443e-01,1.000000000000000000e+00,1.000000000000000000e+00,1.120000000000000000e+02
0.000000000000000000e+00,0.000000000000000000e+00,1.000000000000000000e+00,0.000000000000000000e+00,6.420000000000000000e+02,5.147469043731689453e-01,1.916579008102416992e+00,4.005814026126337524e-01,0.000000000000000000e+00,0.000000000000000000e+00,1.120000000000000000e+02
1.000000000000000000e+00,1.000000000000000000e+00,1.000000000000000000e+00,2.000000000000000000e+00,6.430000000000000000e+02,4.711329936981201172e-01,1.769752025604248047e+00,3.038590539521034417e-01,0.000000000000000000e+00,1.000000000000000000e+00,1.110000000000000000e+02
1.000000000000000000e+00,1.000000000000000000e+00,1.000000000000000000e+00,2.000000000000000000e+00,6.440000000000000000e+02,4.145030975341796875e-01,1.909569025039672852e+00,4.966476387423496286e-01,0.000000000000000000e+00,0.000000000000000000e+00,1.110000000000000000e+02
1.000000000000000000e+00,0.000000000000000000e+00,0.000000000000000000e+00,0.000000000000000000e+00,6.430000000000000000e+02,2.924849987030029297e-01,1.698385000228881836e+00,4.285252220783190014e-01,0.000000000000000000e+00,1.000000000000000000e+00,1.120000000000000000e+02
0.000000000000000000e+00,1.000000000000000000e+00,0.000000000000000000e+00,3.000000000000000000e+00,6.450000000000000000e+02,3.315539360046386719e-01,1.895090103149414062e+00,5.735543529909024052e-01,0.000000000000000000e+00,0.000000000000000000e+00,1.120000000000000000e+02
0.000000000000000000e+00,1.000000000000000000e+00,0.000000000000000000e+00,2.000000000000000000e+00,6.460000000000000000e+02,2.776050567626953125e-01,2.003849029541015625e+00,7.439789338425732979e-01,0.000000000000000000e+00,0.000000000000000000e+00,1.120000000000000000e+02
0.000000000000000000e+00,1.000000000000000000e+00,0.000000000000000000e+00,3.000000000000000000e+00,6.480000000000000000e+02,2.247848510742187500e-01,1.674833059310913086e+00,4.691804299181209226e-01,0.000000000000000000e+00,0.000000000000000000e+00,1.120000000000000000e+02
0.000000000000000000e+00,0.000000000000000000e+00,1.000000000000000000e+00,0.000000000000000000e+00,6.470000000000000000e+02,3.414728641510009766e-01,2.016742944717407227e+00,6.857555262710848254e-01,0.000000000000000000e+00,0.000000000000000000e+00,1.120000000000000000e+02
1.000000000000000000e+00,0.000000000000000000e+00,0.000000000000000000e+00,0.000000000000000000e+00,6.460000000000000000e+02,2.858099937438964844e-01,1.682746171951293945e+00,4.022520792432627834e-01,0.000000000000000000e+00,0.000000000000000000e+00,1.120000000000000000e+02
0.000000000000000000e+00,0.000000000000000000e+00,1.000000000000000000e+00,0.000000000000000000e+00,6.450000000000000000e+02,3.896188735961914062e-01,1.891942977905273438e+00,5.108058745267829437e-01,0.000000000000000000e+00,0.000000000000000000e+00,1.120000000000000000e+02
1.000000000000000000e+00,1.000000000000000000e+00,1.000000000000000000e+00,3.000000000000000000e+00,6.470000000000000000e+02,4.143037796020507812e-01,1.668550014495849609e+00,2.630322326349840423e-01,0.000000000000000000e+00,0.000000000000000000e+00,1.120000000000000000e+02
1.000000000000000000e+00,0.000000000000000000e+00,0.000000000000000000e+00,0.000000000000000000e+00,6.460000000000000000e+02,6.856660842895507812e-01,2.022885084152221680e+00,3.525876780003422417e-01,0.000000000000000000e+00,1.000000000000000000e+00,1.110000000000000000e+02
1.000000000000000000e+00,1.000000000000000000e+00,1.000000000000000000e+00,3.000000000000000000e+00,6.480000000000000000e+02,4.854381084442138672e-01,1.876674890518188477e+00,3.959535823918426400e-01,0.000000000000000000e+00,1.000000000000000000e+00,1.120000000000000000e+02
1.000000000000000000e+00,1.000000000000000000e+00,1.000000000000000000e+00,4.000000000000000000e+00,6.510000000000000000e+02,3.908181190490722656e-01,2.079935073852539062e+00,7.089704275155865876e-01,0.000000000000000000e+00,0.000000000000000000e+00,1.120000000000000000e+02
1.000000000000000000e+00,1.000000000000000000e+00,1.000000000000000000e+00,1.000000000000000000e+00,6.510000000000000000e+02,2.645709514617919922e-01,1.776025056838989258e+00,5.186309406102037611e-01,0.000000000000000000e+00,0.000000000000000000e+00,1.120000000000000000e+02
1.000000000000000000e+00,0.000000000000000000e+00,0.000000000000000000e+00,0.000000000000000000e+00,6.500000000000000000e+02,4.872992038726806641e-01,2.055694103240966797e+00,5.743934505768011345e-01,0.000000000000000000e+00,0.000000000000000000e+00,1.120000000000000000e+02
1.000000000000000000e+00,1.000000000000000000e+00,1.000000000000000000e+00,2.000000000000000000e+00,6.510000000000000000e+02,2.724368572235107422e-01,1.786615848541259766e+00,5.275217576331501235e-01,1.000000000000000000e+00,1.000000000000000000e+00,1.110000000000000000e+02
1.000000000000000000e+00,1.000000000000000000e+00,1.000000000000000000e+00,2.000000000000000000e+00,6.520000000000000000e+02,3.030910491943359375e-01,1.869252920150756836e+00,5.803998446942626455e-01,0.000000000000000000e+00,0.000000000000000000e+00,1.110000000000000000e+02
1.000000000000000000e+00,1.000000000000000000e+00,1.000000000000000000e+00,3.000000000000000000e+00,6.540000000000000000e+02,2.784919738769531250e-01,1.701229095458984375e+00,4.318457457321073223e-01,0.000000000000000000e+00,0.000000000000000000e+00,1.110000000000000000e+02
1.000000000000000000e+00,1.000000000000000000e+00,1.000000000000000000e+00,1.000000000000000000e+00,6.540000000000000000e+02,3.835878372192382812e-01,1.801059007644653320e+00,4.329923384647501594e-01,0.000000000000000000e+00,0.000000000000000000e+00,1.110000000000000000e+02
1.000000000000000000e+00,1.000000000000000000e+00,1.000000000000000000e+00,5.000000000000000000e+00,6.580000000000000000e+02,3.700749874114990234e-01,1.845288991928100586e+00,4.783146865442000073e-01,0.000000000000000000e+00,1.000000000000000000e+00,1.120000000000000000e+02
1.000000000000000000e+00,1.000000000000000000e+00,1.000000000000000000e+00,2.000000000000000000e+00,6.590000000000000000e+02,3.778378963470458984e-01,1.702644109725952148e+00,3.478468202762119987e-01,0.000000000000000000e+00,1.000000000000000000e+00,1.110000000000000000e+02
1.000000000000000000e+00,1.000000000000000000e+00,1.000000000000000000e+00,2.000000000000000000e+00,6.600000000000000000e+02,4.738790988922119141e-01,2.145964860916137695e+00,6.935379248939945729e-01,0.000000000000000000e+00,0.000000000000000000e+00,1.110000000000000000e+02
1.000000000000000000e+00,0.000000000000000000e+00,0.000000000000000000e+00,0.000000000000000000e+00,6.590000000000000000e+02,1.589291095733642578e-01,1.504577875137329102e+00,3.652012955230468094e-01,0.000000000000000000e+00,0.000000000000000000e+00,1.110000000000000000e+02
1.000000000000000000e+00,1.000000000000000000e+00,1.000000000000000000e+00,3.000000000000000000e+00,6.610000000000000000e+02,4.469840526580810547e-01,1.962467193603515625e+00,5.275996436561738445e-01,0.000000000000000000e+00,0.000000000000000000e+00,1.110000000000000000e+02
1.000000000000000000e+00,1.000000000000000000e+00,1.000000000000000000e+00,4.000000000000000000e+00,6.640000000000000000e+02,3.542680740356445312e-01,1.799629926681518555e+00,4.606875880783254940e-01,0.000000000000000000e+00,0.000000000000000000e+00,1.110000000000000000e+02
1.000000000000000000e+00,0.000000000000000000e+00,0.000000000000000000e+00,0.000000000000000000e+00,6.630000000000000000e+02,4.084379673004150391e-01,2.088583946228027344e+00,6.991335872849511190e-01,0.000000000000000000e+00,0.000000000000000000e+00,1.110000000000000000e+02
1.000000000000000000e+00,0.000000000000000000e+00,0.000000000000000000e+00,0.000000000000000000e+00,6.620000000000000000e+02,2.464070320129394531e-01,1.876587152481079102e+00,6.258782427131666104e-01,0.000000000000000000e+00,0.000000000000000000e+00,1.110000000000000000e+02
1.000000000000000000e+00,0.000000000000000000e+00,0.000000000000000000e+00,0.000000000000000000e+00,6.610000000000000000e+02,3.188221454620361328e-01,1.566243886947631836e+00,2.592129775902396460e-01,0.000000000000000000e+00,1.000000000000000000e+00,1.120000000000000000e+02
1.000000000000000000e+00,0.000000000000000000e+00,0.000000000000000000e+00,0.000000000000000000e+00,6.600000000000000000e+02,6.342289447784423828e-01,1.944036006927490234e+00,3.199743829017036023e-01,0.000000000000000000e+00,1.000000000000000000e+00,1.110000000000000000e+02
1.000000000000000000e+00,1.000000000000000000e+00,1.000000000000000000e+00,3.000000000000000000e+00,6.620000000000000000e+02,5.133471488952636719e-01,1.910931110382080078e+00,3.976009678564209060e-01,0.000000000000000000e+00,0.000000000000000000e+00,1.110000000000000000e+02
1.000000000000000000e+00,1.000000000000000000e+00,1.000000000000000000e+00,5.000000000000000000e+00,6.660000000000000000e+02,6.453399658203125000e-01,2.241709947586059570e+00,6.058489656858720984e-01,1.000000000000000000e+00,0.000000000000000000e+00,1.110000000000000000e+02
1.000000000000000000e+00,1.000000000000000000e+00,1.000000000000000000e+00,2.000000000000000000e+00,6.670000000000000000e+02,4.004080295562744141e-01,1.781660079956054688e+00,3.878063062295862284e-01,0.000000000000000000e+00,1.000000000000000000e+00,1.120000000000000000e+02
1.000000000000000000e+00,0.000000000000000000e+00,0.000000000000000000e+00,0.000000000000000000e+00,6.660000000000000000e+02,4.681739807128906250e-01,2.173417091369628906e+00,7.109902171941999693e-01,0.000000000000000000e+00,0.000000000000000000e+00,1.120000000000000000e+02
1.000000000000000000e+00,1.000000000000000000e+00,1.000000000000000000e+00,3.000000000000000000e+00,6.680000000000000000e+02,3.185379505157470703e-01,1.827383995056152344e+00,5.220028129471497857e-01,0.000000000000000000e+00,0.000000000000000000e+00,1.120000000000000000e+02
1.000000000000000000e+00,1.000000000000000000e+00,1.000000000000000000e+00,1.000000000000000000e+00,6.680000000000000000e+02,3.324029445648193359e-01,1.837260961532592773e+00,5.093578398072520219e-01,0.000000000000000000e+00,0.000000000000000000e+00,1.120000000000000000e+02
1.000000000000000000e+00,0.000000000000000000e+00,0.000000000000000000e+00,0.000000000000000000e+00,6.670000000000000000e+02,3.341410160064697266e-01,1.886254072189331055e+00,5.622848823799716511e-01,0.000000000000000000e+00,0.000000000000000000e+00,1.120000000000000000e+02
1.000000000000000000e+00,1.000000000000000000e+00,1.000000000000000000e+00,1.000000000000000000e+00,6.670000000000000000e+02,3.078470230102539062e-01,1.839652061462402344e+00,5.520035455310048356e-01,0.000000000000000000e+00,0.000000000000000000e+00,1.120000000000000000e+02
1.000000000000000000e+00,1.000000000000000000e+00,1.000000000000000000e+00,2.000000000000000000e+00,6.680000000000000000e+02,3.189229965209960938e-01,1.900053977966308594e+00,5.854690636879468224e-01,0.000000000000000000e+00,0.000000000000000000e+00,1.120000000000000000e+02
1.000000000000000000e+00,0.000000000000000000e+00,0.000000000000000000e+00,0.000000000000000000e+00,6.670000000000000000e+02,2.571048736572265625e-01,1.830111980438232422e+00,5.823174747342656499e-01,0.000000000000000000e+00,0.000000000000000000e+00,1.120000000000000000e+02
1.000000000000000000e+00,0.000000000000000000e+00,0.000000000000000000e+00,0.000000000000000000e+00,6.660000000000000000e+02,4.267339706420898438e-01,2.165233135223388672e+00,7.479480380238913151e-01,0.000000000000000000e+00,1.000000000000000000e+00,1.110000000000000000e+02
1.000000000000000000e+00,0.000000000000000000e+00,0.000000000000000000e+00,0.000000000000000000e+00,6.650000000000000000e+02,2.727458477020263672e-01,1.636878013610839844e+00,3.848344759067337528e-01,0.000000000000000000e+00,1.000000000000000000e+00,1.120000000000000000e+02
1.000000000000000000e+00,0.000000000000000000e+00,0.000000000000000000e+00,0.000000000000000000e+00,6.640000000000000000e+02,4.407510757446289062e-01,2.119622945785522461e+00,6.875663038204502531e-01,0.000000000000000000e+00,1.000000000000000000e+00,1.110000000000000000e+02
1.000000000000000000e+00,1.000000000000000000e+00,1.000000000000000000e+00,2.000000000000000000e+00,6.650000000000000000e+02,3.041620254516601562e-01,1.967000007629394531e+00,6.713608083261903836e-01,0.000000000000000000e+00,1.000000000000000000e+00,1.120000000000000000e+02
1.000000000000000000e+00,0.000000000000000000e+00,0.000000000000000000e+00,0.000000000000000000e+00,6.640000000000000000e+02,3.615550994873046875e-01,1.708988189697265625e+00,3.640648417171601925e-01,0.000000000000000000e+00,0.000000000000000000e+00,1.120000000000000000e+02
0.000000000000000000e+00,1.000000000000000000e+00,0.000000000000000000e+00,2.000000000000000000e+00,6.650000000000000000e+02,5.146579742431640625e-01,2.149008989334106445e+00,6.461851111266583292e-01,0.000000000000000000e+00,0.000000000000000000e+00,1.120000000000000000e+02
0.000000000000000000e+00,0.000000000000000000e+00,1.000000000000000000e+00,0.000000000000000000e+00,6.640000000000000000e+02,3.637261390686035156e-01,1.752596855163574219e+00,3.991067393400568597e-01,0.000000000000000000e+00,0.000000000000000000e+00,1.120000000000000000e+02
1.000000000000000000e+00,0.000000000000000000e+00,0.000000000000000000e+00,0.000000000000000000e+00,6.630000000000000000e+02,2.892501354217529297e-01,2.030166149139404297e+00,7.456867435193492710e-01,0.000000000000000000e+00,1.000000000000000000e+00,1.110000000000000000e+02
0.000000000000000000e+00,1.000000000000000000e+00,0.000000000000000000e+00,3.000000000000000000e+00,6.650000000000000000e+02,3.955569267272949219e-01,1.817076921463012695e+00,4.298229115230545738e-01,0.000000000000000000e+00,1.000000000000000000e+00,1.120000000000000000e+02
0.000000000000000000e+00,1.000000000000000000e+00,0.000000000000000000e+00,2.000000000000000000e+00,6.660000000000000000e+02,4.939968585968017578e-01,2.082545995712280273e+00,5.956583444965135588e-01,1.000000000000000000e+00,1.000000000000000000e+00,1.110000000000000000e+02
0.000000000000000000e+00,1.000000000000000000e+00,0.000000000000000000e+00,3.000000000000000000e+00,6.680000000000000000e+02,2.727179527282714844e-01,1.744668006896972656e+00,4.904992246793343225e-01,0.000000000000000000e+00,0.000000000000000000e+00,1.110000000000000000e+02
0.000000000000000000e+00,0.000000000000000000e+00,1.000000000000000000e+00,0.000000000000000000e+00,6.670000000000000000e+02,3.027400970458984375e-01,1.915521860122680664e+00,6.226409664618589579e-01,0.000000000000000000e+00,0.000000000000000000e+00,1.110000000000000000e+02
1.000000000000000000e+00,1.000000000000000000e+00,1.000000000000000000e+00,2.000000000000000000e+00,6.680000000000000000e+02,2.351858615875244141e-01,1.533845186233520508e+00,3.069016308153142414e-01,0.000000000000000000e+00,0.000000000000000000e+00,1.110000000000000000e+02
1.000000000000000000e+00,0.000000000000000000e+00,0.000000000000000000e+00,0.000000000000000000e+00,6.670000000000000000e+02,4.649560451507568359e-01,2.206364870071411133e+00,7.462269805949385271e-01,0.000000000000000000e+00,1.000000000000000000e+00,1.120000000000000000e+02
0.000000000000000000e+00,1.000000000000000000e+00,0.000000000000000000e+00,2.000000000000000000e+00,6.680000000000000000e+02,3.209590911865234375e-01,1.927606105804443359e+00,6.241134395429639437e-01,0.000000000000000000e+00,1.000000000000000000e+00,1.110000000000000000e+02
0.000000000000000000e+00,0.000000000000000000e+00,1.000000000000000000e+00,0.000000000000000000e+00,6.670000000000000000e+02,3.796441555023193359e-01,1.779716968536376953e+00,4.040811093508442364e-01,0.000000000000000000e+00,0.000000000000000000e+00,1.110000000000000000e+02
0.000000000000000000e+00,1.000000000000000000e+00,0.000000000000000000e+00,2.000000000000000000e+00,6.680000000000000000e+02,5.165131092071533203e-01,2.086134910583496094e+00,5.734648565639901552e-01,0.000000000000000000e+00,1.000000000000000000e+00,1.120000000000000000e+02
0.000000000000000000e+00,0.000000000000000000e+00,1.000000000000000000e+00,0.000000000000000000e+00,6.670000000000000000e+02,2.902019023895263672e-01,1.792776107788085938e+00,5.163391945377076020e-01,0.000000000000000000e+00,1.000000000000000000e+00,1.110000000000000000e+02
0.000000000000000000e+00,1.000000000000000000e+00,0.000000000000000000e+00,1.000000000000000000e+00,6.670000000000000000e+02,3.572499752044677734e-01,1.780218839645385742e+00,4.300829486959473202e-01,0.000000000000000000e+00,0.000000000000000000e+00,1.110000000000000000e+02
0.000000000000000000e+00,1.000000000000000000e+00,0.000000000000000000e+00,2.000000000000000000e+00,6.680000000000000000e+02,3.446338176727294922e-01,1.790696144104003906e+00,4.541758509071066596e-01,0.000000000000000000e+00,0.000000000000000000e+00,1.110000000000000000e+02
0.000000000000000000e+00,0.000000000000000000e+00,1.000000000000000000e+00,0.000000000000000000e+00,6.670000000000000000e+02,6.266160011291503906e-01,1.942163944244384766e+00,3.299050128138382720e-01,0.000000000000000000e+00,1.000000000000000000e+00,1.120000000000000000e+02
0.000000000000000000e+00,0.000000000000000000e+00,1.000000000000000000e+00,0.000000000000000000e+00,6.660000000000000000e+02,6.735019683837890625e-01,2.400616168975830078e+00,7.468627086831272077e-01,0.000000000000000000e+00,1.000000000000000000e+00,1.110000000000000000e+02
1.000000000000000000e+00,0.000000000000000000e+00,0.000000000000000000e+00,0.000000000000000000e+00,6.650000000000000000e+02,3.415410518646240234e-01,1.655866861343383789e+00,3.365714971295795110e-01,0.000000000000000000e+00,1.000000000000000000e+00,1.120000000000000000e+02
0.000000000000000000e+00,0.000000000000000000e+00,1.000000000000000000e+00,0.000000000000000000e+00,6.640000000000000000e+02,5.828828811645507812e-01,1.880074024200439453e+00,3.001060326894169905e-01,0.000000000000000000e+00,1.000000000000000000e+00,1.110000000000000000e+02
0.000000000000000000e+00,0.000000000000000000e+00,1.000000000000000000e+00,0.000000000000000000e+00,6.630000000000000000e+02,5.326578617095947266e-01,1.959992170333862305e+00,4.267291830285778187e-01,0.000000000000000000e+00,1.000000000000000000e+00,1.120000000000000000e+02
1.000000000000000000e+00,0.000000000000000000e+00,0.000000000000000000e+00,0.000000000000000000e+00,6.620000000000000000e+02,4.287171363830566406e-01,1.712019920349121094e+00,3.056181487711390754e-01,0.000000000000000000e+00,1.000000000000000000e+00,1.110000000000000000e+02
0.000000000000000000e+00,1.000000000000000000e+00,0.000000000000000000e+00,2.000000000000000000e+00,6.630000000000000000e+02,6.771488189697265625e-01,2.203288078308105469e+00,5.420944939664901208e-01,0.000000000000000000e+00,1.000000000000000000e+00,1.120000000000000000e+02
0.000000000000000000e+00,1.000000000000000000e+00,0.000000000000000000e+00,2.000000000000000000e+00,6.640000000000000000e+02,5.601849555969238281e-01,1.797844171524047852e+00,2.569708494923638176e-01,0.000000000000000000e+00,1.000000000000000000e+00,1.110000000000000000e+02
0.000000000000000000e+00,0.000000000000000000e+00,1.000000000000000000e+00,0.000000000000000000e+00,6.630000000000000000e+02,7.072780132293701172e-01,2.350160837173461914e+00,6.568526452752710965e-01,0.000000000000000000e+00,0.000000000000000000e+00,1.110000000000000000e+02
0.000000000000000000e+00,1.000000000000000000e+00,0.000000000000000000e+00,4.000000000000000000e+00,6.660000000000000000e+02,4.454219341278076172e-01,2.034989118576049805e+00,5.918887439548641272e-01,0.000000000000000000e+00,0.000000000000000000e+00,1.110000000000000000e+02
0.000000000000000000e+00,1.000000000000000000e+00,0.000000000000000000e+00,1.000000000000000000e+00,6.660000000000000000e+02,3.130731582641601562e-01,1.676150083541870117e+00,3.517791148836180160e-01,1.000000000000000000e+00,0.000000000000000000e+00,1.110000000000000000e+02
0.000000000000000000e+00,1.000000000000000000e+00,0.000000000000000000e+00,2.000000000000000000e+00,6.670000000000000000e+02,6.547880172729492188e-01,2.256100893020629883e+00,6.077189627394248284e-01,0.000000000000000000e+00,1.000000000000000000e+00,1.120000000000000000e+02
0.000000000000000000e+00,0.000000000000000000e+00,1.000000000000000000e+00,0.000000000000000000e+00,6.660000000000000000e+02,2.579329013824462891e-01,1.860884904861450195e+00,6.186895157977461146e-01,0.000000000000000000e+00,0.000000000000000000e+00,1.120000000000000000e+02
0.000000000000000000e+00,1.000000000000000000e+00,0.000000000000000000e+00,2.000000000000000000e+00,6.670000000000000000e+02,2.452850341796875000e-01,1.504190206527709961e+00,2.566210363257034333e-01,0.000000000000000000e+00,0.000000000000000000e+00,1.120000000000000000e+02
0.000000000000000000e+00,1.000000000000000000e+00,0.000000000000000000e+00,2.000000000000000000e+00,6.680000000000000000e+02,5.463769435882568359e-01,2.151084899902343750e+00,6.074268921736313276e-01,0.000000000000000000e+00,0.000000000000000000e+00,1.120000000000000000e+02
0.000000000000000000e+00,1.000000000000000000e+00,0.000000000000000000e+00,3.000000000000000000e+00,6.700000000000000000e+02,2.744951248168945312e-01,1.963394880294799805e+00,7.041908180315958887e-01,0.000000000000000000e+00,0.000000000000000000e+00,1.120000000000000000e+02
0.000000000000000000e+00,0.000000000000000000e+00,1.000000000000000000e+00,0.000000000000000000e+00,6.690000000000000000e+02,2.897918224334716797e-01,1.590514898300170898e+00,3.118376709932528801e-01,0.000000000000000000e+00,0.000000000000000000e+00,1.120000000000000000e+02
1.000000000000000000e+00,1.000000000000000000e+00,1.000000000000000000e+00,3.000000000000000000e+00,6.710000000000000000e+02,4.605090618133544922e-01,2.008002042770385742e+00,5.696242759718437298e-01,0.000000000000000000e+00,0.000000000000000000e+00,1.120000000000000000e+02
1.000000000000000000e+00,0.000000000000000000e+00,0.000000000000000000e+00,0.000000000000000000e+00,6.700000000000000000e+02,6.170079708099365234e-01,2.359750032424926758e+00,7.459783065907737987e-01,0.000000000000000000e+00,1.000000000000000000e+00,1.110000000000000000e+02
1.000000000000000000e+00,1.000000000000000000e+00,1.000000000000000000e+00,2.000000000000000000e+00,6.710000000000000000e+02,3.440451622009277344e-01,2.009969949722290039e+00,6.894552316783189028e-01,0.000000000000000000e+00,1.000000000000000000e+00,1.120000000000000000e+02
1.000000000000000000e+00,0.000000000000000000e+00,0.000000000000000000e+00,0.000000000000000000e+00,6.700000000000000000e+02,5.334861278533935547e-01,2.057567834854125977e+00,5.306211952828709943e-01,0.000000000000000000e+00,0.000000000000000000e+00,1.120000000000000000e+02
0.000000000000000000e+00,1.000000000000000000e+00,0.000000000000000000e+00,1.000000000000000000e+00,6.700000000000000000e+02,3.305580615997314453e-01,1.606267929077148438e+00,2.872296594244622137e-01,0.000000000000000000e+00,0.000000000000000000e+00,1.120000000000000000e+02
0.000000000000000000e+00,0.000000000000000000e+00,1.000000000000000000e+00,0.000000000000000000e+00,6.690000000000000000e+02,7.519128322601318359e-01,2.343955993652343750e+00,5.976220187376373172e-01,0.000000000000000000e+00,0.000000000000000000e+00,1.120000000000000000e+02
1.000000000000000000e+00,0.000000000000000000e+00,0.000000000000000000e+00,0.000000000000000000e+00,6.680000000000000000e+02,3.586680889129638672e-01,1.694877862930297852e+00,3.595129502767624996e-01,0.000000000000000000e+00,1.000000000000000000e+00,1.110000000000000000e+02
1.000000000000000000e+00,0.000000000000000000e+00,0.000000000000000000e+00,0.000000000000000000e+00,6.670000000000000000e+02,5.946850776672363281e-01,1.897747039794921875e+00,3.240345278787197802e-01,0.000000000000000000e+00,1.000000000000000000e+00,1.120000000000000000e+02
1.000000000000000000e+00,0.000000000000000000e+00,0.000000000000000000e+00,0.000000000000000000e+00,6.660000000000000000e+02,6.447391510009765625e-01,2.082905054092407227e+00,4.568834822302028642e-01,1.000000000000000000e+00,1.000000000000000000e+00,1.110000000000000000e+02
0.000000000000000000e+00,0.000000000000000000e+00,1.000000000000000000e+00,0.000000000000000000e+00,6.650000000000000000e+02,3.595471382141113281e-01,1.977117061614990234e+00,6.339021060780267725e-01,0.000000000000000000e+00,0.000000000000000000e+00,1.110000000000000000e+02
1.000000000000000000e+00,0.000000000000000000e+00,0.000000000000000000e+00,0.000000000000000000e+00,6.640000000000000000e+02,2.992858886718750000e-01,1.609045028686523438e+00,3.100545472468382302e-01,0.000000000000000000e+00,0.000000000000000000e+00,1.110000000000000000e+02
0.000000000000000000e+00,0.000000000000000000e+00,1.000000000000000000e+00,0.000000000000000000e+00,6.630000000000000000e+02,3.952770233154296875e-01,1.994955062866210938e+00,6.048023678180632912e-01,0.000000000000000000e+00,0.000000000000000000e+00,1.110000000000000000e+02
1.000000000000000000e+00,1.000000000000000000e+00,1.000000000000000000e+00,3.000000000000000000e+00,6.650000000000000000e+02,2.893600463867187500e-01,1.577600002288818359e+00,2.994633704676586961e-01,0.000000000000000000e+00,1.000000000000000000e+00,1.120000000000000000e+02
1.000000000000000000e+00,0.000000000000000000e+00,0.000000000000000000e+00,0.000000000000000000e+00,6.640000000000000000e+02,6.181318759918212891e-01,2.312587976455688477e+00,6.950557393149736640e-01,0.000000000000000000e+00,1.000000000000000000e+00,1.110000000000000000e+02
1.000000000000000000e+00,1.000000000000000000e+00,1.000000000000000000e+00,1.000000000000000000e+00,6.640000000000000000e+02,3.312139511108398438e-01,1.716304063796997070e+00,3.950883328308524289e-01,0.000000000000000000e+00,0.000000000000000000e+00,1.110000000000000000e+02
1.000000000000000000e+00,0.000000000000000000e+00,0.000000000000000000e+00,0.000000000000000000e+00,6.630000000000000000e+02,5.695810317993164062e-01,2.191532850265502930e+00,6.364607185686819157e-01,0.000000000000000000e+00,0.000000000000000000e+00,1.110000000000000000e+02
1.000000000000000000e+00,0.000000000000000000e+00,0.000000000000000000e+00,0.000000000000000000e+00,6.620000000000000000e+02,3.946738243103027344e-01,2.065986156463623047e+00,6.858354269815847282e-01,0.000000000000000000e+00,1.000000000000000000e+00,1.120000000000000000e+02
1.000000000000000000e+00,1.000000000000000000e+00,1.000000000000000000e+00,1.000000000000000000e+00,6.620000000000000000e+02,2.780478000640869141e-01,1.869614839553833008e+00,6.056020926806655602e-01,0.000000000000000000e+00,1.000000000000000000e+00,1.110000000000000000e+02
1.000000000000000000e+00,1.000000000000000000e+00,1.000000000000000000e+00,2.000000000000000000e+00,6.630000000000000000e+02,2.765531539916992188e-01,1.957964181900024414e+00,6.968965961441535573e-01,0.000000000000000000e+00,1.000000000000000000e+00,1.120000000000000000e+02
1.000000000000000000e+00,1.000000000000000000e+00,1.000000000000000000e+00,2.000000000000000000e+00,6.640000000000000000e+02,4.875547885894775391e-01,2.146632909774780273e+00,6.769492800702407997e-01,0.000000000000000000e+00,1.000000000000000000e+00,1.110000000000000000e+02
1.000000000000000000e+00,1.000000000000000000e+00,1.000000000000000000e+00,2.000000000000000000e+00,6.650000000000000000e+02,3.653559684753417969e-01,2.104223012924194336e+00,7.479001691732385382e-01,0.000000000000000000e+00,0.000000000000000000e+00,1.110000000000000000e+02
1.000000000000000000e+00,1.000000000000000000e+00,1.000000000000000000e+00,3.000000000000000000e+00,6.670000000000000000e+02,1.866590976715087891e-01,1.565905809402465820e+00,3.975805362560071998e-01,0.000000000000000000e+00,1.000000000000000000e+00,1.120000000000000000e+02
1.000000000000000000e+00,0.000000000000000000e+00,0.000000000000000000e+00,0.000000000000000000e+00,6.660000000000000000e+02,7.311069965362548828e-01,2.104024887084960938e+00,3.850412508831151381e-01,0.000000000000000000e+00,1.000000000000000000e+00,1.110000000000000000e+02
0.000000000000000000e+00,1.000000000000000000e+00,0.000000000000000000e+00,1.000000000000000000e+00,6.660000000000000000e+02,4.574761390686035156e-01,1.722615003585815430e+00,2.745134750108827459e-01,0.000000000000000000e+00,0.000000000000000000e+00,1.110000000000000000e+02
0.000000000000000000e+00,1.000000000000000000e+00,0.000000000000000000e+00,5.000000000000000000e+00,6.700000000000000000e+02,5.338828563690185547e-01,2.171373128890991211e+00,6.456077259366348464e-01,0.000000000000000000e+00,0.000000000000000000e+00,1.110000000000000000e+02
1.000000000000000000e+00,1.000000000000000000e+00,1.000000000000000000e+00,3.000000000000000000e+00,6.720000000000000000e+02,4.283289909362792969e-01,2.018840074539184570e+00,5.979136112343824694e-01,0.000000000000000000e+00,0.000000000000000000e+00,1.110000000000000000e+02
1.000000000000000000e+00,1.000000000000000000e+00,1.000000000000000000e+00,0.000000000000000000e+00,6.710000000000000000e+02,3.667500019073486328e-01,1.892765998840332031e+00,5.408195501525175919e-01,0.000000000000000000e+00,0.000000000000000000e+00,1.110000000000000000e+02
1.000000000000000000e+00,1.000000000000000000e+00,1.000000000000000000e+00,3.000000000000000000e+00,6.730000000000000000e+02,4.227700233459472656e-01,2.071610927581787109e+00,6.623946291844662326e-01,0.000000000000000000e+00,0.000000000000000000e+00,1.110000000000000000e+02
0.000000000000000000e+00,0.000000000000000000e+00,1.000000000000000000e+00,0.000000000000000000e+00,6.720000000000000000e+02,2.871849536895751953e-01,1.929409027099609375e+00,6.585822847631269683e-01,1.000000000000000000e+00,1.000000000000000000e+00,1.120000000000000000e+02
1.000000000000000000e+00,0.000000000000000000e+00,0.000000000000000000e+00,0.000000000000000000e+00,6.710000000000000000e+02,2.438609600067138672e-01,1.930517911911010742e+00,7.058318965108858478e-01,0.000000000000000000e+00,0.000000000000000000e+00,1.120000000000000000e+02
0.000000000000000000e+00,0.000000000000000000e+00,1.000000000000000000e+00,0.000000000000000000e+00,6.700000000000000000e+02,2.406010627746582031e-01,1.957002878189086914e+00,7.295709412837698693e-01,0.000000000000000000e+00,0.000000000000000000e+00,1.120000000000000000e+02
0.000000000000000000e+00,0.000000000000000000e+00,1.000000000000000000e+00,0.000000000000000000e+00,6.690000000000000000e+02,3.327507972717285156e-01,1.748419046401977539e+00,4.283744363861461402e-01,0.000000000000000000e+00,0.000000000000000000e+00,1.120000000000000000e+02
0.000000000000000000e+00,0.000000000000000000e+00,1.000000000000000000e+00,0.000000000000000000e+00,6.680000000000000000e+02,3.057949542999267578e-01,1.617341995239257812e+00,3.292259914102860785e-01,0.000000000000000000e+00,0.000000000000000000e+00,1.120000000000000000e+02
1.000000000000000000e+00,0.000000000000000000e+00,0.000000000000000000e+00,0.000000000000000000e+00,6.670000000000000000e+02,5.931761264801025391e-01,2.301245212554931641e+00,7.301684470496971890e-01,0.000000000000000000e+00,0.000000000000000000e+00,1.120000000000000000e+02
1.000000000000000000e+00,0.000000000000000000e+00,0.000000000000000000e+00,0.000000000000000000e+00,6.660000000000000000e+02,3.482789993286132812e-01,1.620100021362304688e+00,2.841260048428914664e-01,0.000000000000000000e+00,0.000000000000000000e+00,1.120000000000000000e+02
1.000000000000000000e+00,1.000000000000000000e+00,1.000000000000000000e+00,4.000000000000000000e+00,6.690000000000000000e+02,3.730330467224121094e-01,1.689214944839477539e+00,3.233759462122002271e-01,0.000000000000000000e+00,1.000000000000000000e+00,1.110000000000000000e+02
1.000000000000000000e+00,0.000000000000000000e+00,0.000000000000000000e+00,0.000000000000000000e+00,6.680000000000000000e+02,3.847749233245849609e-01,1.696568965911865234e+00,3.200275921181046646e-01,0.000000000000000000e+00,1.000000000000000000e+00,1.120000000000000000e+02
0.000000000000000000e+00,1.000000000000000000e+00,0.000000000000000000e+00,4.000000000000000000e+00,6.710000000000000000e+02,2.998311519622802734e-01,2.046672105789184570e+00,7.496711614867661577e-01,0.000000000000000000e+00,0.000000000000000000e+00,1.120000000000000000e+02
1.000000000000000000e+00,1.000000000000000000e+00,1.000000000000000000e+00,1.000000000000000000e+00,6.710000000000000000e+02,3.768470287322998047e-01,1.637583017349243164e+00,2.711806335830957981e-01,0.000000000000000000e+00,0.000000000000000000e+00,1.120000000000000000e+02
0.000000000000000000e+00,1.000000000000000000e+00,0.000000000000000000e+00,1.000000000000000000e+00,6.710000000000000000e+02,8.465659618377685547e-01,2.468015909194946289e+00,6.389157689293964992e-01,0.000000000000000000e+00,0.000000000000000000e+00,1.120000000000000000e+02
0.000000000000000000e+00,0.000000000000000000e+00,1.000000000000000000e+00,0.000000000000000000e+00,6.700000000000000000e+02,3.070521354675292969e-01,1.949382066726684570e+00,6.550417513637056821e-01,0.000000000000000000e+00,1.000000000000000000e+00,1.110000000000000000e+02
1.000000000000000000e+00,1.000000000000000000e+00,1.000000000000000000e+00,3.000000000000000000e+00,6.720000000000000000e+02,3.610558509826660156e-01,1.932694911956787109e+00,5.711930828006912542e-01,0.000000000000000000e+00,1.000000000000000000e+00,1.120000000000000000e+02
0.000000000000000000e+00,0.000000000000000000e+00,1.000000000000000000e+00,0.000000000000000000e+00,6.710000000000000000e+02,4.637959003448486328e-01,1.881938934326171875e+00,4.200457723171800994e-01,0.000000000000000000e+00,0.000000000000000000e+00,1.120000000000000000e+02
1.000000000000000000e+00,1.000000000000000000e+00,1.000000000000000000e+00,2.000000000000000000e+00,6.720000000000000000e+02,4.625420570373535156e-01,2.143893003463745117e+00,6.804557339873054111e-01,0.000000000000000000e+00,0.000000000000000000e+00,1.120000000000000000e+02
1.000000000000000000e+00,1.000000000000000000e+00,1.000000000000000000e+00,4.000000000000000000e+00,6.750000000000000000e+02,3.732848167419433594e-01,1.930804014205932617e+00,5.780998706283289046e-01,0.000000000000000000e+00,0.000000000000000000e+00,1.120000000000000000e+02
0.000000000000000000e+00,0.000000000000000000e+00,1.000000000000000000e+00,0.000000000000000000e+00,6.740000000000000000e+02,3.799059391021728516e-01,1.832520008087158203e+00,4.608262574129606826e-01,1.000000000000000000e+00,1.000000000000000000e+00,1.110000000000000000e+02
1.000000000000000000e+00,0.000000000000000000e+00,0.000000000000000000e+00,0.000000000000000000e+00,6.730000000000000000e+02,5.977311134338378906e-01,2.030385971069335938e+00,4.412913863068503861e-01,0.000000000000000000e+00,1.000000000000000000e+00,1.120000000000000000e+02
0.000000000000000000e+00,1.000000000000000000e+00,0.000000000000000000e+00,2.000000000000000000e+00,6.740000000000000000e+02,3.462491035461425781e-01,1.714117050170898438e+00,3.722550263343097909e-01,0.000000000000000000e+00,1.000000000000000000e+00,1.110000000000000000e+02
0.000000000000000000e+00,1.000000000000000000e+00,0.000000000000000000e+00,3.000000000000000000e+00,6.760000000000000000e+02,6.518750190734863281e-01,2.301570892333984375e+00,6.569846040179561086e-01,0.000000000000000000e+00,0.000000000000000000e+00,1.110000000000000000e+02
0.000000000000000000e+00,0.000000000000000000e+00,1.000000000000000000e+00,0.000000000000000000e+00,6.750000000000000000e+02,5.669398307800292969e-01,2.143666028976440430e+00,5.841431657214997131e-01,0.000000000000000000e+00,1.000000000000000000e+00,1.120000000000000000e+02
1.000000000000000000e+00,1.000000000000000000e+00,1.000000000000000000e+00,2.000000000000000000e+00,6.760000000000000000e+02,4.040369987487792969e-01,1.710548877716064453e+00,3.117142665043209360e-01,0.000000000000000000e+00,1.000000000000000000e+00,1.110000000000000000e+02
1.000000000000000000e+00,0.000000000000000000e+00,0.000000000000000000e+00,0.000000000000000000e+00,6.750000000000000000e+02,7.420790195465087891e-01,2.437781095504760742e+00,7.158304837996964931e-01,0.000000000000000000e+00,0.000000000000000000e+00,1.110000000000000000e+02
0.000000000000000000e+00,1.000000000000000000e+00,0.000000000000000000e+00,2.000000000000000000e+00,6.760000000000000000e+02,2.761530876159667969e-01,1.901764869689941406e+00,6.344562093281822523e-01,0.000000000000000000e+00,0.000000000000000000e+00,1.110000000000000000e+02
0.000000000000000000e+00,0.000000000000000000e+00,1.000000000000000000e+00,0.000000000000000000e+00,6.750000000000000000e+02,6.981170177459716797e-01,1.995918989181518555e+00,2.974692741941923901e-01,0.000000000000000000e+00,0.000000000000000000e+00,1.110000000000000000e+02
1.000000000000000000e+00,0.000000000000000000e+00,0.000000000000000000e+00,0.000000000000000000e+00,6.740000000000000000e+02,7.208628654479980469e-01,2.161072969436645508e+00,4.584639303726013027e-01,0.000000000000000000e+00,0.000000000000000000e+00,1.110000000000000000e+02
1.000000000000000000e+00,0.000000000000000000e+00,0.000000000000000000e+00,0.000000000000000000e+00,6.730000000000000000e+02,4.092769622802734375e-01,1.902074098587036133e+00,5.105866420575164710e-01,0.000000000000000000e+00,0.000000000000000000e+00,1.110000000000000000e+02
1.000000000000000000e+00,1.000000000000000000e+00,1.000000000000000000e+00,3.000000000000000000e+00,6.750000000000000000e+02,4.603400230407714844e-01,2.039473056793212891e+00,6.000388864698906755e-01,1.000000000000000000e+00,1.000000000000000000e+00,1.120000000000000000e+02
1.000000000000000000e+00,1.000000000000000000e+00,1.000000000000000000e+00,2.000000000000000000e+00,6.760000000000000000e+02,7.494101524353027344e-01,2.064264059066772461e+00,3.147142403670923905e-01,0.000000000000000000e+00,0.000000000000000000e+00,1.120000000000000000e+02
0.000000000000000000e+00,1.000000000000000000e+00,0.000000000000000000e+00,2.000000000000000000e+00,6.770000000000000000e+02,5.335099697113037109e-01,2.041826963424682617e+00,5.231082838549268033e-01,0.000000000000000000e+00,0.000000000000000000e+00,1.120000000000000000e+02
0.000000000000000000e+00,1.000000000000000000e+00,0.000000000000000000e+00,1.000000000000000000e+00,6.770000000000000000e+02,5.317740440368652344e-01,2.270474910736083984e+00,7.434751835855037960e-01,0.000000000000000000e+00,0.000000000000000000e+00,1.120000000000000000e+02
1.000000000000000000e+00,0.000000000000000000e+00,0.000000000000000000e+00,0.000000000000000000e+00,6.760000000000000000e+02,3.200840950012207031e-01,1.670510053634643555e+00,3.644608170246043111e-01,0.000000000000000000e+00,1.000000000000000000e+00,1.110000000000000000e+02
0.000000000000000000e+00,0.000000000000000000e+00,1.000000000000000000e+00,0.000000000000000000e+00,6.750000000000000000e+02,5.345900058746337891e-01,1.835793972015380859e+00,3.170544172970643504e-01,0.000000000000000000e+00,0.000000000000000000e+00,1.110000000000000000e+02
1.000000000000000000e+00,1.000000000000000000e+00,1.000000000000000000e+00,3.000000000000000000e+00,6.770000000000000000e+02,3.585550785064697266e-01,2.093466043472290039e+00,7.434889345393758120e-01,0.000000000000000000e+00,1.000000000000000000e+00,1.120000000000000000e+02
1.000000000000000000e+00,1.000000000000000000e+00,1.000000000000000000e+00,1.000000000000000000e+00,6.770000000000000000e+02,3.053188323974609375e-01,1.668629169464111328e+00,3.792516178527436943e-01,0.000000000000000000e+00,0.000000000000000000e+00,1.120000000000000000e+02
1.000000000000000000e+00,0.000000000000000000e+00,0.000000000000000000e+00,0.000000000000000000e+00,6.760000000000000000e+02,3.987231254577636719e-01,1.709514856338500977e+00,3.222326576125926767e-01,0.000000000000000000e+00,1.000000000000000000e+00,1.110000000000000000e+02
1.000000000000000000e+00,1.000000000000000000e+00,1.000000000000000000e+00,3.000000000000000000e+00,6.780000000000000000e+02,6.101241111755371094e-01,2.017996072769165039e+00,4.235418508440945695e-01,0.000000000000000000e+00,1.000000000000000000e+00,1.120000000000000000e+02
1.000000000000000000e+00,1.000000000000000000e+00,1.000000000000000000e+00,2.000000000000000000e+00,6.790000000000000000e+02,5.173912048339843750e-01,2.073411941528320312e+00,5.635691823220857488e-01,0.000000000000000000e+00,0.000000000000000000e+00,1.120000000000000000e+02
0.000000000000000000e+00,0.000000000000000000e+00,1.000000000000000000e+00,0.000000000000000000e+00,6.780000000000000000e+02,3.808140754699707031e-01,1.638920068740844727e+00,2.695383747358198745e-01,0.000000000000000000e+00,1.000000000000000000e+00,1.110000000000000000e+02
1.000000000000000000e+00,1.000000000000000000e+00,1.000000000000000000e+00,2.000000000000000000e+00,6.790000000000000000e+02,4.739630222320556641e-01,1.873056173324584961e+00,4.092194839376027682e-01,0.000000000000000000e+00,1.000000000000000000e+00,1.120000000000000000e+02
0.000000000000000000e+00,0.000000000000000000e+00,1.000000000000000000e+00,0.000000000000000000e+00,6.780000000000000000e+02,3.443520069122314453e-01,1.747705936431884766e+00,4.236628319050115832e-01,1.000000000000000000e+00,1.000000000000000000e+00,1.110000000000000000e+02
1.000000000000000000e+00,0.000000000000000000e+00,0.000000000000000000e+00,0.000000000000000000e+00,6.770000000000000000e+02,3.981900215148925781e-01,2.002130031585693359e+00,6.090069960853496944e-01,0.000000000000000000e+00,0.000000000000000000e+00,1.110000000000000000e+02
0.000000000000000000e+00,0.000000000000000000e+00,1.000000000000000000e+00,0.000000000000000000e+00,6.760000000000000000e+02,2.765500545501708984e-01,1.749943971633911133e+00,4.925130402277220210e-01,0.000000000000000000e+00,0.000000000000000000e+00,1.110000000000000000e+02
0.000000000000000000e+00,0.000000000000000000e+00,1.000000000000000000e+00,0.000000000000000000e+00,6.750000000000000000e+02,6.482529640197753906e-01,1.282492399215698242e+01,3.681042983820495551e-01,1.000000000000000000e+00,1.000000000000000000e+00,1.120000000000000000e+02
1.000000000000000000e+00,0.000000000000000000e+00,0.000000000000000000e+00,0.000000000000000000e+00,6.740000000000000000e+02,3.235669136047363281e-01,1.919776916503906250e+00,6.043832785298532961e-01,0.000000000000000000e+00,1.000000000000000000e+00,1.110000000000000000e+02
1.000000000000000000e+00,0.000000000000000000e+00,0.000000000000000000e+00,0.000000000000000000e+00,6.730000000000000000e+02,2.329621315002441406e-01,1.826234102249145508e+00,5.974014303223877942e-01,0.000000000000000000e+00,0.000000000000000000e+00,1.110000000000000000e+02
0.000000000000000000e+00,1.000000000000000000e+00,0.000000000000000000e+00,2.000000000000000000e+00,6.740000000000000000e+02,3.084230422973632812e-01,2.006983995437622070e+00,7.210092381760218050e-01,0.000000000000000000e+00,1.000000000000000000e+00,1.120000000000000000e+02
0.000000000000000000e+00,0.000000000000000000e+00,1.000000000000000000e+00,0.000000000000000000e+00,6.730000000000000000e+02,2.647571563720703125e-01,1.808979988098144531e+00,5.468925441759835415e-01,0.000000000000000000e+00,1.000000000000000000e+00,1.110000000000000000e+02
0.000000000000000000e+00,0.000000000000000000e+00,1.000000000000000000e+00,0.000000000000000000e+00,6.720000000000000000e+02,3.198249340057373047e-01,1.892287969589233398e+00,5.892361692420534647e-01,0.000000000000000000e+00,0.000000000000000000e+00,1.110000000000000000e+02
1.000000000000000000e+00,0.000000000000000000e+00,0.000000000000000000e+00,0.000000000000000000e+00,6.710000000000000000e+02,3.170011043548583984e-01,2.028429985046386719e+00,7.175754660590638601e-01,0.000000000000000000e+00,1.000000000000000000e+00,1.120000000000000000e+02
0.000000000000000000e+00,1.000000000000000000e+00,0.000000000000000000e+00,3.000000000000000000e+00,6.730000000000000000e+02,3.008081912994384766e-01,1.823318958282470703e+00,5.245382604504126300e-01,0.000000000000000000e+00,1.000000000000000000e+00,1.110000000000000000e+02
1.000000000000000000e+00,1.000000000000000000e+00,1.000000000000000000e+00,2.000000000000000000e+00,6.740000000000000000e+02,4.171738624572753906e-01,2.037807941436767578e+00,6.290085928525841474e-01,0.000000000000000000e+00,0.000000000000000000e+00,1.110000000000000000e+02
1.000000000000000000e+00,1.000000000000000000e+00,1.000000000000000000e+00,3.000000000000000000e+00,6.760000000000000000e+02,3.609089851379394531e-01,1.992671012878417969e+00,6.384283420330714165e-01,0.000000000000000000e+00,0.000000000000000000e+00,1.110000000000000000e+02
0.000000000000000000e+00,1.000000000000000000e+00,0.000000000000000000e+00,3.000000000000000000e+00,6.780000000000000000e+02,4.171280860900878906e-01,1.770466089248657227e+00,3.592587479532323713e-01,0.000000000000000000e+00,0.000000000000000000e+00,1.110000000000000000e+02
0.000000000000000000e+00,0.000000000000000000e+00,1.000000000000000000e+00,0.000000000000000000e+00,6.770000000000000000e+02,5.002691745758056641e-01,2.189881086349487305e+00,6.989016333036447426e-01,0.000000000000000000e+00,0.000000000000000000e+00,1.110000000000000000e+02
0.000000000000000000e+00,1.000000000000000000e+00,0.000000000000000000e+00,2.000000000000000000e+00,6.780000000000000000e+02,3.763349056243896484e-01,1.691518068313598633e+00,3.241991929952112717e-01,0.000000000000000000e+00,0.000000000000000000e+00,1.110000000000000000e+02
0.000000000000000000e+00,1.000000000000000000e+00,0.000000000000000000e+00,3.000000000000000000e+00,6.800000000000000000e+02,4.950659275054931641e-01,1.762468814849853516e+00,2.701579454409499537e-01,1.000000000000000000e+00,1.000000000000000000e+00,1.120000000000000000e+02
1.000000000000000000e+00,0.000000000000000000e+00,0.000000000000000000e+00,0.000000000000000000e+00,6.790000000000000000e+02,5.764691829681396484e-01,1.960352182388305664e+00,3.971302622231814849e-01,0.000000000000000000e+00,1.000000000000000000e+00,1.110000000000000000e+02
1.000000000000000000e+00,1.000000000000000000e+00,1.000000000000000000e+00,2.000000000000000000e+00,6.800000000000000000e+02,5.005321502685546875e-01,2.056097030639648438e+00,5.697829362901629668e-01,0.000000000000000000e+00,1.000000000000000000e+00,1.120000000000000000e+02
1.000000000000000000e+00,1.000000000000000000e+00,1.000000000000000000e+00,4.000000000000000000e+00,6.830000000000000000e+02,3.299899101257324219e-01,2.069956064224243164e+00,7.396737329165459229e-01,0.000000000000000000e+00,0.000000000000000000e+00,1.120000000000000000e+02
1.000000000000000000e+00,0.000000000000000000e+00,0.000000000000000000e+00,0.000000000000000000e+00,6.820000000000000000e+02,3.385000228881835938e-01,1.980191946029663086e+00,6.533650051101097533e-01,0.000000000000000000e+00,1.000000000000000000e+00,1.110000000000000000e+02
1.000000000000000000e+00,1.000000000000000000e+00,1.000000000000000000e+00,2.000000000000000000e+00,6.830000000000000000e+02,3.072021007537841797e-01,1.885607004165649414e+00,5.891418412647557723e-01,0.000000000000000000e+00,1.000000000000000000e+00,1.120000000000000000e+02
1.000000000000000000e+00,1.000000000000000000e+00,1.000000000000000000e+00,2.000000000000000000e+00,6.840000000000000000e+02,3.098471164703369141e-01,1.908463001251220703e+00,6.143211117782327868e-01,0.000000000000000000e+00,0.000000000000000000e+00,1.120000000000000000e+02
1.000000000000000000e+00,1.000000000000000000e+00,1.000000000000000000e+00,0.000000000000000000e+00,6.830000000000000000e+02,3.069388866424560547e-01,1.850562095642089844e+00,5.649858480972493879e-01,0.000000000000000000e+00,0.000000000000000000e+00,1.120000000000000000e+02
0.000000000000000000e+00,0.000000000000000000e+00,1.000000000000000000e+00,0.000000000000000000e+00,6.820000000000000000e+02,4.800348281860351562e-01,2.086273908615112305e+00,6.179578084968061491e-01,0.000000000000000000e+00,0.000000000000000000e+00,1.120000000000000000e+02
1.000000000000000000e+00,0.000000000000000000e+00,0.000000000000000000e+00,0.000000000000000000e+00,6.810000000000000000e+02,3.360109329223632812e-01,1.775873899459838867e+00,4.441176580234345583e-01,0.000000000000000000e+00,0.000000000000000000e+00,1.120000000000000000e+02
0.000000000000000000e+00,0.000000000000000000e+00,1.000000000000000000e+00,0.000000000000000000e+00,6.800000000000000000e+02,4.414031505584716797e-01,1.782382965087890625e+00,3.599954180594271413e-01,1.000000000000000000e+00,0.000000000000000000e+00,1.120000000000000000e+02
1.000000000000000000e+00,0.000000000000000000e+00,0.000000000000000000e+00,0.000000000000000000e+00,6.790000000000000000e+02,3.281910419464111328e-01,1.745210170745849609e+00,4.385389844851629859e-01,0.000000000000000000e+00,1.000000000000000000e+00,1.110000000000000000e+02
0.000000000000000000e+00,1.000000000000000000e+00,0.000000000000000000e+00,2.000000000000000000e+00,6.800000000000000000e+02,3.302600383758544922e-01,1.928418874740600586e+00,6.001850999703939316e-01,0.000000000000000000e+00,0.000000000000000000e+00,1.110000000000000000e+02
0.000000000000000000e+00,0.000000000000000000e+00,1.000000000000000000e+00,0.000000000000000000e+00,6.790000000000000000e+02,2.800018787384033203e-01,1.885838985443115234e+00,6.027860468042784969e-01,0.000000000000000000e+00,1.000000000000000000e+00,1.120000000000000000e+02
0.000000000000000000e+00,0.000000000000000000e+00,1.000000000000000000e+00,0.000000000000000000e+00,6.780000000000000000e+02,4.527230262756347656e-01,1.896006107330322266e+00,4.490552565470616875e-01,0.000000000000000000e+00,1.000000000000000000e+00,1.110000000000000000e+02
0.000000000000000000e+00,1.000000000000000000e+00,0.000000000000000000e+00,2.000000000000000000e+00,6.790000000000000000e+02,4.287910461425781250e-01,1.896990060806274414e+00,4.627787224034626279e-01,0.000000000000000000e+00,0.000000000000000000e+00,1.110000000000000000e+02
0.000000000000000000e+00,1.000000000000000000e+00,0.000000000000000000e+00,3.000000000000000000e+00,6.810000000000000000e+02,5.264959335327148438e-01,1.990236997604370117e+00,4.864303813672410937e-01,0.000000000000000000e+00,0.000000000000000000e+00,1.110000000000000000e+02
0.000000000000000000e+00,1.000000000000000000e+00,0.000000000000000000e+00,1.000000000000000000e+00,6.810000000000000000e+02,4.996008872985839844e-01,2.194228887557983398e+00,6.971406083487969862e-01,0.000000000000000000e+00,1.000000000000000000e+00,1.120000000000000000e+02
0.000000000000000000e+00,1.000000000000000000e+00,0.000000000000000000e+00,3.000000000000000000e+00,6.830000000000000000e+02,2.823739051818847656e-01,1.586418151855468750e+00,3.174192421567413880e-01,0.000000000000000000e+00,1.000000000000000000e+00,1.110000000000000000e+02
0.000000000000000000e+00,0.000000000000000000e+00,1.000000000000000000e+00,0.000000000000000000e+00,6.820000000000000000e+02,5.744080543518066406e-01,1.935691833496093750e+00,3.697963112655563434e-01,0.000000000000000000e+00,1.000000000000000000e+00,1.120000000000000000e+02
0.000000000000000000e+00,1.000000000000000000e+00,0.000000000000000000e+00,3.000000000000000000e+00,6.840000000000000000e+02,5.051069259643554688e-01,2.189249038696289062e+00,6.921156221541095999e-01,0.000000000000000000e+00,1.000000000000000000e+00,1.110000000000000000e+02
0.000000000000000000e+00,0.000000000000000000e+00,1.000000000000000000e+00,0.000000000000000000e+00,6.830000000000000000e+02,3.288431167602539062e-01,1.796403169631958008e+00,4.721548116795575289e-01,0.000000000000000000e+00,0.000000000000000000e+00,1.110000000000000000e+02
0.000000000000000000e+00,0.000000000000000000e+00,1.000000000000000000e+00,0.000000000000000000e+00,6.820000000000000000e+02,4.879009723663330078e-01,2.077798843383789062e+00,5.999337695258640801e-01,0.000000000000000000e+00,0.000000000000000000e+00,1.110000000000000000e+02
0.000000000000000000e+00,1.000000000000000000e+00,0.000000000000000000e+00,2.000000000000000000e+00,6.830000000000000000e+02,2.836480140686035156e-01,1.801804065704345703e+00,5.185732155661212373e-01,1.000000000000000000e+00,1.000000000000000000e+00,1.120000000000000000e+02
0.000000000000000000e+00,0.000000000000000000e+00,1.000000000000000000e+00,0.000000000000000000e+00,6.820000000000000000e+02,3.916981220245361328e-01,2.058401107788085938e+00,6.768866163359175125e-01,0.000000000000000000e+00,0.000000000000000000e+00,1.120000000000000000e+02
0.000000000000000000e+00,1.000000000000000000e+00,0.000000000000000000e+00,2.000000000000000000e+00,6.830000000000000000e+02,2.527470588684082031e-01,1.553246021270751953e+00,3.139427364835202239e-01,0.000000000000000000e+00,0.000000000000000000e+00,1.120000000000000000e+02
0.000000000000000000e+00,0.000000000000000000e+00,1.000000000000000000e+00,0.000000000000000000e+00,6.820000000000000000e+02,5.458841323852539062e-01,2.201159954071044922e+00,6.648687613577963784e-01,0.000000000000000000e+00,0.000000000000000000e+00,1.120000000000000000e+02
0.000000000000000000e+00,1.000000000000000000e+00,0.000000000000000000e+00,3.000000000000000000e+00,6.840000000000000000e+02,3.219079971313476562e-01,1.928749084472656250e+00,6.270611056430708263e-01,0.000000000000000000e+00,0.000000000000000000e+00,1.120000000000000000e+02
0.000000000000000000e+00,1.000000000000000000e+00,0.000000000000000000e+00,2.000000000000000000e+00,6.850000000000000000e+02,3.157320022583007812e-01,1.707501888275146484e+00,4.015771493813086179e-01,0.000000000000000000e+00,0.000000000000000000e+00,1.120000000000000000e+02
0.000000000000000000e+00,0.000000000000000000e+00,1.000000000000000000e+00,0.000000000000000000e+00,6.840000000000000000e+02,5.221140384674072266e-01,1.910323858261108398e+00,3.953119150821739480e-01,0.000000000000000000e+00,0.000000000000000000e+00,1.120000000000000000e+02
0.000000000000000000e+00,1.000000000000000000e+00,0.000000000000000000e+00,3.000000000000000000e+00,6.860000000000000000e+02,5.591609477996826172e-01,2.152083158493041992e+00,6.139304401187171134e-01,0.000000000000000000e+00,0.000000000000000000e+00,1.120000000000000000e+02
0.000000000000000000e+00,0.000000000000000000e+00,1.000000000000000000e+00,0.000000000000000000e+00,6.850000000000000000e+02,4.062619209289550781e-01,1.895313024520874023e+00,5.094325995415871500e-01,0.000000000000000000e+00,0.000000000000000000e+00,1.120000000000000000e+02
0.000000000000000000e+00,1.000000000000000000e+00,0.000000000000000000e+00,2.000000000000000000e+00,6.860000000000000000e+02,4.153470993041992188e-01,2.010581016540527344e+00,6.033301477107988475e-01,0.000000000000000000e+00,0.000000000000000000e+00,1.120000000000000000e+02
0.000000000000000000e+00,1.000000000000000000e+00,0.000000000000000000e+00,1.000000000000000000e+00,6.860000000000000000e+02,3.197560310363769531e-01,1.727493047714233398e+00,4.144328160791255766e-01,0.000000000000000000e+00,0.000000000000000000e+00,1.120000000000000000e+02
0.000000000000000000e+00,1.000000000000000000e+00,0.000000000000000000e+00,3.000000000000000000e+00,6.880000000000000000e+02,6.271209716796875000e-01,1.854503870010375977e+00,2.525376077011475262e-01,0.000000000000000000e+00,0.000000000000000000e+00,1.120000000000000000e+02
0.000000000000000000e+00,0.000000000000000000e+00,1.000000000000000000e+00,0.000000000000000000e+00,6.870000000000000000e+02,5.564861297607421875e-01,2.229803085327148438e+00,6.819375092549455619e-01,0.000000000000000000e+00,0.000000000000000000e+00,1.120000000000000000e+02
0.000000000000000000e+00,1.000000000000000000e+00,0.000000000000000000e+00,4.000000000000000000e+00,6.900000000000000000e+02,2.691438198089599609e-01,2.005229949951171875e+00,7.371932941751977442e-01,0.000000000000000000e+00,0.000000000000000000e+00,1.120000000000000000e+02
0.000000000000000000e+00,1.000000000000000000e+00,0.000000000000000000e+00,2.000000000000000000e+00,6.910000000000000000e+02,2.643210887908935547e-01,1.732438087463378906e+00,4.700139636540419663e-01,0.000000000000000000e+00,1.000000000000000000e+00,1.110000000000000000e+02
0.000000000000000000e+00,1.000000000000000000e+00,0.000000000000000000e+00,2.000000000000000000e+00,6.920000000000000000e+02,5.109670162200927734e-01,2.133527994155883789e+00,6.367977181921004037e-01,0.000000000000000000e+00,1.000000000000000000e+00,1.120000000000000000e+02
0.000000000000000000e+00,1.000000000000000000e+00,0.000000000000000000e+00,1.000000000000000000e+00,6.920000000000000000e+02,4.661951065063476562e-01,2.087576150894165039e+00,6.244713959443302098e-01,0.000000000000000000e+00,0.000000000000000000e+00,1.120000000000000000e+02
0.000000000000000000e+00,1.000000000000000000e+00,0.000000000000000000e+00,3.000000000000000000e+00,6.940000000000000000e+02,3.264532089233398438e-01,1.761679887771606445e+00,4.530186503964222511e-01,0.000000000000000000e+00,0.000000000000000000e+00,1.120000000000000000e+02
0.000000000000000000e+00,0.000000000000000000e+00,1.000000000000000000e+00,0.000000000000000000e+00,6.930000000000000000e+02,5.258598327636718750e-01,2.142838001251220703e+00,6.291357997755899767e-01,0.000000000000000000e+00,0.000000000000000000e+00,1.120000000000000000e+02
0.000000000000000000e+00,0.000000000000000000e+00,1.000000000000000000e+00,0.000000000000000000e+00,6.920000000000000000e+02,2.836129665374755859e-01,1.547288179397583008e+00,2.769091833637231104e-01,0.000000000000000000e+00,0.000000000000000000e+00,1.120000000000000000e+02
0.000000000000000000e+00,0.000000000000000000e+00,1.000000000000000000e+00,0.000000000000000000e+00,6.910000000000000000e+02,5.746929645538330078e-01,1.997012853622436523e+00,4.404924821949138258e-01,0.000000000000000000e+00,0.000000000000000000e+00,1.120000000000000000e+02
1.000000000000000000e+00,0.000000000000000000e+00,0.000000000000000000e+00,0.000000000000000000e+00,6.900000000000000000e+02,4.927580356597900391e-01,2.111153125762939453e+00,6.348932493065650995e-01,1.000000000000000000e+00,0.000000000000000000e+00,1.120000000000000000e+02
0.000000000000000000e+00,1.000000000000000000e+00,0.000000000000000000e+00,2.000000000000000000e+00,6.910000000000000000e+02,2.791991233825683594e-01,1.809994935989379883e+00,5.283803501559196647e-01,0.000000000000000000e+00,1.000000000000000000e+00,1.110000000000000000e+02
0.000000000000000000e+00,0.000000000000000000e+00,1.000000000000000000e+00,0.000000000000000000e+00,6.900000000000000000e+02,4.592139720916748047e-01,1.816593885421752930e+00,3.785771171794767853e-01,0.000000000000000000e+00,0.000000000000000000e+00,1.110000000000000000e+02
0.000000000000000000e+00,1.000000000000000000e+00,0.000000000000000000e+00,3.000000000000000000e+00,6.920000000000000000e+02,3.446080684661865234e-01,1.946783781051635742e+00,6.251227621183090832e-01,0.000000000000000000e+00,1.000000000000000000e+00,1.120000000000000000e+02
0.000000000000000000e+00,0.000000000000000000e+00,1.000000000000000000e+00,0.000000000000000000e+00,6.910000000000000000e+02,4.606730937957763672e-01,2.127132892608642578e+00,6.690206040621741179e-01,0.000000000000000000e+00,1.000000000000000000e+00,1.110000000000000000e+02
