,choice,accuracy,solution,reward,cumulative_reward,rt,total_trial_time,iti,cp_with_slow_fast,obs_cp_with_slow_fast,high_val_cue,ID,condition
0,1.0,1.0,1.0,5.0,604.0,0.7982921600341796,2.332757949829101,0.5343237122260125,0.0,0.0,112.0,762,lv
1,0.0,1.0,0.0,3.0,606.0,0.28799510002136225,1.5478911399841309,0.26588800646110017,0.0,0.0,112.0,762,lv
2,0.0,1.0,0.0,2.0,607.0,0.3190770149230957,2.0346899032592773,0.7168514788297743,0.0,0.0,112.0,762,lv
3,0.0,0.0,1.0,0.0,606.0,0.2818131446838379,1.6160349845886233,0.33333581002959023,0.0,1.0,111.0,762,lv
4,0.0,0.0,1.0,0.0,605.0,0.3051300048828125,1.9981918334960935,0.697917633677481,0.0,1.0,112.0,762,lv
5,1.0,1.0,1.0,4.0,608.0,0.24086904525756836,1.6850349903106687,0.4665550900457832,0.0,1.0,111.0,762,lv
6,0.0,1.0,0.0,1.0,608.0,0.3540370464324951,1.8350558280944824,0.4849855776122397,0.0,1.0,112.0,762,lv
7,0.0,0.0,1.0,0.0,607.0,0.3566989898681641,1.663717985153198,0.3156246152219397,0.0,0.0,112.0,762,lv
8,1.0,0.0,0.0,0.0,606.0,0.2540922164916992,1.5523128509521484,0.3013088657894284,0.0,1.0,111.0,762,lv
9,0.0,0.0,1.0,0.0,605.0,0.25818490982055664,1.6175031661987302,0.3688143635934377,0.0,1.0,112.0,762,lv
10,0.0,1.0,0.0,4.0,608.0,0.31755304336547846,1.709272861480713,0.39480215776910327,0.0,0.0,112.0,762,lv
11,1.0,1.0,1.0,3.0,610.0,0.22756600379943845,1.7019851207733157,0.4967310457474408,0.0,0.0,112.0,762,lv
12,0.0,1.0,0.0,3.0,612.0,0.31567811965942383,1.6653549671173093,0.3622760854088,0.0,0.0,112.0,762,lv
13,0.0,1.0,0.0,5.0,616.0,0.3020269870758057,1.587804079055786,0.3002110142323246,0.0,0.0,112.0,762,lv
14,1.0,1.0,1.0,3.0,618.0,0.2980849742889404,1.732659101486206,0.4327816942227988,0.0,0.0,112.0,762,lv
15,1.0,1.0,1.0,4.0,621.0,0.29685211181640625,2.0225539207458496,0.7217861687718276,0.0,0.0,112.0,762,lv
16,1.0,1.0,1.0,1.0,621.0,0.28938603401184076,1.8049430847167969,0.5270139913640841,0.0,0.0,112.0,762,lv
17,0.0,1.0,0.0,3.0,623.0,0.2872970104217529,2.0197999477386475,0.7466280700357325,0.0,0.0,112.0,762,lv
18,1.0,0.0,0.0,0.0,622.0,0.21673083305358887,1.7695181369781494,0.5663999705533244,0.0,1.0,111.0,762,lv
19,0.0,0.0,1.0,0.0,621.0,0.32652115821838373,2.060909986495972,0.743888989425237,0.0,1.0,112.0,762,lv
20,0.0,0.0,1.0,0.0,620.0,0.30347299575805664,1.7729110717773438,0.4837839828415686,0.0,1.0,111.0,762,lv
21,1.0,1.0,1.0,1.0,620.0,0.2521729469299317,1.5278918743133543,0.2786041030999213,0.0,1.0,112.0,762,lv
22,0.0,0.0,1.0,0.0,619.0,0.33161306381225586,2.0260839462280273,0.7043272201103756,0.0,1.0,111.0,762,lv
23,0.0,0.0,1.0,0.0,618.0,0.3263359069824219,1.6951589584350586,0.3832532184280277,0.0,1.0,112.0,762,lv
24,1.0,0.0,0.0,0.0,617.0,0.2844350337982178,1.7972700595855713,0.5137592058951023,0.0,0.0,112.0,762,lv
25,0.0,0.0,1.0,0.0,616.0,0.21113204956054688,1.540247917175293,0.35421712950109696,0.0,1.0,111.0,762,lv
26,1.0,1.0,1.0,1.0,616.0,0.5842380523681641,2.0631599426269527,0.4839979866338063,0.0,0.0,111.0,762,lv
27,0.0,0.0,1.0,0.0,615.0,0.26563286781311035,1.7701358795166016,0.5041674114420801,0.0,1.0,112.0,762,lv
28,1.0,1.0,1.0,4.0,618.0,0.243023157119751,1.4961688518524165,0.2673129104933629,0.0,0.0,112.0,762,lv
29,0.0,1.0,0.0,5.0,622.0,0.2431149482727051,1.8680191040039065,0.6350062106212342,0.0,0.0,112.0,762,lv
30,0.0,0.0,1.0,0.0,621.0,0.2474679946899414,1.8497030735015867,0.6014433103617761,1.0,1.0,111.0,762,lv
31,0.0,0.0,1.0,0.0,620.0,0.25754094123840326,1.612775087356567,0.36455463762165435,0.0,0.0,111.0,762,lv
32,1.0,0.0,0.0,0.0,619.0,0.2806351184844971,1.5358338356018069,0.267219704807351,0.0,0.0,111.0,762,lv
33,0.0,1.0,0.0,0.0,618.0,0.2706201076507568,1.789759874343872,0.5234208668650515,0.0,0.0,111.0,762,lv
34,1.0,1.0,1.0,3.0,620.0,0.2353329658508301,1.7305390834808347,0.5040367395041018,0.0,1.0,112.0,762,lv
35,0.0,1.0,0.0,2.0,621.0,0.22211003303527832,1.9026119709014888,0.6898362813815031,0.0,1.0,111.0,762,lv
36,0.0,0.0,1.0,0.0,620.0,0.6671888828277588,2.329762935638428,0.6697008401256306,0.0,1.0,112.0,762,lv
37,1.0,1.0,1.0,2.0,621.0,0.32891106605529785,1.6432321071624756,0.31341179526451474,0.0,0.0,112.0,762,lv
38,0.0,0.0,1.0,0.0,620.0,0.34963083267211914,1.6151490211486819,0.27867467999305434,0.0,1.0,111.0,762,lv
39,1.0,1.0,1.0,3.0,622.0,0.32013010978698725,1.85118818283081,0.5462595859489529,0.0,0.0,111.0,762,lv
40,1.0,1.0,1.0,2.0,623.0,0.6371290683746337,2.293349027633667,0.6729229178725779,0.0,0.0,111.0,762,lv
41,1.0,1.0,1.0,1.0,623.0,0.3012058734893799,1.8753509521484368,0.5817680406439738,0.0,0.0,111.0,762,lv
42,1.0,0.0,0.0,0.0,622.0,0.3935470581054688,2.094200134277344,0.7258800025748312,0.0,1.0,112.0,762,lv
43,1.0,0.0,0.0,0.0,621.0,0.3026459217071533,1.7651090621948242,0.4746450023102599,0.0,1.0,111.0,762,lv
44,0.0,1.0,0.0,2.0,622.0,0.2760279178619385,1.6195640563964846,0.36105425509153466,0.0,1.0,112.0,762,lv
45,1.0,0.0,0.0,0.0,621.0,0.5254020690917969,2.0150928497314453,0.5093912755420689,0.0,1.0,111.0,762,lv
46,1.0,0.0,0.0,0.0,620.0,0.3288040161132812,1.592912197113037,0.2692974210251608,0.0,1.0,112.0,762,lv
47,0.0,0.0,1.0,0.0,619.0,0.41879391670227045,1.9825830459594729,0.5683048051588876,0.0,0.0,112.0,762,lv
48,0.0,0.0,1.0,0.0,618.0,0.3765571117401123,1.6521239280700684,0.2874764537980736,0.0,1.0,111.0,762,lv
49,1.0,1.0,1.0,4.0,621.0,0.3426859378814697,1.8747670650482176,0.5453394595452079,0.0,0.0,111.0,762,lv
50,1.0,0.0,0.0,0.0,620.0,0.27306580543518066,1.7051680088043213,0.4506957274037142,0.0,1.0,112.0,762,lv
51,0.0,0.0,1.0,0.0,619.0,0.4324710369110107,1.7022371292114256,0.26983593966692876,0.0,1.0,111.0,762,lv
52,0.0,1.0,0.0,5.0,623.0,0.36047601699829107,1.9915430545806885,0.6277481614893353,0.0,0.0,111.0,762,lv
53,1.0,1.0,1.0,1.0,623.0,0.24521803855896004,1.5353789329528806,0.3135128000225769,0.0,0.0,111.0,762,lv
54,1.0,0.0,0.0,0.0,622.0,0.34594297409057617,1.8638839721679688,0.5272340041103266,0.0,1.0,112.0,762,lv
55,0.0,1.0,0.0,2.0,623.0,0.367405891418457,1.6568760871887207,0.30107831215828773,0.0,1.0,111.0,762,lv
56,0.0,1.0,0.0,2.0,624.0,0.2977468967437744,1.688797950744629,0.3898354583685731,0.0,0.0,111.0,762,lv
57,1.0,1.0,1.0,4.0,627.0,0.2964479923248291,1.710975170135498,0.4175141480307398,0.0,0.0,111.0,762,lv
58,1.0,1.0,1.0,3.0,629.0,0.3668718338012695,1.9370470046997073,0.5711169022924032,0.0,0.0,111.0,762,lv
59,0.0,0.0,1.0,0.0,628.0,0.2786080837249756,1.558521032333374,0.2800161676922581,0.0,1.0,112.0,762,lv
60,0.0,1.0,0.0,1.0,628.0,0.3316187858581543,1.7854979038238525,0.4653689082941577,0.0,1.0,111.0,762,lv
61,0.0,0.0,1.0,0.0,627.0,0.2437000274658203,1.797940015792847,0.5633060781517402,1.0,1.0,112.0,762,lv
62,0.0,0.0,1.0,0.0,626.0,0.15343499183654785,1.6977658271789549,0.5611071855759389,0.0,0.0,112.0,762,lv
63,1.0,1.0,1.0,2.0,627.0,0.23541784286499026,1.6293239593505857,0.40731470071584314,0.0,0.0,112.0,762,lv
64,1.0,0.0,0.0,0.0,626.0,0.29922699928283686,1.8081700801849363,0.51545057153612,0.0,1.0,111.0,762,lv
65,0.0,1.0,0.0,2.0,627.0,0.26266789436340326,1.7207350730895998,0.4529629619380645,0.0,0.0,111.0,762,lv
66,1.0,0.0,0.0,0.0,626.0,0.2830140590667725,1.9102370738983157,0.6297450153374926,0.0,1.0,112.0,762,lv
67,1.0,1.0,1.0,2.0,627.0,0.31008291244506836,1.6329059600830078,0.3463541847519747,0.0,0.0,112.0,762,lv
68,1.0,1.0,1.0,2.0,628.0,0.4197840690612793,2.1363301277160645,0.7323916853645276,0.0,0.0,112.0,762,lv
69,1.0,1.0,1.0,3.0,630.0,0.23089599609375,1.8555378913879397,0.6214263214657428,0.0,0.0,112.0,762,lv
70,0.0,0.0,1.0,0.0,629.0,0.3169929981231689,1.6893470287322998,0.3777348293041328,0.0,1.0,111.0,762,lv
71,0.0,0.0,1.0,0.0,628.0,0.3166680335998535,1.6583549976348877,0.3528322934017017,0.0,1.0,112.0,762,lv
72,1.0,0.0,0.0,0.0,627.0,0.27799797058105463,1.794727087020874,0.5307986405921978,0.0,1.0,111.0,762,lv
73,0.0,0.0,1.0,0.0,626.0,0.3187129497528076,2.0222799777984615,0.719632459939841,0.0,0.0,111.0,762,lv
74,1.0,1.0,1.0,4.0,629.0,0.19641709327697757,1.9311711788177488,0.7341440707192525,0.0,1.0,112.0,762,lv
75,0.0,1.0,0.0,2.0,630.0,0.28321313858032227,1.6978168487548828,0.41570151062991606,0.0,0.0,112.0,762,lv
76,0.0,1.0,0.0,4.0,633.0,0.3173260688781738,1.6178109645843504,0.3003709720418258,0.0,0.0,112.0,762,lv
77,0.0,1.0,0.0,1.0,633.0,0.3496971130371094,2.019124984741211,0.6691683040883164,0.0,0.0,112.0,762,lv
78,0.0,1.0,0.0,3.0,635.0,0.3841309547424317,1.8653149604797363,0.4847431036816202,0.0,0.0,112.0,762,lv
79,1.0,1.0,1.0,2.0,636.0,0.2744829654693603,1.7096190452575681,0.44446696335266994,0.0,0.0,112.0,762,lv
80,1.0,1.0,1.0,3.0,638.0,0.3036601543426514,1.5465481281280513,0.2579932211929236,0.0,0.0,112.0,762,lv
81,0.0,1.0,0.0,4.0,641.0,0.31360387802124023,1.8518550395965572,0.5428819368270406,0.0,0.0,112.0,762,lv
82,1.0,1.0,1.0,2.0,642.0,0.21059393882751462,1.5568828582763674,0.36667739887540546,0.0,0.0,112.0,762,lv
83,1.0,1.0,1.0,3.0,644.0,0.32599902153015137,1.5798170566558836,0.2633542323815088,0.0,0.0,112.0,762,lv
84,0.0,0.0,1.0,0.0,643.0,0.30144500732421875,1.862553119659424,0.5756276699486179,0.0,1.0,111.0,762,lv
85,0.0,0.0,1.0,0.0,642.0,0.32989716529846197,1.9576640129089355,0.6332710489021509,0.0,1.0,112.0,762,lv
86,1.0,0.0,0.0,0.0,641.0,0.2762010097503662,1.7008779048919678,0.4344413960271507,0.0,1.0,111.0,762,lv
87,1.0,1.0,1.0,5.0,645.0,0.4953410625457764,2.02297306060791,0.5240940970877725,0.0,0.0,111.0,762,lv
88,1.0,0.0,0.0,0.0,644.0,0.3147010803222656,1.573451042175293,0.2645124358336741,0.0,1.0,112.0,762,lv
89,0.0,0.0,1.0,0.0,643.0,0.3280949592590332,1.819528102874756,0.5171872287425296,0.0,0.0,112.0,762,lv
90,1.0,1.0,1.0,4.0,646.0,0.2618510723114014,1.9696121215820312,0.7033517666082565,0.0,0.0,112.0,762,lv
91,1.0,1.0,1.0,4.0,649.0,0.32926797866821284,1.629417896270752,0.3165643249713228,0.0,0.0,112.0,762,lv
92,1.0,1.0,1.0,2.0,650.0,0.3909149169921875,1.8582611083984373,0.4746994535775229,0.0,0.0,112.0,762,lv
93,1.0,1.0,1.0,3.0,652.0,0.35594892501831055,1.7871828079223633,0.44531907092427214,0.0,1.0,111.0,762,lv
94,0.0,0.0,1.0,0.0,651.0,0.2508318424224853,1.668977975845337,0.4310405660476225,0.0,1.0,112.0,762,lv
95,0.0,0.0,1.0,0.0,650.0,0.37020397186279297,1.6218669414520264,0.2698075586237264,0.0,1.0,111.0,762,lv
96,0.0,1.0,0.0,2.0,651.0,0.4848511219024659,1.9389519691467283,0.4586177182749597,0.0,0.0,111.0,762,lv
97,1.0,0.0,0.0,0.0,650.0,0.2505481243133545,1.5619451999664309,0.32076575357134673,0.0,1.0,112.0,762,lv
98,1.0,0.0,0.0,0.0,649.0,0.22998404502868644,1.6989049911499023,0.469572329805815,0.0,1.0,111.0,762,lv
99,1.0,1.0,1.0,1.0,649.0,0.3300600051879883,1.608103036880493,0.2779534849287326,0.0,0.0,111.0,762,lv
100,1.0,1.0,1.0,3.0,651.0,0.7641570568084717,2.1866939067840576,0.4312241070556795,0.0,0.0,111.0,762,lv
101,0.0,0.0,1.0,0.0,650.0,0.3449521064758301,1.6919169425964353,0.3566455762275372,0.0,1.0,112.0,762,lv
102,1.0,1.0,1.0,1.0,650.0,0.291996955871582,1.5325109958648677,0.2560134641872871,0.0,0.0,112.0,762,lv
103,0.0,1.0,0.0,5.0,654.0,0.3797140121459961,2.013345956802368,0.6356623918854669,0.0,0.0,112.0,762,lv
104,0.0,0.0,1.0,0.0,653.0,0.36701107025146484,2.015344142913818,0.6510884217440923,1.0,1.0,111.0,762,lv
105,1.0,0.0,0.0,0.0,652.0,0.3004951477050781,1.5643129348754883,0.26585086535029606,0.0,1.0,112.0,762,lv
106,0.0,1.0,0.0,1.0,652.0,0.31088900566101074,1.8722679615020752,0.5711696652517907,0.0,0.0,112.0,762,lv
107,1.0,0.0,0.0,0.0,651.0,0.36526894569396967,1.9582509994506831,0.5961570590933514,0.0,0.0,112.0,762,lv
108,0.0,0.0,1.0,0.0,650.0,0.21738195419311523,1.939210176467896,0.735282290936278,0.0,1.0,111.0,762,lv
109,1.0,1.0,1.0,2.0,651.0,0.2544209957122803,1.6550037860870361,0.40735956090123454,0.0,0.0,111.0,762,lv
110,0.0,1.0,0.0,2.0,652.0,0.3074109554290772,1.892655849456787,0.5998730631291598,0.0,0.0,111.0,762,lv
111,1.0,0.0,0.0,0.0,651.0,0.2624731063842773,1.915287971496582,0.6485322244584549,0.0,1.0,112.0,762,lv
112,0.0,0.0,1.0,0.0,650.0,0.3033242225646973,1.87812089920044,0.5601170532400065,0.0,1.0,111.0,762,lv
113,1.0,0.0,0.0,0.0,649.0,0.3732690811157226,1.91343092918396,0.5569641382683316,0.0,0.0,111.0,762,lv
114,0.0,1.0,0.0,1.0,649.0,0.30970096588134766,1.8211910724639888,0.5282443781616522,0.0,0.0,111.0,762,lv
115,1.0,1.0,1.0,3.0,651.0,0.3891270160675049,1.7061810493469238,0.3347092347695205,0.0,0.0,111.0,762,lv
116,0.0,1.0,0.0,1.0,651.0,0.2875368595123291,1.946692943572998,0.6644387187827718,0.0,0.0,111.0,762,lv
117,0.0,1.0,0.0,2.0,652.0,0.38625907897949213,1.710237979888916,0.3417723460043642,0.0,0.0,111.0,762,lv
118,1.0,1.0,1.0,2.0,653.0,0.3777010440826416,1.9973249435424805,0.6388684572254426,0.0,0.0,111.0,762,lv
119,0.0,0.0,1.0,0.0,652.0,0.2807719707489014,2.0119681358337402,0.7341359813594515,0.0,1.0,112.0,762,lv
120,1.0,0.0,0.0,0.0,651.0,0.2421340942382813,1.759428024291992,0.5271476694355077,0.0,1.0,111.0,762,lv
121,1.0,1.0,1.0,2.0,652.0,0.2432260513305664,1.934120893478393,0.7111291585327149,0.0,0.0,111.0,762,lv
122,1.0,1.0,1.0,3.0,654.0,0.3779051303863525,1.8492159843444824,0.4940044288914521,0.0,0.0,111.0,762,lv
123,1.0,1.0,1.0,3.0,656.0,0.3169169425964356,1.6473379135131838,0.3415577923106181,0.0,0.0,111.0,762,lv
124,0.0,1.0,0.0,3.0,658.0,0.29796600341796875,1.7265138626098633,0.43469636434968706,0.0,0.0,111.0,762,lv
125,0.0,1.0,0.0,2.0,659.0,0.3627719879150391,1.8528661727905276,0.4875738208278239,0.0,0.0,111.0,762,lv
126,0.0,1.0,0.0,4.0,662.0,0.2908370494842529,1.6252570152282715,0.34638226776632136,0.0,0.0,111.0,762,lv
127,1.0,0.0,0.0,0.0,661.0,0.30931687355041504,1.6890439987182617,0.40212406662045114,0.0,1.0,112.0,762,lv
128,1.0,1.0,1.0,2.0,662.0,0.2992708683013916,1.9619121551513672,0.663818401397531,0.0,0.0,112.0,762,lv
129,0.0,0.0,1.0,0.0,661.0,0.33238196372985845,1.8290059566497796,0.5096584850250873,0.0,1.0,111.0,762,lv
130,1.0,0.0,0.0,0.0,660.0,0.24603199958801264,1.5422239303588865,0.31880764300341363,0.0,1.0,112.0,762,lv
131,1.0,1.0,1.0,4.0,663.0,0.306110143661499,1.8413348197937007,0.5433266637624631,0.0,0.0,112.0,762,lv
132,1.0,0.0,0.0,0.0,662.0,0.3988349437713623,1.7808408737182617,0.3910324590790823,0.0,1.0,111.0,762,lv
133,0.0,1.0,0.0,1.0,662.0,0.4616439342498779,2.0683810710906982,0.6259157139706226,0.0,1.0,112.0,762,lv
134,1.0,0.0,0.0,0.0,661.0,0.3029630184173584,1.5615279674530027,0.27119449420196157,0.0,1.0,111.0,762,lv
135,1.0,1.0,1.0,1.0,661.0,0.24028205871582034,1.735205888748169,0.5062232156606048,0.0,0.0,111.0,762,lv
136,1.0,1.0,1.0,1.0,661.0,0.2711050510406494,1.7798500061035156,0.5194739802821521,0.0,0.0,111.0,762,lv
137,0.0,0.0,1.0,0.0,660.0,0.3507730960845947,1.6912789344787595,0.3443257324613049,0.0,1.0,112.0,762,lv
138,1.0,1.0,1.0,4.0,663.0,0.36348986625671387,2.068282127380371,0.7123056822197202,0.0,1.0,111.0,762,lv
139,1.0,1.0,1.0,3.0,665.0,0.39894104003906244,1.9942688941955569,0.6067455040757846,0.0,0.0,111.0,762,lv
140,1.0,1.0,1.0,2.0,666.0,0.2790379524230957,1.772432804107666,0.4960566572471279,0.0,0.0,111.0,762,lv
141,0.0,1.0,0.0,3.0,668.0,0.3074808120727539,1.9090359210968015,0.6216436375785155,0.0,0.0,111.0,762,lv
142,1.0,1.0,1.0,2.0,669.0,0.26081609725952143,1.855821132659912,0.6108811723392876,0.0,0.0,111.0,762,lv
143,0.0,0.0,1.0,0.0,668.0,0.29193902015686035,1.6118218898773191,0.3397234666219598,1.0,1.0,112.0,762,lv
144,1.0,1.0,1.0,3.0,670.0,0.23528909683227536,1.8038251399993896,0.5766930126147894,0.0,0.0,112.0,762,lv
145,0.0,0.0,1.0,0.0,669.0,0.3093531131744385,2.0291409492492676,0.7390429546519409,0.0,1.0,111.0,762,lv
146,0.0,1.0,0.0,3.0,671.0,0.2390601634979248,1.8865931034088133,0.6591386718094081,0.0,1.0,112.0,762,lv
147,1.0,1.0,1.0,3.0,673.0,0.28475093841552734,1.5850758552551267,0.3113091665745949,0.0,0.0,112.0,762,lv
148,1.0,0.0,0.0,0.0,672.0,0.31653785705566406,1.8704891204833984,0.5649305126967903,0.0,1.0,111.0,762,lv
149,0.0,1.0,0.0,3.0,674.0,0.3088388442993164,1.9694700241088867,0.6843450252229911,0.0,1.0,112.0,762,lv
150,0.0,1.0,0.0,2.0,675.0,0.2946498394012451,1.6824440956115723,0.3838224046700588,0.0,0.0,112.0,762,lv
151,0.0,1.0,0.0,4.0,678.0,0.3283841609954834,1.6698558330535889,0.3538228507589097,0.0,0.0,112.0,762,lv
152,0.0,1.0,0.0,3.0,680.0,0.26766085624694824,1.8741908073425284,0.6115184221414319,0.0,0.0,112.0,762,lv
153,0.0,1.0,0.0,2.0,681.0,0.3502540588378906,1.9042398929595952,0.5654846673182377,0.0,0.0,112.0,762,lv
154,0.0,1.0,0.0,2.0,682.0,0.20750713348388672,1.7379009723663332,0.5367866422351759,0.0,0.0,112.0,762,lv
155,1.0,1.0,1.0,3.0,684.0,0.31532883644104004,1.5874650478363037,0.2746149082493996,0.0,0.0,112.0,762,lv
156,0.0,1.0,0.0,1.0,684.0,0.2600440979003906,1.7658309936523438,0.5235745847979242,0.0,0.0,112.0,762,lv
157,1.0,1.0,1.0,1.0,684.0,0.2582840919494629,1.5440170764923098,0.30120494043621204,0.0,0.0,112.0,762,lv
158,0.0,0.0,1.0,0.0,683.0,0.3224611282348633,2.0625128746032715,0.7466528276110702,0.0,0.0,112.0,762,lv
159,1.0,0.0,0.0,0.0,682.0,0.2285768985748291,1.5412068367004392,0.3216985961108633,0.0,1.0,111.0,762,lv
160,1.0,0.0,0.0,0.0,681.0,0.3315081596374512,1.7440340518951418,0.4156930018700665,0.0,1.0,112.0,762,lv
161,0.0,1.0,0.0,2.0,682.0,0.2376449108123779,1.9661061763763428,0.7315475278407872,0.0,0.0,112.0,762,lv
162,1.0,1.0,1.0,3.0,684.0,0.2527120113372803,1.798328876495361,0.5634679951543008,0.0,0.0,112.0,762,lv
163,0.0,1.0,0.0,3.0,686.0,0.30875587463378906,1.9523220062255855,0.6657469435992933,0.0,0.0,112.0,762,lv
164,0.0,0.0,1.0,0.0,685.0,0.3151340484619141,1.752200126647949,0.4349309363351581,0.0,1.0,111.0,762,lv
165,1.0,1.0,1.0,2.0,686.0,0.2393150329589844,1.6400890350341797,0.4084029150436992,0.0,0.0,111.0,762,lv
166,1.0,0.0,0.0,0.0,685.0,0.38799786567687994,1.7266199588775635,0.3518179647663692,0.0,1.0,112.0,762,lv
167,1.0,1.0,1.0,3.0,687.0,0.2786099910736084,1.618072032928467,0.33662298929692486,0.0,0.0,112.0,762,lv
168,1.0,0.0,0.0,0.0,686.0,0.4020659923553466,2.064404964447021,0.6674352509795276,0.0,1.0,111.0,762,lv
169,0.0,0.0,1.0,0.0,685.0,0.3036069869995117,2.0098907947540283,0.7106736880618563,0.0,1.0,112.0,762,lv
170,1.0,1.0,1.0,3.0,687.0,0.24256396293640134,1.5555229187011719,0.333309606747616,0.0,1.0,111.0,762,lv
171,1.0,0.0,0.0,0.0,686.0,0.4279000759124756,1.8206460475921633,0.4039638913147257,0.0,1.0,112.0,762,lv
172,1.0,0.0,0.0,0.0,685.0,0.28835916519165045,1.7680170536041262,0.4886156602183753,1.0,1.0,111.0,762,lv
173,1.0,1.0,1.0,3.0,687.0,0.3357501029968262,1.8759739398956292,0.54790545633208,0.0,0.0,111.0,762,lv
174,1.0,1.0,1.0,2.0,688.0,0.3541438579559326,1.7133991718292236,0.3782387982463113,0.0,0.0,111.0,762,lv
175,1.0,0.0,0.0,0.0,687.0,0.2975449562072754,1.7575228214263916,0.4690336210874342,0.0,1.0,112.0,762,lv
176,0.0,1.0,0.0,4.0,690.0,0.3489630222320557,1.6492998600006106,0.3019152594765146,0.0,0.0,112.0,762,lv
177,1.0,1.0,1.0,2.0,691.0,0.4899680614471436,1.7747571468353274,0.29341750182165804,0.0,0.0,112.0,762,lv
178,1.0,0.0,0.0,0.0,690.0,0.3863899707794189,1.7236638069152832,0.3504416306808734,0.0,1.0,111.0,762,lv
179,1.0,1.0,1.0,4.0,693.0,0.21908307075500488,1.9616320133209229,0.7450567542621133,0.0,0.0,111.0,762,lv
180,0.0,1.0,0.0,3.0,695.0,0.27116298675537104,1.7472288608551023,0.4925991454835968,0.0,0.0,111.0,762,lv
181,1.0,0.0,0.0,0.0,694.0,0.3312489986419678,1.6056270599365237,0.28184521364472254,0.0,0.0,111.0,762,lv
182,0.0,1.0,0.0,2.0,695.0,0.4772770404815674,1.7666969299316406,0.31523241764015925,0.0,0.0,111.0,762,lv
183,0.0,1.0,0.0,4.0,698.0,0.40370202064514166,2.115180969238281,0.7300564817294047,0.0,0.0,111.0,762,lv
184,1.0,1.0,1.0,1.0,698.0,0.2460501194000244,1.7015428543090818,0.4818937070294199,0.0,0.0,111.0,762,lv
185,0.0,0.0,1.0,0.0,697.0,0.3358421325683594,1.907175064086914,0.5557430753592961,0.0,0.0,111.0,762,lv
186,0.0,1.0,0.0,1.0,697.0,0.454556941986084,1.8135721683502204,0.3695947551496288,0.0,0.0,111.0,762,lv
187,0.0,1.0,0.0,2.0,698.0,0.3629109859466553,2.111247062683105,0.7472075461650469,0.0,0.0,111.0,762,lv
188,0.0,1.0,0.0,3.0,700.0,0.3250510692596436,1.5571999549865723,0.2549595964317422,0.0,0.0,111.0,762,lv
189,1.0,0.0,0.0,0.0,699.0,0.3782858848571776,1.9226980209350584,0.5607104672293688,0.0,1.0,112.0,762,lv
190,1.0,0.0,0.0,0.0,698.0,0.34571099281311035,1.6613311767578125,0.32236811588849895,0.0,1.0,111.0,762,lv
191,0.0,1.0,0.0,2.0,699.0,0.30119991302490234,1.7249298095703123,0.43059497255474677,0.0,0.0,111.0,762,lv
192,1.0,1.0,1.0,2.0,700.0,0.2735519409179688,1.9594149589538572,0.7064612521630269,0.0,0.0,111.0,762,lv
193,0.0,1.0,0.0,3.0,702.0,0.3218841552734375,1.9669039249420164,0.6568227600807217,0.0,0.0,111.0,762,lv
194,0.0,0.0,1.0,0.0,701.0,0.36730909347534174,2.0441040992736816,0.6843054487837757,0.0,1.0,112.0,762,lv
195,1.0,1.0,1.0,3.0,703.0,0.22945690155029294,1.8636629581451416,0.6315090404980148,0.0,1.0,111.0,762,lv
196,1.0,1.0,1.0,2.0,704.0,0.3054711818695068,1.6071720123291013,0.3223004924274821,0.0,0.0,111.0,762,lv
197,1.0,1.0,1.0,1.0,704.0,0.4778521060943604,2.153320074081421,0.6919787798594744,0.0,0.0,111.0,762,lv
198,1.0,1.0,1.0,2.0,705.0,0.3129310607910156,1.8374030590057373,0.5296208422040365,0.0,0.0,111.0,762,lv
199,0.0,0.0,1.0,0.0,704.0,0.2856490612030029,1.9339540004730225,0.6634929247581334,0.0,1.0,112.0,762,lv
200,1.0,1.0,1.0,1.0,704.0,0.2753701210021973,1.8335490226745603,0.5805192374441815,0.0,0.0,112.0,762,lv
201,0.0,0.0,1.0,0.0,703.0,0.3190889358520508,1.6543359756469724,0.35184645010463156,0.0,1.0,111.0,762,lv
202,1.0,1.0,1.0,3.0,705.0,0.3295390605926514,1.8369197845458984,0.5053152940467841,0.0,0.0,111.0,762,lv
203,1.0,1.0,1.0,3.0,707.0,0.3423149585723877,1.89385199546814,0.5658302199999208,0.0,0.0,111.0,762,lv
204,0.0,1.0,0.0,4.0,710.0,0.3003239631652832,1.7990868091583252,0.498387590872721,0.0,0.0,111.0,762,lv
205,0.0,1.0,0.0,1.0,710.0,0.31410408020019526,1.8797688484191892,0.5781518588498881,0.0,0.0,111.0,762,lv
206,0.0,1.0,0.0,3.0,712.0,0.2878038883209228,1.9760680198669436,0.7041790570641084,0.0,0.0,111.0,762,lv
207,1.0,0.0,0.0,0.0,711.0,0.26255202293396,1.8583869934082031,0.5960710496514547,0.0,1.0,112.0,762,lv
208,0.0,0.0,1.0,0.0,710.0,0.26564002037048334,1.5226030349731443,0.2690684222934938,0.0,1.0,111.0,762,lv
209,0.0,0.0,1.0,0.0,709.0,0.4692990779876709,2.0853312015533443,0.6207851764652296,0.0,1.0,112.0,762,lv
210,0.0,0.0,1.0,0.0,708.0,0.3110771179199219,1.9499478340148924,0.65406488599369,0.0,1.0,111.0,762,lv
211,0.0,0.0,1.0,0.0,707.0,0.6092009544372559,2.332695960998535,0.7367627880394668,0.0,1.0,112.0,762,lv
212,1.0,0.0,0.0,0.0,706.0,0.4948980808258057,2.1109209060668945,0.6312509657869885,0.0,0.0,112.0,762,lv
213,0.0,0.0,1.0,0.0,705.0,0.24999189376831055,1.6931190490722658,0.4579219840994176,0.0,1.0,111.0,762,lv
214,1.0,0.0,0.0,0.0,704.0,0.4292130470275879,2.0139451026916504,0.5884681393845261,0.0,0.0,111.0,762,lv
215,0.0,0.0,1.0,0.0,703.0,0.2684800624847412,1.905234098434448,0.6437269852124197,0.0,1.0,112.0,762,lv
216,1.0,1.0,1.0,4.0,706.0,0.7205190658569336,2.2016508579254146,0.4955946259961251,0.0,1.0,111.0,762,lv
217,1.0,1.0,1.0,3.0,708.0,0.2577011585235596,1.604310989379883,0.3667801068735674,0.0,0.0,111.0,762,lv
218,0.0,1.0,0.0,2.0,709.0,0.2720458507537841,1.7455089092254639,0.4788763793335105,0.0,0.0,111.0,762,lv
219,1.0,1.0,1.0,2.0,710.0,0.2336781024932861,1.580480098724365,0.3595524794296128,0.0,0.0,111.0,762,lv
220,0.0,1.0,0.0,2.0,711.0,0.24039602279663086,1.6301751136779783,0.4063898959151169,0.0,0.0,111.0,762,lv
221,1.0,1.0,1.0,1.0,711.0,0.2311670780181885,1.5592408180236816,0.33245141103698633,1.0,0.0,111.0,762,lv
222,0.0,0.0,1.0,0.0,710.0,0.2735719680786133,1.8367681503295896,0.5690291249942483,0.0,1.0,112.0,762,lv
223,1.0,1.0,1.0,3.0,712.0,0.3072738647460937,1.6004791259765625,0.30319217621602085,0.0,0.0,112.0,762,lv
224,0.0,1.0,0.0,1.0,712.0,0.293381929397583,1.6346819400787354,0.35453853927889833,0.0,0.0,112.0,762,lv
225,0.0,1.0,0.0,4.0,715.0,0.3200240135192871,1.9349050521850584,0.6225707292855055,0.0,0.0,112.0,762,lv
226,1.0,1.0,1.0,3.0,717.0,0.3039331436157226,1.816275119781494,0.5223172292526747,0.0,0.0,112.0,762,lv
227,1.0,1.0,1.0,3.0,719.0,0.2721908092498779,1.983824014663696,0.7227039533225321,0.0,0.0,112.0,762,lv
228,1.0,0.0,0.0,0.0,718.0,0.22010993957519528,1.4766888618469238,0.2665833397212422,0.0,1.0,111.0,762,lv
229,1.0,1.0,1.0,1.0,718.0,0.2856481075286865,1.6509101390838625,0.3674521507868231,0.0,0.0,111.0,762,lv
230,1.0,0.0,0.0,0.0,717.0,0.3006930351257324,1.8261699676513667,0.5268536063465197,0.0,1.0,112.0,762,lv
231,1.0,1.0,1.0,3.0,719.0,0.25925493240356445,1.5522670745849605,0.3127322599229484,0.0,0.0,112.0,762,lv
232,0.0,1.0,0.0,3.0,721.0,0.33513712882995605,1.8830049037933347,0.5622093124962843,0.0,0.0,112.0,762,lv
233,0.0,1.0,0.0,3.0,723.0,0.2568941116333008,1.7521400451660158,0.5144598015416916,0.0,0.0,112.0,762,lv
234,1.0,1.0,1.0,2.0,724.0,0.23992800712585444,1.7536242008209229,0.5348125815365055,0.0,0.0,112.0,762,lv
235,1.0,1.0,1.0,4.0,727.0,0.20546293258666992,1.6883509159088135,0.4901297178497625,0.0,0.0,112.0,762,lv
236,1.0,1.0,1.0,3.0,729.0,0.3070948123931885,1.883031129837036,0.5895520669743219,0.0,0.0,112.0,762,lv
237,0.0,1.0,0.0,2.0,730.0,0.3837950229644775,1.6569280624389648,0.2802274395726581,0.0,0.0,112.0,762,lv
238,0.0,1.0,0.0,3.0,732.0,0.3568229675292969,1.788079023361206,0.4515387865611033,0.0,0.0,112.0,762,lv
239,0.0,0.0,1.0,0.0,731.0,0.2418668270111084,1.9399468898773196,0.7079306035211521,0.0,1.0,111.0,762,lv
240,1.0,0.0,0.0,0.0,730.0,0.2326240539550781,1.8956751823425284,0.6703870118087095,0.0,1.0,112.0,762,lv
241,0.0,1.0,0.0,3.0,732.0,0.4137141704559327,1.7534270286560056,0.34086904268007595,0.0,0.0,112.0,762,lv
242,0.0,0.0,1.0,0.0,731.0,0.25274205207824707,1.7858009338378906,0.5431899089139213,0.0,1.0,111.0,762,lv
243,1.0,1.0,1.0,5.0,735.0,0.2874128818511963,2.020512104034424,0.7469181021780236,0.0,1.0,112.0,762,lv
244,1.0,1.0,1.0,3.0,737.0,0.2819321155548096,1.9837510585784912,0.7141008425539668,0.0,0.0,112.0,762,lv
245,1.0,0.0,0.0,0.0,736.0,0.22365498542785645,1.8774120807647705,0.6749508357641413,0.0,1.0,111.0,762,lv
246,0.0,0.0,1.0,0.0,735.0,0.2813739776611328,1.5580668449401855,0.28348175138680637,0.0,1.0,112.0,762,lv
247,1.0,0.0,0.0,0.0,734.0,0.30975604057312006,1.6174781322479248,0.3176543227117578,0.0,0.0,112.0,762,lv
248,0.0,0.0,1.0,0.0,733.0,0.25411891937255854,1.7997899055480957,0.5506001228260089,0.0,0.0,112.0,762,lv
249,0.0,1.0,0.0,2.0,734.0,0.33414387702941895,2.063444137573242,0.7305671830080573,0.0,0.0,112.0,762,lv
250,0.0,1.0,0.0,1.0,734.0,0.27125501632690424,1.5034699440002437,0.2513011090053889,0.0,0.0,112.0,762,lv
251,0.0,1.0,0.0,3.0,736.0,0.3246111869812012,1.9704689979553225,0.6547314521019105,0.0,0.0,112.0,762,lv
252,1.0,1.0,1.0,3.0,738.0,0.2830028533935547,1.6565639972686768,0.37831530489462406,0.0,0.0,112.0,762,lv
253,0.0,1.0,0.0,4.0,741.0,0.2661569118499756,1.9841339588165283,0.7288313080977231,0.0,0.0,112.0,762,lv
254,0.0,1.0,0.0,3.0,743.0,0.33687806129455566,2.0245890617370605,0.70349901417539,0.0,0.0,112.0,762,lv
255,0.0,1.0,0.0,3.0,745.0,0.3085057735443115,2.044178009033203,0.7476822620158451,0.0,0.0,112.0,762,lv
256,1.0,1.0,1.0,3.0,747.0,0.4602239131927489,1.8921558856964111,0.4568766388326304,0.0,0.0,112.0,762,lv
257,0.0,0.0,1.0,0.0,746.0,0.25838398933410645,1.7728481292724607,0.5297422205725302,0.0,1.0,111.0,762,lv
258,0.0,0.0,1.0,0.0,745.0,0.3088231086730957,1.5863080024719238,0.29967836351727745,1.0,1.0,112.0,762,lv
259,1.0,1.0,1.0,1.0,745.0,0.34478521347045893,1.672194004058838,0.33856424981095795,0.0,0.0,112.0,762,lv
260,1.0,0.0,0.0,0.0,744.0,0.2662508487701416,1.6539440155029297,0.39249715244783606,0.0,1.0,111.0,762,lv
261,1.0,1.0,1.0,4.0,747.0,0.2522969245910645,1.959602117538452,0.7185129447541578,0.0,0.0,111.0,762,lv
262,0.0,1.0,0.0,5.0,751.0,0.23874521255493164,1.9391689300537107,0.7077356326276564,0.0,0.0,111.0,762,lv
263,0.0,1.0,0.0,2.0,752.0,0.3294360637664795,1.9381580352783203,0.6127492219318024,0.0,0.0,111.0,762,lv
264,1.0,1.0,1.0,3.0,754.0,0.3121981620788575,1.6170771121978758,0.313544503072365,0.0,0.0,111.0,762,lv
265,1.0,1.0,1.0,1.0,754.0,0.42056107521057123,1.8375489711761477,0.4343548435991731,0.0,0.0,111.0,762,lv
266,1.0,1.0,1.0,1.0,754.0,0.2826170921325684,1.6162269115447998,0.3341958265113327,0.0,0.0,111.0,762,lv
267,1.0,1.0,1.0,3.0,756.0,0.30999207496643066,1.6233611106872556,0.32417980757640846,0.0,0.0,111.0,762,lv
268,1.0,1.0,1.0,2.0,757.0,0.3083930015563965,1.9263029098510744,0.6335641358328088,0.0,0.0,111.0,762,lv
269,1.0,1.0,1.0,2.0,758.0,0.2441048622131348,1.6841959953308103,0.4513206161591581,0.0,0.0,111.0,762,lv
270,1.0,1.0,1.0,3.0,760.0,0.2458539009094238,1.7638070583343504,0.5150539361007391,0.0,0.0,111.0,762,lv
271,1.0,1.0,1.0,2.0,761.0,0.25492906570434565,1.9212069511413572,0.6862706730787297,0.0,0.0,111.0,762,lv
272,1.0,1.0,1.0,1.0,761.0,0.22865891456604004,1.8638229370117188,0.6501645958978561,0.0,0.0,111.0,762,lv
273,1.0,1.0,1.0,2.0,762.0,0.17607688903808594,1.6956129074096677,0.5292893123405942,0.0,1.0,112.0,762,lv
274,1.0,0.0,0.0,0.0,761.0,0.2407639026641846,1.9071950912475584,0.6864138796089482,0.0,1.0,111.0,762,lv
275,0.0,1.0,0.0,3.0,763.0,0.23920917510986334,1.9475328922271729,0.7173125657989825,0.0,0.0,111.0,762,lv
276,1.0,1.0,1.0,2.0,764.0,0.2281990051269531,1.5748660564422607,0.34260917033907795,0.0,0.0,111.0,762,lv
277,0.0,0.0,1.0,0.0,763.0,0.2435710430145264,1.7585461139678955,0.5343596960666052,0.0,0.0,111.0,762,lv
278,1.0,1.0,1.0,4.0,766.0,0.23195886611938474,1.9780750274658203,0.7456000810173079,0.0,0.0,111.0,762,lv
279,1.0,0.0,0.0,0.0,765.0,0.2643630504608154,1.7922968864440914,0.5381951775849046,0.0,1.0,112.0,762,lv
280,1.0,0.0,0.0,0.0,764.0,0.23541784286499026,1.4926090240478516,0.2644752345697506,0.0,1.0,111.0,762,lv
281,0.0,0.0,1.0,0.0,763.0,0.33410811424255366,1.9756951332092283,0.6564911724404832,0.0,1.0,112.0,762,lv
282,1.0,0.0,0.0,0.0,762.0,0.24384498596191406,1.7254519462585447,0.49883140474302,0.0,1.0,111.0,762,lv
283,0.0,0.0,1.0,0.0,761.0,0.2377028465270996,1.5819580554962156,0.34767143320563837,0.0,1.0,112.0,762,lv
284,1.0,1.0,1.0,2.0,762.0,0.22100281715393064,1.641629934310913,0.43923929799287886,0.0,1.0,111.0,762,lv
285,1.0,1.0,1.0,1.0,762.0,0.2550480365753174,1.9664931297302248,0.7222089431901537,0.0,0.0,111.0,762,lv
286,0.0,1.0,0.0,3.0,764.0,0.3266010284423828,1.8343079090118404,0.5234461770784036,0.0,0.0,111.0,762,lv
287,0.0,0.0,1.0,0.0,763.0,0.2922248840332031,1.8123540878295896,0.5358408037489488,0.0,1.0,112.0,762,lv
288,0.0,1.0,0.0,4.0,766.0,0.3426098823547363,1.7378590106964111,0.4072481588491565,0.0,0.0,112.0,762,lv
289,1.0,0.0,0.0,0.0,765.0,0.23841190338134766,1.6939320564270017,0.4678447489658073,0.0,1.0,111.0,762,lv
290,1.0,0.0,0.0,0.0,764.0,0.35447216033935547,1.994507074356079,0.6455786605621834,0.0,0.0,111.0,762,lv
291,0.0,1.0,0.0,2.0,765.0,0.22318696975708008,1.6132390499114988,0.4091157597239662,0.0,0.0,111.0,762,lv
292,1.0,0.0,0.0,0.0,764.0,0.3115248680114746,1.765300989151001,0.4744331909864791,0.0,1.0,112.0,762,lv
293,0.0,0.0,1.0,0.0,763.0,0.3058648109436035,1.763849973678589,0.4716450655251997,0.0,1.0,111.0,762,lv
294,1.0,0.0,0.0,0.0,762.0,0.3492441177368164,1.813705921173096,0.468762045755918,0.0,0.0,111.0,762,lv
295,0.0,0.0,1.0,0.0,761.0,0.27267909049987793,1.5942931175231934,0.32995481384376063,0.0,0.0,111.0,762,lv
296,1.0,0.0,0.0,0.0,760.0,0.3174331188201904,2.008718013763428,0.7049962701310135,0.0,1.0,112.0,762,lv
297,0.0,0.0,1.0,0.0,759.0,0.22285294532775876,1.8563289642333984,0.6447969685769106,0.0,1.0,111.0,762,lv
298,1.0,0.0,0.0,0.0,758.0,0.1649181842803955,1.7859320640563967,0.6308026366432344,1.0,1.0,112.0,762,lv
299,0.0,0.0,1.0,0.0,757.0,0.2316281795501709,1.7650980949401855,0.5460560119802405,0.0,0.0,112.0,762,lv
300,1.0,0.0,0.0,0.0,756.0,0.6898839473724365,85.92463088035582,0.35727299435826415,1.0,1.0,111.0,762,lv
301,0.0,1.0,0.0,2.0,757.0,0.20562100410461426,1.8638100624084477,0.6708309335348492,0.0,0.0,111.0,762,lv
302,0.0,1.0,0.0,2.0,758.0,0.2110319137573242,1.5258619785308836,0.3304041844230973,0.0,0.0,111.0,762,lv
303,1.0,1.0,1.0,2.0,759.0,0.2385828495025635,1.6193051338195803,0.3997223687661614,0.0,0.0,111.0,762,lv
304,1.0,1.0,1.0,2.0,760.0,0.29420304298400884,1.5686550140380862,0.2852081000140181,0.0,0.0,111.0,762,lv
305,1.0,1.0,1.0,3.0,762.0,0.3066349029541017,1.5520899295806885,0.2540682097490636,0.0,0.0,111.0,762,lv
306,0.0,0.0,1.0,0.0,761.0,0.27966904640197754,1.985532999038696,0.7058945032099977,0.0,1.0,112.0,762,lv
307,1.0,1.0,1.0,2.0,762.0,0.18538093566894528,1.8917238712310789,0.7143271694355153,0.0,0.0,112.0,762,lv
308,1.0,1.0,1.0,2.0,763.0,0.2341759204864502,1.7279508113861084,0.5092209003474881,0.0,0.0,112.0,762,lv
309,1.0,0.0,0.0,0.0,762.0,0.24777197837829584,1.8351948261260984,0.594373688770864,0.0,1.0,111.0,762,lv
310,0.0,1.0,0.0,3.0,764.0,0.28251099586486816,1.5715677738189695,0.2996471114016547,0.0,0.0,111.0,762,lv
311,1.0,1.0,1.0,2.0,765.0,0.30222487449646007,1.7510488033294673,0.4505856374229398,0.0,0.0,111.0,762,lv
312,0.0,0.0,1.0,0.0,764.0,0.21928501129150393,1.6066169738769533,0.3906702107361893,0.0,1.0,112.0,762,lv
313,0.0,1.0,0.0,4.0,767.0,0.29232311248779297,1.5438058376312256,0.26800048214647676,0.0,0.0,112.0,762,lv
314,0.0,0.0,1.0,0.0,766.0,0.3294029235839844,1.8011121749877925,0.4689529317475439,0.0,1.0,111.0,762,lv
315,1.0,0.0,0.0,0.0,765.0,0.2635788917541504,1.683440923690796,0.4191885995189712,0.0,0.0,111.0,762,lv
316,0.0,1.0,0.0,1.0,765.0,0.2662708759307861,1.835334062576294,0.5710955326959809,0.0,0.0,111.0,762,lv
317,0.0,0.0,1.0,0.0,764.0,0.24798321723937986,1.8211770057678225,0.5756279877223334,0.0,1.0,112.0,762,lv
318,0.0,0.0,1.0,0.0,763.0,0.281383991241455,1.6126940250396729,0.33865813404272166,0.0,1.0,111.0,762,lv
319,1.0,0.0,0.0,0.0,762.0,0.2697720527648926,1.6129779815673828,0.35169332227001765,0.0,0.0,111.0,762,lv
320,1.0,0.0,0.0,0.0,761.0,0.23115301132202146,1.6986539363861084,0.4669338460446504,0.0,1.0,112.0,762,lv
321,0.0,0.0,1.0,0.0,760.0,0.23223090171813965,1.6623640060424805,0.42939402639720137,0.0,1.0,111.0,762,lv
322,0.0,1.0,0.0,3.0,762.0,0.3203258514404297,1.9158179759979248,0.6117724688867352,0.0,0.0,111.0,762,lv
323,1.0,1.0,1.0,1.0,762.0,0.25973486900329584,1.694770097732544,0.4567387743702222,0.0,0.0,111.0,762,lv
324,0.0,1.0,0.0,3.0,764.0,0.22374415397644037,1.5965619087219238,0.38676769997569294,0.0,0.0,111.0,762,lv
325,0.0,1.0,0.0,1.0,764.0,0.2407541275024414,1.5872650146484377,0.35747176502152433,0.0,0.0,111.0,762,lv
326,1.0,1.0,1.0,2.0,765.0,0.5405089855194093,2.0813591480255127,0.5553591198398208,0.0,1.0,112.0,762,lv
327,1.0,1.0,1.0,2.0,766.0,0.2621419429779053,1.906337976455688,0.6450037785765383,0.0,0.0,112.0,762,lv
328,1.0,0.0,0.0,0.0,765.0,0.2293939590454101,1.730031967163086,0.5085853431211921,0.0,1.0,111.0,762,lv
329,1.0,1.0,1.0,2.0,766.0,0.3231301307678222,1.7654800415039065,0.4575246772890032,0.0,0.0,111.0,762,lv
330,1.0,1.0,1.0,4.0,769.0,0.2854688167572021,1.9538230895996092,0.6778206483801057,0.0,0.0,111.0,762,lv
331,0.0,1.0,0.0,3.0,771.0,0.28858304023742676,2.0027329921722408,0.7306026512169747,0.0,0.0,111.0,762,lv
332,1.0,1.0,1.0,1.0,771.0,0.20661807060241694,1.491647005081177,0.3060861740077229,0.0,0.0,111.0,762,lv
333,1.0,0.0,0.0,0.0,770.0,0.419625997543335,1.9550809860229488,0.5444270602711223,0.0,0.0,111.0,762,lv
334,1.0,1.0,1.0,3.0,772.0,0.30371809005737305,1.676189184188843,0.3874029992230957,0.0,0.0,111.0,762,lv
335,1.0,1.0,1.0,3.0,774.0,0.3904449939727783,1.9076578617095947,0.5283058090083628,0.0,0.0,111.0,762,lv
336,0.0,1.0,0.0,1.0,774.0,0.32655215263366694,1.9782009124755855,0.6730949132219485,0.0,0.0,111.0,762,lv
337,0.0,1.0,0.0,2.0,775.0,0.26523780822753906,1.8659000396728516,0.6058309112707178,0.0,0.0,111.0,762,lv
338,1.0,0.0,0.0,0.0,774.0,0.299609899520874,1.6955549716949463,0.4016103457279177,0.0,1.0,112.0,762,lv
339,1.0,0.0,0.0,0.0,773.0,0.25673103332519526,1.5157651901245117,0.2676029346494441,1.0,1.0,111.0,762,lv
340,1.0,0.0,0.0,0.0,772.0,0.3781051635742188,1.9261598587036128,0.5601741453478912,0.0,1.0,112.0,762,lv
341,0.0,1.0,0.0,1.0,772.0,0.3224830627441406,1.8877830505371087,0.5813452615853558,0.0,0.0,112.0,762,lv
342,0.0,1.0,0.0,2.0,773.0,0.29521918296813965,1.9515950679779048,0.6662620638392404,0.0,0.0,112.0,762,lv
343,1.0,1.0,1.0,2.0,774.0,0.32956504821777344,1.9833700656890867,0.6497111927893661,0.0,0.0,112.0,762,lv
344,1.0,1.0,1.0,4.0,777.0,0.27935004234313965,1.5541989803314207,0.2710399803037398,0.0,0.0,112.0,762,lv
345,0.0,1.0,0.0,2.0,778.0,0.3314170837402344,1.9167239665985103,0.5874810044299128,0.0,0.0,112.0,762,lv
346,0.0,0.0,1.0,0.0,777.0,0.2912881374359131,1.766489028930664,0.4708468799121475,0.0,1.0,111.0,762,lv
347,1.0,0.0,0.0,0.0,776.0,0.2501101493835449,1.7103681564331055,0.4646141017956648,0.0,1.0,112.0,762,lv
348,1.0,1.0,1.0,3.0,778.0,0.3242790699005127,1.8565108776092527,0.554389146556809,0.0,0.0,112.0,762,lv
349,0.0,0.0,1.0,0.0,777.0,0.27565503120422363,1.9758319854736328,0.7134677458029871,0.0,0.0,112.0,762,lv
350,0.0,0.0,1.0,0.0,776.0,0.6090478897094728,1.84197998046875,0.25600074835311676,0.0,1.0,111.0,762,lv
351,1.0,0.0,0.0,0.0,775.0,0.4261620044708252,1.7352149486541748,0.3245472466324762,0.0,1.0,112.0,762,lv
352,0.0,1.0,0.0,2.0,776.0,0.3828887939453125,1.6885530948638914,0.31316883523680483,0.0,0.0,112.0,762,lv
353,1.0,1.0,1.0,2.0,777.0,0.2776179313659668,1.84675407409668,0.5930126610974076,0.0,0.0,112.0,762,lv
354,1.0,1.0,1.0,3.0,779.0,0.319674015045166,1.7607648372650149,0.4539983298021366,0.0,0.0,112.0,762,lv
355,0.0,1.0,0.0,2.0,780.0,0.2910280227661133,1.849031925201416,0.5696635444973563,0.0,0.0,112.0,762,lv
356,1.0,1.0,1.0,4.0,783.0,0.24410200119018555,1.5568289756774902,0.3267792239541788,0.0,0.0,112.0,762,lv
357,0.0,1.0,0.0,1.0,783.0,0.2601249217987061,1.6951928138732908,0.4552372131029229,0.0,0.0,112.0,762,lv
358,1.0,1.0,1.0,1.0,783.0,0.2791740894317627,1.9799339771270752,0.7183137561703756,0.0,0.0,112.0,762,lv
359,0.0,1.0,0.0,2.0,784.0,0.29398298263549805,1.7150380611419676,0.41706344906628723,0.0,0.0,112.0,762,lv
360,1.0,1.0,1.0,2.0,785.0,0.22038912773132321,1.9157190322875977,0.699220630576985,0.0,0.0,112.0,762,lv
361,0.0,0.0,1.0,0.0,784.0,0.2607300281524659,1.6578009128570559,0.4073782482344305,0.0,1.0,111.0,762,lv
362,0.0,0.0,1.0,0.0,783.0,0.3028419017791748,1.554228067398071,0.2617928713691792,0.0,1.0,112.0,762,lv
363,0.0,0.0,1.0,0.0,782.0,0.26984214782714844,1.8782770633697508,0.6230819761901643,0.0,1.0,111.0,762,lv
364,0.0,0.0,1.0,0.0,781.0,0.3125519752502441,2.0122940540313725,0.7020367912258938,0.0,1.0,112.0,762,lv
365,1.0,1.0,1.0,0.0,780.0,0.24699091911315926,1.8742790222167969,0.6264770812239581,0.0,0.0,112.0,762,lv
366,0.0,0.0,1.0,0.0,779.0,0.24037504196166995,1.8755939006805415,0.6521340461893812,0.0,0.0,112.0,762,lv
367,1.0,1.0,1.0,1.0,779.0,0.25003600120544434,1.5367698669433594,0.28933058727781946,0.0,0.0,112.0,762,lv
368,0.0,1.0,0.0,3.0,781.0,0.2868330478668213,1.7595620155334473,0.4820679312743617,0.0,0.0,112.0,762,lv
369,1.0,1.0,1.0,2.0,782.0,0.28226399421691895,1.8782021999359129,0.593565468797626,0.0,0.0,112.0,762,lv
370,1.0,0.0,0.0,0.0,781.0,0.30176401138305664,1.8004798889160156,0.5108650127221313,0.0,1.0,111.0,762,lv
371,0.0,0.0,1.0,0.0,780.0,0.25716495513916016,1.9727051258087165,0.7333872869033253,0.0,1.0,112.0,762,lv
372,1.0,0.0,0.0,0.0,779.0,0.21661400794982913,1.776609897613525,0.560246818699841,0.0,0.0,112.0,762,lv
373,0.0,1.0,0.0,2.0,780.0,0.287816047668457,1.7811591625213623,0.5082185551560995,1.0,0.0,112.0,762,lv
374,1.0,0.0,0.0,0.0,779.0,0.25746703147888184,1.7590589523315427,0.5173457187530817,0.0,1.0,111.0,762,lv
375,0.0,1.0,0.0,3.0,781.0,0.3889448642730713,1.9478411674499512,0.5651954995349772,0.0,0.0,111.0,762,lv
376,1.0,0.0,0.0,0.0,780.0,0.2956697940826416,1.8906848430633545,0.6059197054521728,0.0,1.0,112.0,762,lv
377,0.0,0.0,1.0,0.0,779.0,0.3047270774841308,1.9797008037567136,0.6856336281447337,0.0,1.0,111.0,762,lv
378,0.0,1.0,0.0,1.0,779.0,0.29848909378051763,1.760215997695923,0.4627659310346028,0.0,0.0,111.0,762,lv
379,1.0,1.0,1.0,1.0,779.0,0.3455359935760498,1.6762468814849854,0.3558603631695822,0.0,0.0,111.0,762,lv
380,1.0,0.0,0.0,0.0,778.0,0.3122649192810058,1.638156175613403,0.3274266957521945,0.0,1.0,112.0,762,lv
381,0.0,0.0,1.0,0.0,777.0,0.5700640678405761,1.8828699588775633,0.3270443721665974,0.0,1.0,111.0,762,lv
382,0.0,0.0,1.0,0.0,776.0,0.4588110446929932,2.1372880935668945,0.69734923876015,0.0,1.0,112.0,762,lv
383,1.0,0.0,0.0,0.0,775.0,0.263451099395752,1.8967638015747073,0.6442297923049933,0.0,1.0,111.0,762,lv
384,1.0,0.0,0.0,0.0,774.0,0.2735488414764404,1.668230056762695,0.4127665199138815,0.0,1.0,112.0,762,lv
385,0.0,0.0,1.0,0.0,773.0,0.302994966506958,1.9493741989135744,0.6619657378179608,0.0,1.0,111.0,762,lv
386,0.0,0.0,1.0,0.0,772.0,0.34599995613098145,1.7609918117523193,0.4232602250040741,0.0,1.0,112.0,762,lv
387,1.0,1.0,1.0,1.0,772.0,0.6064071655273438,2.1859281063079834,0.5924002422411709,0.0,1.0,111.0,762,lv
388,1.0,1.0,1.0,3.0,774.0,0.4731600284576416,2.047041893005371,0.5895246174326025,0.0,1.0,112.0,762,lv
389,0.0,0.0,1.0,0.0,773.0,0.6632509231567383,2.1285741329193115,0.4682762840508249,0.0,1.0,111.0,762,lv
390,1.0,0.0,0.0,0.0,772.0,0.3399300575256348,2.0550649166107178,0.7231845277925819,0.0,1.0,112.0,762,lv
391,0.0,1.0,0.0,3.0,774.0,0.2830479145050048,1.9792549610137935,0.7025256405924385,0.0,1.0,111.0,762,lv
392,1.0,1.0,1.0,3.0,776.0,0.2747540473937988,1.899363040924072,0.635391497214366,0.0,0.0,111.0,762,lv
393,1.0,1.0,1.0,4.0,779.0,0.34183192253112793,1.9137609004974363,0.5825944945412657,0.0,0.0,111.0,762,lv
394,1.0,1.0,1.0,3.0,781.0,0.573228120803833,1.9841899871826172,0.4170172388426947,0.0,1.0,112.0,762,lv
395,0.0,1.0,0.0,3.0,783.0,0.3269929885864257,1.6324660778045657,0.31630904721654285,0.0,0.0,112.0,762,lv
396,1.0,1.0,1.0,4.0,786.0,0.40367317199707037,2.06008505821228,0.6594269608613489,0.0,0.0,112.0,762,lv
397,1.0,0.0,0.0,0.0,785.0,0.29778599739074707,1.717988967895508,0.42774547490540143,0.0,1.0,111.0,762,lv
398,1.0,1.0,1.0,1.0,785.0,0.31118297576904297,2.0039541721343994,0.7148152757842272,0.0,0.0,111.0,762,lv
399,0.0,1.0,0.0,1.0,785.0,0.31023502349853516,1.7221407890319824,0.43729382841026376,0.0,0.0,111.0,762,lv
400,1.0,0.0,0.0,0.0,784.0,0.313913106918335,1.8695971965789795,0.556829743344933,0.0,0.0,111.0,762,lv
401,1.0,0.0,0.0,0.0,783.0,0.29838895797729487,1.9955389499664304,0.7022948153846902,0.0,1.0,112.0,762,lv
402,0.0,0.0,1.0,0.0,782.0,0.27348899841308594,1.9837651252746584,0.7193538457687396,0.0,1.0,111.0,762,lv
403,0.0,1.0,0.0,3.0,784.0,0.4811420440673828,1.7939429283142088,0.31395045734379595,0.0,0.0,111.0,762,lv
404,0.0,0.0,1.0,0.0,783.0,0.3368148803710937,1.641297101974487,0.3218926941408597,0.0,1.0,112.0,762,lv
405,0.0,1.0,0.0,3.0,785.0,0.33081793785095215,1.6406660079956057,0.31264220824531835,0.0,1.0,111.0,762,lv
406,1.0,0.0,0.0,0.0,784.0,0.38653802871704096,1.7874450683593752,0.4166771797101184,1.0,1.0,112.0,762,lv
407,1.0,0.0,0.0,0.0,783.0,0.3408851623535156,1.8384218215942385,0.5050833188028474,0.0,0.0,112.0,762,lv
408,0.0,1.0,0.0,2.0,784.0,0.25034189224243164,1.8906362056732176,0.6456574645388239,0.0,0.0,112.0,762,lv
409,1.0,1.0,1.0,3.0,786.0,0.31217408180236816,1.9996998310089111,0.6953647762425469,0.0,0.0,112.0,762,lv
410,0.0,1.0,0.0,4.0,789.0,0.28223299980163574,1.8921780586242676,0.620986491843156,0.0,0.0,112.0,762,lv
411,1.0,0.0,0.0,0.0,788.0,0.3143308162689209,1.9602980613708496,0.6480602649385224,0.0,1.0,111.0,762,lv
412,0.0,0.0,1.0,0.0,787.0,0.27842903137207037,1.9038519859313967,0.6352705796281994,0.0,1.0,112.0,762,lv
413,1.0,0.0,0.0,0.0,786.0,0.2827708721160889,1.7897660732269287,0.5086036339787084,0.0,0.0,112.0,762,lv
414,0.0,0.0,1.0,0.0,785.0,0.465512990951538,2.187748908996582,0.7300199388414725,0.0,0.0,112.0,762,lv
415,1.0,1.0,1.0,4.0,788.0,0.403203010559082,2.072172164916992,0.6851474210165778,0.0,1.0,111.0,762,lv
416,1.0,0.0,0.0,0.0,787.0,0.3390209674835205,2.0701658725738525,0.7386762903730478,0.0,1.0,112.0,762,lv
417,1.0,1.0,1.0,4.0,790.0,0.286607027053833,1.9109129905700684,0.6330919242730157,0.0,1.0,111.0,762,lv
418,1.0,1.0,1.0,1.0,790.0,0.27383995056152344,1.571033000946045,0.304510389326527,0.0,0.0,111.0,762,lv
419,0.0,0.0,1.0,0.0,789.0,0.41622996330261236,2.0819549560546875,0.6695019068115508,0.0,1.0,112.0,762,lv
420,0.0,1.0,0.0,3.0,791.0,0.3269391059875488,1.6369941234588623,0.32359422487024825,0.0,0.0,112.0,762,lv
421,1.0,1.0,1.0,4.0,794.0,0.29265689849853516,1.644278049468994,0.3678731556905328,0.0,0.0,112.0,762,lv
422,0.0,1.0,0.0,3.0,796.0,0.2736918926239014,1.533094882965088,0.26778724255013214,0.0,0.0,112.0,762,lv
423,1.0,1.0,1.0,2.0,797.0,0.3675060272216797,1.7580192089080808,0.3924059812983788,0.0,0.0,112.0,762,lv
424,1.0,1.0,1.0,3.0,799.0,0.30045199394226074,1.612640857696533,0.32186473530567633,0.0,0.0,112.0,762,lv
425,0.0,1.0,0.0,2.0,800.0,0.3078939914703369,1.5974459648132324,0.3027172428428098,0.0,0.0,112.0,762,lv
426,0.0,1.0,0.0,4.0,803.0,0.3179860115051269,1.8124959468841553,0.4984009196628079,0.0,0.0,112.0,762,lv
427,0.0,1.0,0.0,6.0,808.0,0.2789759635925293,1.773240089416504,0.505037011224823,0.0,0.0,112.0,762,lv
428,0.0,1.0,0.0,3.0,810.0,0.2467350959777832,1.780824899673462,0.5358736517706617,0.0,0.0,112.0,762,lv
429,1.0,1.0,1.0,0.0,809.0,0.23741912841796875,1.5729880332946777,0.3424576022107994,0.0,0.0,112.0,762,lv
430,1.0,0.0,0.0,0.0,808.0,0.34487318992614746,1.7653429508209229,0.42441069323093683,0.0,0.0,112.0,762,lv
431,1.0,1.0,1.0,2.0,809.0,0.3243529796600342,1.850690841674805,0.5417857444612016,0.0,0.0,112.0,762,lv
432,0.0,1.0,0.0,3.0,811.0,0.2683789730072021,1.8798189163208008,0.6216051297304259,0.0,0.0,112.0,762,lv
433,1.0,1.0,1.0,2.0,812.0,0.31900596618652344,2.0255210399627686,0.7137299033949658,0.0,0.0,112.0,762,lv
434,1.0,1.0,1.0,2.0,813.0,0.3075540065765381,1.7453699111938479,0.4594555419914253,0.0,0.0,112.0,762,lv
435,1.0,1.0,1.0,2.0,814.0,0.2755610942840576,1.7491388320922852,0.4919678798556026,0.0,0.0,112.0,762,lv
436,0.0,1.0,0.0,2.0,815.0,0.3716199398040771,1.671222925186157,0.3133777254100793,0.0,0.0,112.0,762,lv
437,0.0,1.0,0.0,3.0,817.0,0.34599804878234863,1.6615569591522215,0.32500302896192823,0.0,0.0,112.0,762,lv
438,0.0,1.0,0.0,2.0,818.0,0.3304259777069092,1.960798978805542,0.6355213812897007,0.0,0.0,112.0,762,lv
439,1.0,1.0,1.0,2.0,819.0,0.2397389411926269,1.8177959918975832,0.5867744745202408,0.0,0.0,112.0,762,lv
440,1.0,1.0,1.0,3.0,821.0,0.29411911964416504,1.8747868537902832,0.5949673933581937,0.0,0.0,112.0,762,lv
441,1.0,1.0,1.0,2.0,822.0,0.2915198802947998,1.768848896026611,0.497290214341744,0.0,0.0,112.0,762,lv
442,0.0,0.0,1.0,0.0,821.0,0.2370140552520752,1.5049190521240232,0.2858204551151283,1.0,1.0,111.0,762,lv
443,0.0,1.0,0.0,2.0,822.0,0.34433102607727045,1.789414882659912,0.44182741028794376,0.0,0.0,111.0,762,lv
444,0.0,1.0,0.0,2.0,823.0,0.2411251068115235,1.7642841339111326,0.5393910305392294,0.0,0.0,111.0,762,lv
445,0.0,0.0,1.0,0.0,822.0,0.22740101814270014,1.84135103225708,0.6307023968421483,0.0,1.0,112.0,762,lv
446,1.0,1.0,1.0,3.0,824.0,0.2481701374053955,1.772486925125122,0.5367289111444372,0.0,0.0,112.0,762,lv
447,0.0,0.0,1.0,0.0,823.0,0.23987603187561035,1.8634898662567136,0.633477609673184,0.0,1.0,111.0,762,lv
448,1.0,0.0,0.0,0.0,822.0,0.22123289108276367,1.9477510452270512,0.7311913485392326,0.0,0.0,111.0,762,lv
449,1.0,1.0,1.0,2.0,823.0,0.2240409851074219,1.7598280906677246,0.5579621017773178,0.0,0.0,111.0,762,lv
450,0.0,1.0,0.0,1.0,823.0,0.2854740619659423,1.7850310802459715,0.5097511834162916,0.0,0.0,111.0,762,lv
451,1.0,1.0,1.0,2.0,824.0,0.2701230049133301,1.9493749141693115,0.6923297752165002,0.0,0.0,111.0,762,lv
452,1.0,1.0,1.0,2.0,825.0,0.3282029628753662,2.007704973220825,0.7001013425070449,0.0,0.0,111.0,762,lv
453,0.0,1.0,0.0,3.0,827.0,0.34469008445739746,1.7773478031158447,0.4444529642973623,0.0,0.0,111.0,762,lv
454,1.0,1.0,1.0,3.0,829.0,0.27202582359313965,1.9058320522308347,0.6501452417894094,0.0,0.0,111.0,762,lv
455,0.0,0.0,1.0,0.0,828.0,0.27943992614746094,1.9176409244537356,0.6345294247427793,0.0,1.0,112.0,762,lv
456,1.0,1.0,1.0,3.0,830.0,0.2357912063598633,1.545129060745239,0.3133967994751822,0.0,1.0,111.0,762,lv
457,1.0,0.0,0.0,0.0,829.0,0.2935340404510498,1.8682861328125,0.5980948983339544,0.0,1.0,112.0,762,lv
458,0.0,0.0,1.0,0.0,828.0,0.2439429759979248,1.5417869091033936,0.3235892891015763,0.0,1.0,111.0,762,lv
459,1.0,1.0,1.0,1.0,828.0,0.415963888168335,1.996888875961304,0.5869119154849373,0.0,0.0,111.0,762,lv
460,0.0,1.0,0.0,3.0,830.0,0.2370569705963135,1.6862480640411377,0.4567273998516353,0.0,0.0,111.0,762,lv
461,0.0,1.0,0.0,2.0,831.0,0.2807700634002685,1.5476279258728027,0.27122875896712484,0.0,0.0,111.0,762,lv
462,1.0,1.0,1.0,3.0,833.0,0.27883219718933105,1.9455869197845457,0.6664812068081016,0.0,0.0,111.0,762,lv
463,1.0,0.0,0.0,0.0,832.0,0.311931848526001,1.8285629749298096,0.5119808770212733,0.0,0.0,111.0,762,lv
464,1.0,1.0,1.0,3.0,834.0,0.28928995132446284,1.6212699413299558,0.35014754019502253,0.0,0.0,111.0,762,lv
465,0.0,1.0,0.0,3.0,836.0,0.24504089355468756,1.609084129333496,0.35927076096087035,0.0,0.0,111.0,762,lv
466,1.0,1.0,1.0,2.0,837.0,0.32007193565368647,1.985954999923706,0.6782662246187461,0.0,0.0,111.0,762,lv
467,0.0,1.0,0.0,3.0,839.0,0.25187587738037104,1.8114869594573972,0.573309164954788,0.0,0.0,111.0,762,lv
468,0.0,1.0,0.0,3.0,841.0,0.26723504066467285,1.942460060119629,0.6823934834720858,0.0,0.0,111.0,762,lv
469,1.0,1.0,1.0,2.0,842.0,0.3462800979614258,1.6965179443359375,0.34600187440400315,0.0,1.0,112.0,762,lv
470,0.0,1.0,0.0,4.0,845.0,0.4670851230621338,2.164752960205078,0.7104349448970341,1.0,0.0,112.0,762,lv
471,0.0,0.0,1.0,0.0,844.0,0.2853691577911377,1.8251988887786863,0.5525497787638519,0.0,1.0,111.0,762,lv
472,1.0,0.0,0.0,0.0,843.0,0.27807116508483887,1.5806760787963867,0.31685069089223694,0.0,1.0,112.0,762,lv
473,1.0,1.0,1.0,2.0,844.0,0.28093194961547846,1.6146039962768552,0.331517037417574,0.0,0.0,112.0,762,lv
474,0.0,1.0,0.0,2.0,845.0,0.30599999427795405,1.9994289875030524,0.7139336653623772,0.0,0.0,112.0,762,lv
475,1.0,0.0,0.0,0.0,844.0,0.31096601486206055,2.0233190059661865,0.7373007651991845,0.0,1.0,111.0,762,lv
476,0.0,1.0,0.0,3.0,846.0,0.4027168750762939,1.708625078201294,0.31313340801328615,0.0,0.0,111.0,762,lv
477,1.0,0.0,0.0,0.0,845.0,0.4027509689331055,2.04056715965271,0.6534057007098562,0.0,1.0,112.0,762,lv
478,0.0,1.0,0.0,2.0,846.0,0.35484504699707037,1.8665459156036377,0.5201235574284335,0.0,0.0,112.0,762,lv
479,0.0,0.0,1.0,0.0,845.0,0.3402299880981445,1.8524949550628664,0.5226869617376473,0.0,1.0,111.0,762,lv
480,1.0,0.0,0.0,0.0,844.0,0.34227800369262695,1.9915959835052488,0.6641935155679485,0.0,1.0,112.0,762,lv
481,1.0,1.0,1.0,2.0,845.0,0.26305103302001953,1.709192991256714,0.4569969694119072,0.0,0.0,112.0,762,lv
482,0.0,1.0,0.0,4.0,848.0,0.2804439067840576,2.016794919967652,0.7402243599219868,0.0,0.0,112.0,762,lv
483,0.0,1.0,0.0,1.0,848.0,0.2587552070617676,1.5744199752807615,0.3318117442382316,0.0,0.0,112.0,762,lv
484,0.0,0.0,1.0,0.0,847.0,0.5181322097778321,1.98734712600708,0.4857809628512572,0.0,0.0,112.0,762,lv
485,1.0,0.0,0.0,0.0,846.0,0.28227519989013666,1.569082021713257,0.2883915107728378,0.0,1.0,111.0,762,lv
486,0.0,0.0,1.0,0.0,845.0,0.3527259826660156,2.090965986251831,0.7455888814735419,0.0,0.0,111.0,762,lv
487,1.0,1.0,1.0,4.0,848.0,0.3573501110076904,1.945937156677246,0.6084394584742472,0.0,0.0,111.0,762,lv
488,1.0,1.0,1.0,2.0,849.0,0.332489013671875,1.81797194480896,0.4932626253471316,0.0,0.0,111.0,762,lv
489,0.0,1.0,0.0,2.0,850.0,0.2578129768371582,1.6007370948791504,0.3608629242521689,0.0,0.0,111.0,762,lv
490,0.0,0.0,1.0,0.0,849.0,0.32785701751708984,1.8168129920959473,0.5109172476218308,0.0,1.0,112.0,762,lv
491,1.0,1.0,1.0,3.0,851.0,0.29733800888061523,1.694249153137207,0.4053258151724233,0.0,0.0,112.0,762,lv
492,1.0,1.0,1.0,3.0,853.0,0.31951785087585444,1.69507098197937,0.38383570063249484,0.0,0.0,112.0,762,lv
493,0.0,0.0,1.0,0.0,852.0,0.300530195236206,1.9011700153350832,0.6015359515580136,0.0,1.0,111.0,762,lv
494,0.0,1.0,0.0,1.0,852.0,0.22549700736999514,1.891263008117676,0.6760975824626703,0.0,0.0,111.0,762,lv
495,1.0,1.0,1.0,5.0,856.0,0.28519606590271,1.9562880992889404,0.6823800782070972,0.0,1.0,112.0,762,lv
496,0.0,1.0,0.0,2.0,857.0,0.3326787948608398,1.9232258796691892,0.5891376495582938,0.0,0.0,112.0,762,lv
497,0.0,1.0,0.0,2.0,858.0,0.3659968376159668,1.8703131675720213,0.509627899670799,0.0,0.0,112.0,762,lv
498,1.0,1.0,1.0,2.0,859.0,0.3313629627227783,1.9130029678344729,0.589275328181844,0.0,0.0,112.0,762,lv
499,1.0,1.0,1.0,1.0,859.0,0.42477989196777344,2.053305864334106,0.6425933959888283,0.0,0.0,112.0,762,lv
500,1.0,0.0,0.0,0.0,858.0,0.2708880901336669,1.9499669075012207,0.6925761618253594,0.0,0.0,112.0,762,lv
501,1.0,1.0,1.0,3.0,860.0,0.3109240531921387,1.8069128990173335,0.5164135352797178,0.0,0.0,112.0,762,lv
502,1.0,1.0,1.0,2.0,861.0,0.2993569374084473,1.7162370681762693,0.41612740462685116,0.0,0.0,112.0,762,lv
503,1.0,1.0,1.0,1.0,861.0,0.2988579273223877,1.7251410484313965,0.4246833252329133,0.0,0.0,112.0,762,lv
504,1.0,1.0,1.0,1.0,861.0,0.2782211303710937,1.6337950229644773,0.37525271722085374,0.0,0.0,112.0,762,lv
505,1.0,0.0,0.0,0.0,860.0,0.4199669361114502,2.031163215637207,0.62291162647177,0.0,0.0,112.0,762,lv
506,0.0,1.0,0.0,4.0,863.0,0.3746018409729004,1.9410278797149656,0.5807047994148404,0.0,0.0,112.0,762,lv
507,0.0,0.0,1.0,0.0,862.0,0.2623720169067382,1.7397620677947996,0.4873064359034718,0.0,1.0,111.0,762,lv
508,1.0,0.0,0.0,0.0,861.0,0.3374850749969482,1.7935810089111326,0.4643354853004215,0.0,0.0,111.0,762,lv
509,0.0,0.0,1.0,0.0,860.0,0.382235050201416,1.7454209327697754,0.37656778123936346,0.0,1.0,112.0,762,lv
510,0.0,0.0,1.0,0.0,859.0,0.5101499557495117,1.9859600067138672,0.4958017842327007,0.0,1.0,111.0,762,lv
511,1.0,1.0,1.0,2.0,860.0,0.23986005783081055,1.869839906692505,0.6488455878577469,0.0,0.0,111.0,762,lv
512,1.0,1.0,1.0,3.0,862.0,0.2796831130981445,1.9022400379180908,0.6178905625465372,0.0,1.0,112.0,762,lv
513,1.0,0.0,0.0,0.0,861.0,0.3067800998687744,1.7260010242462156,0.4274746347500761,0.0,1.0,111.0,762,lv
514,0.0,0.0,1.0,0.0,860.0,0.30519390106201166,1.5598039627075198,0.2708722385720332,0.0,1.0,112.0,762,lv
515,1.0,1.0,1.0,4.0,863.0,0.37558388710021967,1.8957300186157224,0.5329894557141743,0.0,1.0,111.0,762,lv
516,0.0,1.0,0.0,3.0,865.0,0.2896919250488281,1.6320090293884275,0.34861089612312574,1.0,0.0,111.0,762,lv
517,0.0,1.0,0.0,5.0,869.0,0.37602114677429194,1.821269989013672,0.4697948438666799,0.0,0.0,111.0,762,lv
518,1.0,1.0,1.0,3.0,871.0,0.36973786354064947,1.8081910610198972,0.4447801699304912,0.0,0.0,111.0,762,lv
519,0.0,1.0,0.0,2.0,872.0,0.29283881187438965,1.713634967803955,0.4417942132640301,0.0,0.0,111.0,762,lv
520,0.0,0.0,1.0,0.0,871.0,0.2711529731750488,1.5260801315307617,0.2681455186487207,0.0,1.0,112.0,762,lv
521,0.0,0.0,1.0,0.0,870.0,0.3330020904541017,2.040933847427368,0.7086490459815662,0.0,1.0,111.0,762,lv
522,0.0,0.0,1.0,0.0,869.0,0.23862409591674805,1.6389720439910886,0.41465850587033665,0.0,0.0,111.0,762,lv
523,1.0,0.0,0.0,0.0,868.0,0.23240995407104484,1.8866050243377683,0.6677403732059553,0.0,0.0,111.0,762,lv
524,0.0,1.0,0.0,1.0,868.0,0.4534759521484375,2.13676381111145,0.687872803434401,0.0,0.0,111.0,762,lv
525,0.0,1.0,0.0,4.0,871.0,0.2282159328460693,1.6578009128570559,0.4460111863337216,0.0,0.0,111.0,762,lv
526,0.0,1.0,0.0,2.0,872.0,0.2432808876037597,1.751560926437378,0.5308616125701942,0.0,0.0,111.0,762,lv
527,1.0,0.0,0.0,0.0,871.0,0.32430100440979,1.8658428192138672,0.5634109728255353,0.0,1.0,112.0,762,lv
528,1.0,1.0,1.0,3.0,873.0,0.277724027633667,1.9761948585510252,0.7062100310357212,0.0,0.0,112.0,762,lv
529,0.0,1.0,0.0,3.0,875.0,0.2714560031890869,1.7737488746643066,0.513556388652432,0.0,0.0,112.0,762,lv
530,1.0,0.0,0.0,0.0,874.0,0.27486205101013184,1.699594020843506,0.44661102560954224,0.0,1.0,111.0,762,lv
531,0.0,0.0,1.0,0.0,873.0,0.24186396598815915,1.9393889904022217,0.7191320791709578,0.0,0.0,111.0,762,lv
532,1.0,1.0,1.0,4.0,876.0,0.3230230808258057,1.683076858520508,0.36928648280300913,0.0,0.0,111.0,762,lv
533,1.0,1.0,1.0,2.0,877.0,0.40376186370849604,1.9496080875396733,0.5520885902378303,0.0,0.0,111.0,762,lv
534,1.0,0.0,0.0,0.0,876.0,0.3647730350494385,1.7433710098266597,0.3790693496619214,0.0,1.0,112.0,762,lv
535,0.0,1.0,0.0,4.0,879.0,0.28047990798950195,1.8034958839416504,0.532444860088133,0.0,1.0,111.0,762,lv
536,0.0,0.0,1.0,0.0,878.0,0.28293418884277344,1.8777661323547363,0.593562897655525,0.0,1.0,112.0,762,lv
537,1.0,1.0,1.0,3.0,880.0,0.468290090560913,2.027122974395752,0.5707798342408925,0.0,1.0,111.0,762,lv
538,1.0,0.0,0.0,0.0,879.0,0.627058982849121,1.994131088256836,0.3652144549005798,0.0,0.0,111.0,762,lv
539,0.0,1.0,0.0,2.0,880.0,0.39679980278015137,2.04792594909668,0.6628799120676189,0.0,0.0,111.0,762,lv
540,0.0,0.0,1.0,0.0,879.0,0.4548540115356445,1.7563099861145022,0.3196544536870545,0.0,0.0,111.0,762,lv
542,0.0,1.0,0.0,4.0,882.0,0.5930309295654296,1.96868109703064,0.39358905259836824,0.0,1.0,111.0,762,lv
543,0.0,1.0,0.0,2.0,883.0,0.30943799018859863,1.6729478836059573,0.3832377225682023,0.0,0.0,111.0,762,lv
544,0.0,0.0,1.0,0.0,882.0,0.27511906623840326,1.919443130493164,0.652473539430388,0.0,1.0,112.0,762,lv
545,1.0,1.0,1.0,3.0,884.0,0.2894980907440185,1.7385759353637695,0.4579899425082538,0.0,0.0,112.0,762,lv
546,1.0,1.0,1.0,2.0,885.0,0.34329199790954584,1.7854399681091309,0.4601647544216664,0.0,0.0,112.0,762,lv
547,1.0,1.0,1.0,2.0,886.0,0.43003296852111816,1.9070510864257808,0.4839160021407238,0.0,0.0,112.0,762,lv
548,1.0,1.0,1.0,2.0,887.0,0.38040399551391607,2.0195150375366206,0.6366850448601197,0.0,0.0,112.0,762,lv
549,0.0,1.0,0.0,4.0,890.0,0.3728411197662354,1.9872829914093015,0.6240453854943596,0.0,0.0,112.0,762,lv
550,1.0,1.0,1.0,3.0,892.0,0.29150199890136713,1.7033541202545164,0.4276766603512439,0.0,0.0,112.0,762,lv
551,1.0,0.0,0.0,0.0,891.0,0.3465440273284912,1.8922851085662844,0.5532132430513085,1.0,1.0,111.0,762,lv
552,0.0,1.0,0.0,3.0,893.0,0.2836630344390869,1.9378590583801267,0.6576795905567832,0.0,0.0,111.0,762,lv
553,1.0,1.0,1.0,3.0,895.0,0.2933840751647949,1.7228989601135252,0.44755702101972733,0.0,0.0,111.0,762,lv
554,0.0,1.0,0.0,0.0,894.0,0.27879905700683594,2.016727924346924,0.7473881888070845,0.0,0.0,111.0,762,lv
555,1.0,0.0,0.0,0.0,893.0,0.35022401809692383,1.7549619674682617,0.4194577514446119,0.0,0.0,111.0,762,lv
556,0.0,0.0,1.0,0.0,892.0,0.7346091270446778,2.120916843414306,0.39048793531144654,0.0,0.0,111.0,762,lv
557,1.0,1.0,1.0,3.0,894.0,0.31491994857788086,1.5680701732635496,0.2587627729313372,0.0,0.0,111.0,762,lv
558,1.0,1.0,1.0,2.0,895.0,0.554344892501831,2.1221179962158203,0.580610159950121,0.0,0.0,111.0,762,lv
559,1.0,1.0,1.0,1.0,895.0,0.240710973739624,1.4775578975677492,0.2585608543078671,0.0,0.0,111.0,762,lv
560,0.0,1.0,0.0,3.0,897.0,0.4315459728240967,1.907092809677124,0.4821373234655689,0.0,0.0,111.0,762,lv
561,0.0,1.0,0.0,3.0,899.0,0.26490998268127447,1.550997972488403,0.2833524745266453,0.0,0.0,111.0,762,lv
562,0.0,1.0,0.0,1.0,899.0,0.5529758930206298,2.040371894836426,0.4903096851961252,0.0,0.0,111.0,762,lv
563,0.0,1.0,0.0,2.0,900.0,0.2396879196166992,1.6255061626434328,0.39929024518079476,0.0,0.0,111.0,762,lv
564,1.0,1.0,1.0,3.0,902.0,0.34244298934936523,1.978035926818848,0.643793108135254,0.0,0.0,111.0,762,lv
565,1.0,1.0,1.0,3.0,904.0,0.3128511905670166,1.8150768280029297,0.509087754847467,0.0,0.0,111.0,762,lv
566,1.0,1.0,1.0,4.0,907.0,0.24525904655456546,1.4917221069335935,0.25115703211001045,0.0,0.0,111.0,762,lv
567,1.0,0.0,0.0,0.0,906.0,0.2452960014343261,1.7784011363983157,0.5292972919395532,0.0,0.0,111.0,762,lv
568,1.0,1.0,1.0,3.0,908.0,0.28571391105651855,1.7505488395690916,0.4799689009316282,0.0,0.0,111.0,762,lv
569,1.0,1.0,1.0,2.0,909.0,0.265758991241455,1.537439823150635,0.2843540385403199,0.0,0.0,111.0,762,lv
570,1.0,1.0,1.0,1.0,909.0,0.2817811965942382,1.5985910892486574,0.31630720789505573,0.0,0.0,111.0,762,lv
571,1.0,1.0,1.0,3.0,911.0,0.279836893081665,1.9504041671752927,0.6663890595098865,0.0,0.0,111.0,762,lv
572,1.0,1.0,1.0,2.0,912.0,0.2129189968109131,1.8965277671813965,0.6796423674484211,0.0,0.0,111.0,762,lv
573,1.0,0.0,0.0,0.0,911.0,0.16459083557128906,1.4659810066223142,0.3127238530437204,0.0,0.0,111.0,762,lv
574,0.0,0.0,1.0,0.0,910.0,0.3279988765716553,1.5851459503173826,0.28128979345318234,0.0,1.0,112.0,762,lv
575,1.0,0.0,0.0,0.0,909.0,0.2376551628112793,1.6904859542846682,0.4716234312029937,0.0,1.0,111.0,762,lv
576,0.0,1.0,0.0,2.0,910.0,0.2307589054107666,1.8386151790618896,0.6101656431283208,0.0,0.0,111.0,762,lv
577,1.0,0.0,0.0,0.0,909.0,0.24345302581787104,1.663372993469238,0.44041776445867536,0.0,1.0,112.0,762,lv
578,1.0,0.0,0.0,0.0,908.0,0.28986096382141113,1.8612139225006104,0.5848993037397893,0.0,0.0,112.0,762,lv
579,0.0,1.0,0.0,6.0,913.0,0.2762868404388428,1.6870388984680176,0.4221403642320244,1.0,1.0,111.0,762,lv
580,0.0,0.0,1.0,0.0,912.0,0.3220069408416748,1.8926222324371331,0.5813466680201705,0.0,1.0,112.0,762,lv
581,1.0,1.0,1.0,2.0,913.0,0.3097851276397705,1.8242669105529783,0.5390822350179016,0.0,0.0,112.0,762,lv
582,0.0,1.0,0.0,3.0,915.0,0.28046298027038574,1.7906041145324707,0.5130623829820227,0.0,0.0,112.0,762,lv
583,0.0,1.0,0.0,2.0,916.0,0.29618120193481445,1.9202349185943604,0.6332311664259521,0.0,0.0,112.0,762,lv
584,0.0,1.0,0.0,3.0,918.0,0.29600501060485834,1.7266809940338137,0.4268871870210771,0.0,0.0,112.0,762,lv
585,0.0,1.0,0.0,2.0,919.0,0.3192939758300781,1.960846185684204,0.6542063062579672,0.0,0.0,112.0,762,lv
586,1.0,1.0,1.0,3.0,921.0,0.33372497558593756,1.708477973937988,0.37973808984647206,0.0,0.0,112.0,762,lv
587,0.0,0.0,1.0,0.0,920.0,0.31177592277526855,1.989107131958008,0.7019034948509169,0.0,0.0,112.0,762,lv
588,1.0,1.0,1.0,3.0,922.0,0.26284599304199213,1.958683013916016,0.694040354527109,0.0,0.0,112.0,762,lv
589,0.0,1.0,0.0,3.0,924.0,0.2739298343658447,1.6173799037933347,0.3617867024708116,0.0,0.0,112.0,762,lv
590,0.0,1.0,0.0,0.0,923.0,0.3413090705871582,1.789370059967041,0.4678184076837894,0.0,0.0,112.0,762,lv
591,1.0,1.0,1.0,2.0,924.0,0.2953920364379883,1.5560359954833984,0.25740328425009373,0.0,0.0,112.0,762,lv
592,1.0,0.0,0.0,0.0,923.0,0.36437988281249994,1.7222921848297117,0.36298207421576395,0.0,1.0,111.0,762,lv
593,1.0,1.0,1.0,3.0,925.0,0.29880523681640625,1.9957659244537356,0.7084716936476412,0.0,1.0,112.0,762,lv
594,1.0,0.0,0.0,0.0,924.0,0.3539278507232666,1.894062042236328,0.5527622845714835,0.0,0.0,112.0,762,lv
595,0.0,1.0,0.0,2.0,925.0,0.289945125579834,1.9065351486206052,0.6259966105267734,0.0,0.0,112.0,762,lv
596,0.0,0.0,1.0,0.0,924.0,0.2669248580932618,1.867074012756348,0.6097641541876225,0.0,1.0,111.0,762,lv
597,1.0,1.0,1.0,4.0,927.0,0.2123169898986816,1.6945040225982666,0.4878441198706642,0.0,0.0,111.0,762,lv
598,0.0,0.0,1.0,0.0,926.0,0.3674759864807129,2.0960938930511475,0.733740943031292,0.0,1.0,112.0,762,lv
599,0.0,0.0,1.0,0.0,925.0,0.35057401657104487,1.6754720211029055,0.32635822583565915,0.0,1.0,111.0,762,lv
600,0.0,0.0,1.0,0.0,924.0,0.7519371509552003,2.161490917205811,0.42113412527127103,0.0,1.0,112.0,762,lv
0,1.0,1.0,1.0,3.0,602.0,0.8002240657806396,2.3539471626281734,0.5555567610672771,0.0,0.0,112.0,765,lv
1,0.0,1.0,0.0,4.0,605.0,0.43341302871704096,2.0925450325012207,0.6646943760844645,0.0,0.0,112.0,765,lv
2,1.0,1.0,1.0,5.0,609.0,0.42709922790527344,1.700597047805786,0.2824338178127285,0.0,0.0,112.0,765,lv
3,0.0,1.0,0.0,3.0,611.0,0.3624780178070068,1.821933031082153,0.4542436219105544,0.0,1.0,111.0,765,lv
4,0.0,0.0,1.0,0.0,610.0,0.27978491783142084,1.6349210739135742,0.3559675876418214,0.0,0.0,111.0,765,lv
5,1.0,1.0,1.0,1.0,610.0,0.3075869083404541,1.7286579608917236,0.43461980310946496,0.0,0.0,111.0,765,lv
6,0.0,0.0,1.0,0.0,609.0,0.17635202407836914,1.7497990131378174,0.5843018552604271,0.0,1.0,112.0,765,lv
7,0.0,1.0,0.0,1.0,609.0,0.26035881042480463,1.7923600673675537,0.5434150879000395,0.0,0.0,112.0,765,lv
8,0.0,0.0,1.0,0.0,608.0,0.2720940113067627,1.8320868015289304,0.5755595322502188,0.0,0.0,112.0,765,lv
9,1.0,1.0,1.0,4.0,611.0,0.3028368949890137,1.8827130794525144,0.5916481324711709,0.0,0.0,112.0,765,lv
10,0.0,1.0,0.0,3.0,613.0,0.3215460777282715,2.042603015899658,0.7341738415059418,0.0,0.0,112.0,765,lv
11,0.0,1.0,0.0,4.0,616.0,0.2606348991394043,1.601351976394653,0.35263250572234167,0.0,0.0,112.0,765,lv
12,1.0,1.0,1.0,3.0,618.0,0.449812889099121,1.7608888149261477,0.3136273203857886,0.0,0.0,112.0,765,lv
13,0.0,0.0,1.0,0.0,617.0,0.3357858657836914,1.7264351844787595,0.406676439301807,0.0,1.0,111.0,765,lv
14,0.0,0.0,1.0,0.0,616.0,0.29037284851074213,1.541507005691528,0.265090702934135,0.0,1.0,112.0,765,lv
15,1.0,1.0,1.0,4.0,619.0,0.3982501029968262,2.04158091545105,0.6562900967490376,0.0,0.0,112.0,765,lv
16,0.0,0.0,1.0,0.0,618.0,0.1702098846435547,1.7883350849151614,0.6280385117816728,0.0,1.0,111.0,765,lv
17,1.0,1.0,1.0,3.0,620.0,0.3209340572357178,1.9239180088043208,0.6187504698152859,0.0,1.0,112.0,765,lv
18,1.0,1.0,1.0,2.0,621.0,0.3286879062652588,1.7830078601837158,0.451980950464098,0.0,0.0,112.0,765,lv
19,0.0,0.0,1.0,0.0,620.0,0.3673899173736572,1.6771488189697263,0.31267750207376455,0.0,0.0,112.0,765,lv
20,1.0,1.0,1.0,5.0,624.0,0.3568871021270752,1.5976321697235107,0.26038002673117283,0.0,0.0,112.0,765,lv
21,0.0,1.0,0.0,3.0,626.0,0.3628480434417725,2.0733368396759038,0.7166404265717585,0.0,0.0,112.0,765,lv
22,1.0,0.0,0.0,0.0,625.0,0.2235610485076904,1.7148420810699463,0.498446715166406,0.0,1.0,111.0,765,lv
23,1.0,1.0,1.0,1.0,625.0,0.3546721935272217,1.9556550979614256,0.6206665972134904,0.0,1.0,112.0,765,lv
24,0.0,0.0,1.0,0.0,624.0,0.2931859493255615,1.7702200412750244,0.4910989710359922,0.0,0.0,112.0,765,lv
25,1.0,1.0,1.0,3.0,626.0,0.3504960536956787,1.7440929412841795,0.40203157787130234,0.0,0.0,112.0,765,lv
26,0.0,1.0,0.0,3.0,628.0,0.3706798553466797,1.7369360923767088,0.372361482793013,0.0,0.0,112.0,765,lv
27,0.0,1.0,0.0,2.0,629.0,0.33830976486206055,1.8842129707336424,0.556450735351614,0.0,0.0,112.0,765,lv
28,1.0,1.0,1.0,1.0,629.0,0.22012901306152344,1.6970999240875244,0.4870107000195252,0.0,0.0,112.0,765,lv
29,0.0,0.0,1.0,0.0,628.0,0.26110100746154785,1.5796809196472166,0.3169048970197572,0.0,0.0,112.0,765,lv
30,0.0,1.0,0.0,4.0,631.0,0.358828067779541,2.0593719482421875,0.7092543973503502,0.0,0.0,112.0,765,lv
31,1.0,0.0,0.0,0.0,630.0,0.4739480018615722,1.749713182449341,0.29283244011786314,1.0,1.0,111.0,765,lv
32,0.0,1.0,0.0,1.0,630.0,0.4589028358459473,2.007701873779297,0.5669547004062829,0.0,0.0,111.0,765,lv
33,0.0,1.0,0.0,2.0,631.0,0.3933510780334473,2.0471231937408447,0.6640408632888835,0.0,0.0,111.0,765,lv
34,1.0,0.0,0.0,0.0,630.0,0.31606888771057123,1.6896898746490476,0.3874233957329761,0.0,0.0,111.0,765,lv
35,1.0,1.0,1.0,2.0,631.0,0.3611881732940673,1.825875043869018,0.4632650089961081,0.0,0.0,111.0,765,lv
36,0.0,0.0,1.0,0.0,630.0,0.3385119438171387,1.9316658973693848,0.6115070537321914,0.0,0.0,111.0,765,lv
37,0.0,0.0,1.0,0.0,629.0,0.2112689018249512,1.5067830085754395,0.3186493506146301,0.0,1.0,112.0,765,lv
38,1.0,1.0,1.0,2.0,630.0,0.39667797088623047,2.066467046737671,0.668119625327867,0.0,0.0,112.0,765,lv
39,1.0,0.0,0.0,0.0,629.0,0.28203892707824707,1.9942469596862793,0.7123670926824014,0.0,1.0,111.0,765,lv
40,0.0,1.0,0.0,3.0,631.0,0.21882200241088867,1.490058898925781,0.2863142783670181,0.0,0.0,111.0,765,lv
41,0.0,1.0,0.0,1.0,631.0,0.356827974319458,1.8061749935150144,0.4589850808346834,0.0,0.0,111.0,765,lv
42,0.0,1.0,0.0,2.0,632.0,0.3309400081634521,1.7143330574035647,0.3901572756204806,0.0,0.0,111.0,765,lv
43,0.0,1.0,0.0,4.0,635.0,0.323383092880249,1.8623950481414795,0.5524465708369324,0.0,0.0,111.0,765,lv
44,0.0,1.0,0.0,2.0,636.0,0.3067009449005127,1.6610710620880127,0.3637660061826926,0.0,0.0,111.0,765,lv
45,0.0,1.0,0.0,3.0,638.0,0.24677515029907224,1.7282199859619138,0.4919161091903709,0.0,0.0,111.0,765,lv
46,0.0,1.0,0.0,2.0,639.0,0.2814738750457764,1.8332741260528564,0.5584857831303963,0.0,0.0,111.0,765,lv
47,1.0,0.0,0.0,0.0,638.0,0.36423492431640636,1.8310189247131343,0.4730113950934772,0.0,1.0,112.0,765,lv
48,1.0,1.0,1.0,3.0,640.0,0.2988851070404053,1.6389031410217283,0.34541622309785674,0.0,1.0,111.0,765,lv
49,1.0,1.0,1.0,4.0,643.0,0.3536379337310791,2.066303968429565,0.7280105850924709,0.0,0.0,111.0,765,lv
50,1.0,1.0,1.0,2.0,644.0,0.30304718017578125,1.6225900650024412,0.3343986396915136,0.0,0.0,111.0,765,lv
51,0.0,1.0,0.0,2.0,645.0,0.37276983261108404,1.9302520751953125,0.5645213606587732,0.0,0.0,111.0,765,lv
52,0.0,0.0,1.0,0.0,644.0,0.2881619930267334,1.663743019104004,0.39513081369921205,0.0,0.0,111.0,765,lv
53,1.0,1.0,1.0,4.0,647.0,0.3195838928222656,1.6056499481201172,0.3009236431226279,0.0,0.0,111.0,765,lv
54,0.0,0.0,1.0,0.0,646.0,0.3889470100402832,1.7317891120910645,0.34940012306900964,0.0,1.0,112.0,765,lv
55,1.0,1.0,1.0,3.0,648.0,0.2906780242919922,1.8696858882904048,0.5855659731828142,0.0,1.0,111.0,765,lv
56,0.0,1.0,0.0,2.0,649.0,0.28315210342407227,1.9719500541687007,0.690796438659233,0.0,0.0,111.0,765,lv
57,1.0,1.0,1.0,4.0,652.0,0.30850887298583984,1.6243021488189695,0.33219034916223084,0.0,0.0,111.0,765,lv
58,1.0,1.0,1.0,4.0,655.0,0.3678789138793945,1.8528549671173091,0.5015976589125645,0.0,0.0,111.0,765,lv
59,1.0,0.0,0.0,0.0,654.0,0.3142170906066894,1.6981229782104494,0.38322991633401604,0.0,1.0,112.0,765,lv
60,1.0,0.0,0.0,0.0,653.0,0.3253450393676758,1.9748759269714355,0.6578874598605727,0.0,1.0,111.0,765,lv
61,1.0,1.0,1.0,1.0,653.0,0.2617299556732178,1.8059990406036377,0.5639890491650439,0.0,0.0,111.0,765,lv
62,0.0,1.0,0.0,4.0,656.0,0.2857711315155029,1.6966190338134763,0.42750956679959684,0.0,0.0,111.0,765,lv
63,0.0,0.0,1.0,0.0,655.0,0.3568840026855469,1.623918056488037,0.28496448427488025,0.0,1.0,112.0,765,lv
64,1.0,1.0,1.0,2.0,656.0,0.3166439533233642,1.5825660228729246,0.26761554778881236,0.0,1.0,111.0,765,lv
65,0.0,1.0,0.0,2.0,657.0,0.31832003593444824,2.040174961090088,0.7240496633002076,0.0,0.0,111.0,765,lv
66,0.0,0.0,1.0,0.0,656.0,0.30006790161132807,1.8075878620147707,0.515207174694597,0.0,1.0,112.0,765,lv
67,0.0,0.0,1.0,0.0,655.0,0.2770969867706299,1.782478094100952,0.5306135012689615,0.0,1.0,111.0,765,lv
68,0.0,0.0,1.0,0.0,654.0,0.3378629684448242,2.0488879680633545,0.7297950097087798,1.0,1.0,112.0,765,lv
69,1.0,1.0,1.0,1.0,654.0,0.3509140014648437,1.8997039794921875,0.5630933119703602,0.0,0.0,112.0,765,lv
70,0.0,1.0,0.0,2.0,655.0,0.2959909439086914,1.5392608642578125,0.2527266774930835,0.0,0.0,112.0,765,lv
71,1.0,0.0,0.0,0.0,654.0,0.38500905036926264,2.0705389976501465,0.6895521561314877,0.0,1.0,111.0,765,lv
72,0.0,1.0,0.0,4.0,657.0,0.33444094657897944,1.7825849056243896,0.4557693472275137,0.0,1.0,112.0,765,lv
73,0.0,1.0,0.0,3.0,659.0,0.31515812873840326,1.7810490131378174,0.4702008421989661,0.0,0.0,112.0,765,lv
74,0.0,0.0,1.0,0.0,658.0,0.33486199378967285,1.9426541328430171,0.612749605641138,0.0,1.0,111.0,765,lv
75,1.0,0.0,0.0,0.0,657.0,0.3746109008789063,1.8842589855194087,0.5304846910818822,0.0,1.0,112.0,765,lv
76,1.0,1.0,1.0,3.0,659.0,0.34330105781555176,1.7196431159973147,0.4003420793365428,0.0,0.0,112.0,765,lv
77,1.0,1.0,1.0,2.0,660.0,0.3810629844665527,1.646714925765991,0.2639241250674684,0.0,0.0,112.0,765,lv
78,1.0,1.0,1.0,3.0,662.0,0.4308879375457764,1.9701890945434568,0.5505496230592867,0.0,0.0,112.0,765,lv
79,0.0,0.0,1.0,0.0,661.0,0.2965090274810791,1.6908519268035889,0.3916097858641038,0.0,1.0,111.0,765,lv
80,0.0,0.0,1.0,0.0,660.0,0.3322849273681641,1.6639959812164307,0.33905321016549106,0.0,1.0,112.0,765,lv
81,1.0,1.0,1.0,3.0,662.0,0.3847239017486572,1.7378420829772947,0.36025619071381837,0.0,0.0,112.0,765,lv
82,1.0,0.0,0.0,0.0,661.0,0.4313740730285645,1.9274120330810545,0.504277557499607,0.0,1.0,111.0,765,lv
83,1.0,0.0,0.0,0.0,660.0,0.3651018142700195,1.878611087799072,0.516252109089478,0.0,0.0,111.0,765,lv
84,0.0,1.0,0.0,3.0,662.0,0.2918519973754882,1.8627979755401605,0.5790166693038664,0.0,1.0,112.0,765,lv
85,0.0,1.0,0.0,2.0,663.0,0.25195813179016113,1.7841320037841795,0.5465671173315089,0.0,0.0,112.0,765,lv
86,0.0,0.0,1.0,0.0,662.0,0.3095688819885254,1.7589659690856931,0.4723390129883199,0.0,1.0,111.0,765,lv
87,1.0,1.0,1.0,3.0,664.0,0.37103199958801275,1.7628891468048098,0.402072160274112,0.0,1.0,112.0,765,lv
88,1.0,0.0,0.0,0.0,663.0,0.3543980121612549,2.036465883255005,0.6882640156702104,0.0,1.0,111.0,765,lv
89,0.0,1.0,0.0,2.0,664.0,0.1941590309143066,1.445863962173462,0.25130435192253986,0.0,1.0,112.0,765,lv
90,0.0,1.0,0.0,4.0,667.0,0.426210880279541,1.8688690662384035,0.4533258574886572,0.0,0.0,112.0,765,lv
91,0.0,0.0,1.0,0.0,666.0,0.2725698947906494,1.693681001663208,0.43045537813933454,0.0,1.0,111.0,765,lv
92,0.0,0.0,1.0,0.0,665.0,0.2773330211639404,1.6414470672607422,0.3886725063137915,0.0,0.0,111.0,765,lv
93,1.0,0.0,0.0,0.0,664.0,0.38335490226745605,2.0751378536224365,0.6968777612471246,1.0,0.0,111.0,765,lv
94,1.0,1.0,1.0,2.0,665.0,0.27380990982055664,1.8429031372070312,0.5899380027634569,0.0,0.0,111.0,765,lv
95,0.0,1.0,0.0,2.0,666.0,0.1788680553436279,1.5312910079956057,0.37150909163248547,0.0,0.0,111.0,765,lv
96,0.0,1.0,0.0,3.0,668.0,0.27958202362060547,2.0024619102478027,0.7236748575786277,0.0,0.0,111.0,765,lv
97,1.0,0.0,0.0,0.0,667.0,0.27165913581848145,1.6399688720703125,0.3807402712102362,0.0,1.0,112.0,765,lv
98,0.0,1.0,0.0,2.0,668.0,0.31037187576293945,1.7359440326690672,0.4499986204596535,0.0,1.0,111.0,765,lv
99,0.0,0.0,1.0,0.0,667.0,0.2604269981384277,1.9066910743713377,0.6565135201305274,0.0,1.0,112.0,765,lv
100,1.0,0.0,0.0,0.0,666.0,0.243480920791626,1.8722701072692869,0.6455453517008753,0.0,0.0,112.0,765,lv
102,0.0,0.0,1.0,0.0,665.0,0.3090710639953613,1.6283631324768066,0.3333971449501202,0.0,1.0,112.0,765,lv
103,1.0,0.0,0.0,0.0,664.0,0.37181210517883295,1.816884994506836,0.4502191235542343,0.0,0.0,112.0,765,lv
104,0.0,0.0,1.0,0.0,663.0,0.37624597549438477,1.9547779560089111,0.5882269820877619,0.0,0.0,112.0,765,lv
105,0.0,0.0,1.0,0.0,662.0,0.3142850399017334,2.0482289791107178,0.7363564425679558,0.0,1.0,111.0,765,lv
106,0.0,0.0,1.0,0.0,661.0,0.22133183479309082,1.8801560401916504,0.6666600529924568,0.0,0.0,111.0,765,lv
107,0.0,1.0,0.0,2.0,662.0,0.30503392219543457,1.787018060684204,0.487294590166833,0.0,0.0,111.0,765,lv
108,0.0,1.0,0.0,3.0,664.0,0.35379099845886236,1.8756499290466309,0.5296097697971466,0.0,0.0,111.0,765,lv
109,1.0,0.0,0.0,0.0,663.0,0.31919193267822266,1.647036075592041,0.34355730882335045,0.0,1.0,112.0,765,lv
110,1.0,0.0,0.0,0.0,662.0,0.4272501468658447,1.6722869873046875,0.2659775165458416,0.0,0.0,112.0,765,lv
111,1.0,0.0,0.0,0.0,661.0,0.3969950675964355,1.8257989883422847,0.4250063140866879,0.0,0.0,112.0,765,lv
112,1.0,0.0,0.0,0.0,660.0,0.3823618888854981,1.68146014213562,0.3066560247426666,0.0,0.0,112.0,765,lv
113,0.0,1.0,0.0,2.0,661.0,0.34706783294677734,1.9583599567413328,0.6147175919381848,0.0,0.0,112.0,765,lv
114,1.0,1.0,1.0,1.0,661.0,0.29318308830261236,1.7515408992767332,0.4831176249855023,0.0,0.0,112.0,765,lv
115,1.0,1.0,1.0,3.0,663.0,0.2985680103302002,1.8648290634155276,0.5646109256641673,0.0,0.0,112.0,765,lv
116,0.0,1.0,0.0,2.0,664.0,0.3306241035461426,1.6103479862213133,0.29200844215004024,0.0,0.0,112.0,765,lv
117,1.0,1.0,1.0,3.0,666.0,0.3030378818511963,1.9393260478973389,0.6476371950460806,0.0,0.0,112.0,765,lv
118,1.0,1.0,1.0,2.0,667.0,0.3537859916687012,1.9658241271972656,0.6302963515569764,0.0,0.0,112.0,765,lv
119,0.0,1.0,0.0,2.0,668.0,0.2921459674835205,1.9951000213623045,0.7252961516332955,0.0,0.0,112.0,765,lv
120,1.0,1.0,1.0,4.0,671.0,0.2761549949645996,1.8375430107116697,0.5797154154848425,0.0,0.0,112.0,765,lv
121,1.0,1.0,1.0,2.0,672.0,0.2709600925445557,1.8988499641418457,0.6451641386557224,0.0,0.0,112.0,765,lv
122,0.0,0.0,1.0,0.0,671.0,0.2780320644378662,1.6672141551971436,0.39608461321959665,0.0,1.0,111.0,765,lv
123,0.0,0.0,1.0,0.0,670.0,0.35041594505310053,1.7154037952423096,0.37822666235431457,1.0,0.0,111.0,765,lv
124,1.0,1.0,1.0,2.0,671.0,0.3078138828277588,1.661395788192749,0.37300663176715937,0.0,0.0,111.0,765,lv
125,0.0,0.0,1.0,0.0,670.0,0.30417799949646007,1.6061589717864988,0.31263087102426723,0.0,1.0,112.0,765,lv
126,1.0,0.0,0.0,0.0,669.0,0.3552620410919189,1.7285029888153076,0.3911373347526634,0.0,0.0,112.0,765,lv
127,0.0,0.0,1.0,0.0,668.0,0.28698086738586426,1.6309280395507812,0.3554500034463081,0.0,0.0,112.0,765,lv
128,1.0,0.0,0.0,0.0,667.0,0.4376749992370605,2.118381977081299,0.6902101784987986,0.0,0.0,112.0,765,lv
129,0.0,0.0,1.0,0.0,666.0,0.27509593963623047,1.921555995941162,0.6618634119337,0.0,1.0,111.0,765,lv
130,1.0,1.0,1.0,1.0,666.0,0.2795519828796387,1.811190843582153,0.5399202736862923,0.0,1.0,112.0,765,lv
131,1.0,0.0,0.0,0.0,665.0,0.3319330215454101,1.76097297668457,0.4343804633254416,0.0,1.0,111.0,765,lv
132,0.0,0.0,1.0,0.0,664.0,0.33132100105285645,2.044665098190308,0.7121648408642569,0.0,0.0,111.0,765,lv
133,0.0,0.0,1.0,0.0,663.0,0.24706482887268064,1.776487112045288,0.5388773589916678,0.0,1.0,112.0,765,lv
134,1.0,1.0,1.0,3.0,665.0,0.27179098129272466,1.7385268211364746,0.4775172255018292,0.0,1.0,111.0,765,lv
135,0.0,1.0,0.0,3.0,667.0,0.33558082580566406,1.7016868591308592,0.37937453661048653,0.0,0.0,111.0,765,lv
136,1.0,1.0,1.0,1.0,667.0,0.328563928604126,1.775957107543945,0.471972704610038,0.0,0.0,111.0,765,lv
137,0.0,1.0,0.0,3.0,669.0,0.3203220367431641,1.701935052871704,0.3907397374466329,0.0,0.0,111.0,765,lv
138,0.0,1.0,0.0,2.0,670.0,0.469407081604004,2.1571359634399414,0.697607290523173,0.0,0.0,111.0,765,lv
139,1.0,1.0,1.0,4.0,673.0,0.2464771270751953,1.8830950260162356,0.6474875728727203,0.0,0.0,111.0,765,lv
140,0.0,0.0,1.0,0.0,672.0,0.2552800178527832,1.9595510959625244,0.7237010776601112,0.0,0.0,111.0,765,lv
141,1.0,1.0,1.0,2.0,673.0,0.27859807014465326,1.5654540061950684,0.2896481032244523,0.0,0.0,111.0,765,lv
142,0.0,1.0,0.0,0.0,672.0,0.4838919639587402,1.8098220825195312,0.3328209141114245,0.0,0.0,111.0,765,lv
143,1.0,1.0,1.0,2.0,673.0,0.4233880043029785,2.164660930633545,0.7470710468603342,0.0,0.0,111.0,765,lv
144,0.0,0.0,1.0,0.0,672.0,0.31745290756225586,1.88542914390564,0.5827758595403497,0.0,1.0,112.0,765,lv
145,0.0,1.0,0.0,3.0,674.0,0.28145694732666016,1.554426908493042,0.270910536069665,0.0,1.0,111.0,765,lv
146,1.0,1.0,1.0,2.0,675.0,0.4215309619903565,1.801697015762329,0.3891603602343289,0.0,0.0,111.0,765,lv
147,0.0,1.0,0.0,1.0,675.0,0.3465650081634521,2.044588088989258,0.7001469166571863,0.0,0.0,111.0,765,lv
148,1.0,1.0,1.0,0.0,674.0,0.32263398170471197,1.6038980484008787,0.2878840336998997,0.0,0.0,111.0,765,lv
149,1.0,1.0,1.0,2.0,675.0,0.5326790809631348,1.843730926513672,0.3149716548541643,0.0,0.0,111.0,765,lv
150,1.0,0.0,0.0,0.0,674.0,0.449411153793335,1.940582990646362,0.5054194982690746,0.0,1.0,112.0,765,lv
151,0.0,1.0,0.0,3.0,676.0,0.2935459613800048,1.8049421310424805,0.5270802074045526,0.0,1.0,111.0,765,lv
152,1.0,1.0,1.0,2.0,677.0,0.3085880279541017,1.7529149055480957,0.4634338034124538,0.0,0.0,111.0,765,lv
153,0.0,1.0,0.0,2.0,678.0,0.3856170177459717,1.9003250598907473,0.5304066824780251,0.0,0.0,111.0,765,lv
154,1.0,1.0,1.0,4.0,681.0,0.25173807144165034,1.9138550758361816,0.6774831783968033,0.0,0.0,111.0,765,lv
155,1.0,0.0,0.0,0.0,680.0,0.4270830154418945,2.0435791015625,0.6378644141373788,0.0,1.0,112.0,765,lv
156,0.0,1.0,0.0,3.0,682.0,0.29419302940368647,2.0102698802948,0.7314068490745371,0.0,1.0,111.0,765,lv
157,1.0,1.0,1.0,3.0,684.0,0.2462029457092285,1.502922058105469,0.2848668819048461,0.0,0.0,111.0,765,lv
158,1.0,1.0,1.0,2.0,685.0,0.5306470394134521,2.1738688945770264,0.6417505874727734,0.0,0.0,111.0,765,lv
159,0.0,1.0,0.0,6.0,690.0,0.2480409145355225,1.9777989387512207,0.7362159649867002,0.0,0.0,111.0,765,lv
160,1.0,1.0,1.0,3.0,692.0,0.2718238830566406,1.7653629779815674,0.5018711526492438,0.0,0.0,111.0,765,lv
161,1.0,1.0,1.0,3.0,694.0,0.3592147827148437,1.7956209182739256,0.44762915751560806,0.0,0.0,111.0,765,lv
162,0.0,1.0,0.0,3.0,696.0,0.3339509963989257,1.6227991580963135,0.3039438631300964,0.0,0.0,111.0,765,lv
163,1.0,1.0,1.0,3.0,698.0,0.3846549987792969,1.6734430789947508,0.29409154106464,0.0,0.0,111.0,765,lv
164,0.0,0.0,1.0,0.0,697.0,0.29902601242065424,1.6585938930511477,0.36934808064945784,1.0,1.0,112.0,765,lv
165,0.0,0.0,1.0,0.0,696.0,0.4724140167236328,1.7243499755859375,0.26054014560729505,0.0,0.0,112.0,765,lv
166,1.0,0.0,0.0,0.0,695.0,0.3598158359527588,1.7069702148437502,0.3674582695708612,0.0,0.0,112.0,765,lv
167,0.0,0.0,1.0,0.0,694.0,0.2931649684906006,1.8727138042449951,0.5899914571294632,0.0,1.0,111.0,765,lv
168,1.0,1.0,1.0,1.0,694.0,0.33458518981933594,1.6377348899841309,0.3114016929505522,0.0,1.0,112.0,765,lv
169,0.0,1.0,0.0,2.0,695.0,0.3612799644470215,1.6782121658325195,0.3396384387762263,0.0,0.0,112.0,765,lv
170,1.0,1.0,1.0,3.0,697.0,0.3090322017669678,1.9286549091339111,0.6347113723866309,0.0,0.0,112.0,765,lv
171,0.0,1.0,0.0,2.0,698.0,0.3447279930114746,1.8469419479370115,0.4985209449477147,0.0,0.0,112.0,765,lv
172,0.0,1.0,0.0,3.0,700.0,0.3764691352844238,2.0495810508728027,0.697946181858996,0.0,0.0,112.0,765,lv
173,1.0,1.0,1.0,2.0,701.0,0.2395591735839844,1.5181851387023924,0.2999389018011191,0.0,0.0,112.0,765,lv
174,1.0,1.0,1.0,2.0,702.0,0.4532749652862548,1.7645668983459473,0.3145498983011538,0.0,0.0,112.0,765,lv
175,0.0,1.0,0.0,3.0,704.0,0.3812229633331298,1.9147319793701167,0.5457770609990356,0.0,0.0,112.0,765,lv
176,0.0,1.0,0.0,3.0,706.0,0.3998050689697266,1.8681039810180664,0.4806594048624037,0.0,0.0,112.0,765,lv
177,0.0,0.0,1.0,0.0,705.0,0.5581300258636473,1.9373860359191888,0.4015447613100007,0.0,1.0,111.0,765,lv
178,1.0,1.0,1.0,2.0,706.0,0.4132590293884276,2.0922629833221436,0.6768724204488232,0.0,1.0,112.0,765,lv
179,1.0,1.0,1.0,1.0,706.0,0.373945951461792,1.8605408668518064,0.5043602136197489,0.0,0.0,112.0,765,lv
180,1.0,1.0,1.0,2.0,707.0,0.4323179721832275,1.8602211475372317,0.431361826212055,0.0,0.0,112.0,765,lv
181,0.0,1.0,0.0,3.0,709.0,0.5914399623870848,1.888761043548584,0.3203290504626137,0.0,0.0,112.0,765,lv
182,0.0,1.0,0.0,1.0,709.0,0.3494560718536377,1.724334955215454,0.3779848134198236,0.0,0.0,112.0,765,lv
183,1.0,1.0,1.0,3.0,711.0,0.4129030704498291,1.883502960205078,0.4781210901035928,0.0,0.0,112.0,765,lv
184,1.0,1.0,1.0,4.0,714.0,0.5045750141143799,1.820640087127685,0.3322979167131926,0.0,0.0,112.0,765,lv
185,1.0,1.0,1.0,3.0,716.0,0.41932106018066406,1.721476078033447,0.3038592927566978,0.0,0.0,112.0,765,lv
186,1.0,1.0,1.0,3.0,718.0,0.41966199874877924,1.9447598457336424,0.5317801388890497,0.0,0.0,112.0,765,lv
187,0.0,1.0,0.0,2.0,719.0,0.41847014427185053,1.7948091030120847,0.39344726873209934,0.0,0.0,112.0,765,lv
188,0.0,1.0,0.0,1.0,719.0,0.37457990646362305,1.8128740787506104,0.4562938031033437,0.0,0.0,112.0,765,lv
190,0.0,1.0,0.0,1.0,719.0,0.5983459949493408,2.160557985305786,0.5728541731239944,0.0,0.0,112.0,765,lv
191,1.0,1.0,1.0,0.0,718.0,0.5706930160522461,1.8307390213012689,0.2706041075607125,0.0,0.0,112.0,765,lv
192,0.0,0.0,1.0,0.0,717.0,0.6694610118865967,2.3543119430541988,0.6912056093072161,0.0,1.0,111.0,765,lv
193,1.0,0.0,0.0,0.0,716.0,0.6015670299530029,2.2646617889404292,0.6726442867901614,1.0,0.0,111.0,765,lv
194,1.0,1.0,1.0,2.0,717.0,0.3889470100402832,1.9449648857116697,0.5678041251127046,0.0,1.0,112.0,765,lv
195,0.0,1.0,0.0,3.0,719.0,0.4060299396514893,1.9923090934753411,0.5932204472333042,0.0,0.0,112.0,765,lv
196,1.0,0.0,0.0,0.0,718.0,0.31378293037414556,1.7494728565216064,0.44315433054747516,0.0,1.0,111.0,765,lv
197,0.0,1.0,0.0,3.0,720.0,0.543842077255249,2.149585008621216,0.6259535497879977,0.0,1.0,112.0,765,lv
198,0.0,1.0,0.0,2.0,721.0,0.5249300003051757,2.007354974746704,0.5001552004152628,0.0,0.0,112.0,765,lv
199,1.0,0.0,0.0,0.0,720.0,0.4173321723937988,2.04150390625,0.6249326632692955,0.0,1.0,111.0,765,lv
200,1.0,0.0,0.0,0.0,719.0,0.3770608901977539,1.7581069469451904,0.4000439226951053,0.0,0.0,111.0,765,lv
201,1.0,1.0,1.0,2.0,720.0,0.40241312980651855,1.7926878929138181,0.3927543997489792,0.0,1.0,112.0,765,lv
202,0.0,0.0,1.0,0.0,719.0,0.5031740665435791,1.9913611412048335,0.5007513428644579,0.0,1.0,111.0,765,lv
203,0.0,0.0,1.0,0.0,718.0,0.4962198734283447,1.8402380943298335,0.3578767125945822,0.0,0.0,111.0,765,lv
204,0.0,1.0,0.0,4.0,721.0,0.4389679431915283,2.091497898101806,0.6657683459196095,0.0,0.0,111.0,765,lv
205,1.0,1.0,1.0,3.0,723.0,0.2690279483795166,1.801063060760498,0.533700775861796,0.0,0.0,111.0,765,lv
206,1.0,1.0,1.0,2.0,724.0,0.42602181434631353,2.045407056808472,0.6290667311560649,0.0,0.0,111.0,765,lv
207,0.0,0.0,1.0,0.0,723.0,0.6418099403381348,1.8737800121307373,0.253311721265443,0.0,1.0,112.0,765,lv
208,1.0,1.0,1.0,3.0,725.0,0.733461856842041,2.14237904548645,0.41225458598750797,0.0,1.0,111.0,765,lv
209,0.0,1.0,0.0,4.0,728.0,0.6492679119110107,2.0611259937286377,0.4234275508455603,0.0,0.0,111.0,765,lv
210,0.0,0.0,1.0,0.0,727.0,0.6017110347747803,1.9286000728607176,0.3355323395433876,0.0,1.0,112.0,765,lv
211,1.0,0.0,0.0,0.0,726.0,0.6444728374481201,2.1680951118469243,0.5368087588933528,0.0,0.0,112.0,765,lv
212,0.0,1.0,0.0,2.0,727.0,0.715846061706543,2.1487178802490234,0.4357013449204064,0.0,1.0,111.0,765,lv
213,0.0,1.0,0.0,1.0,727.0,0.5438971519470215,1.8602461814880369,0.32942579334465305,0.0,0.0,111.0,765,lv
214,1.0,1.0,1.0,2.0,728.0,0.7069900035858153,2.2246060371398926,0.5372250213814548,0.0,0.0,111.0,765,lv
215,1.0,0.0,0.0,0.0,727.0,0.39476013183593756,2.1438450813293457,0.7476396780851843,0.0,1.0,112.0,765,lv
216,0.0,1.0,0.0,4.0,730.0,0.6675138473510743,2.2669060230255127,0.6147043123865528,0.0,1.0,111.0,765,lv
217,1.0,1.0,1.0,2.0,731.0,0.2748448848724365,1.8666808605194087,0.6148336859508896,0.0,0.0,111.0,765,lv
218,0.0,0.0,1.0,0.0,730.0,0.36030101776123047,1.6550710201263426,0.30361384176794654,0.0,1.0,112.0,765,lv
219,1.0,1.0,1.0,3.0,732.0,0.5247189998626708,1.9138579368591309,0.4007607325153829,0.0,1.0,111.0,765,lv
220,1.0,1.0,1.0,3.0,734.0,0.5110979080200195,1.8920340538024905,0.39283884267320884,0.0,0.0,111.0,765,lv
221,0.0,0.0,1.0,0.0,733.0,0.4258239269256592,2.0031399726867676,0.5958287822107386,0.0,1.0,112.0,765,lv
222,0.0,0.0,1.0,0.0,732.0,0.515950918197632,1.7554869651794431,0.2517295555288821,0.0,0.0,112.0,765,lv
223,0.0,1.0,0.0,2.0,733.0,0.7063479423522949,2.2974441051483154,0.5988842255563199,0.0,1.0,111.0,765,lv
224,1.0,1.0,1.0,3.0,735.0,0.31336092948913574,1.8949820995330813,0.5772781937409202,0.0,0.0,111.0,765,lv
225,1.0,1.0,1.0,3.0,737.0,0.38711595535278326,1.9056060314178465,0.5329975080524648,0.0,0.0,111.0,765,lv
226,1.0,1.0,1.0,2.0,738.0,0.4435169696807861,2.17228889465332,0.7384800024124346,0.0,0.0,111.0,765,lv
227,0.0,1.0,0.0,3.0,740.0,0.6029191017150879,2.1369500160217285,0.542362871321105,0.0,0.0,111.0,765,lv
228,1.0,1.0,1.0,3.0,742.0,0.5936250686645508,2.1019589900970455,0.527749496341488,0.0,0.0,111.0,765,lv
229,1.0,0.0,0.0,0.0,741.0,0.4737040996551514,1.8825600147247312,0.4272634785919021,1.0,1.0,112.0,765,lv
230,1.0,1.0,1.0,3.0,743.0,0.5674581527709961,1.938937187194824,0.38282170303848156,0.0,1.0,111.0,765,lv
231,0.0,1.0,0.0,3.0,745.0,0.5245258808135986,2.1542210578918457,0.6368359857983881,0.0,0.0,111.0,765,lv
232,1.0,0.0,0.0,0.0,744.0,0.22757697105407715,1.8403048515319824,0.6272330166072202,0.0,1.0,112.0,765,lv
233,0.0,1.0,0.0,2.0,745.0,0.4964139461517334,2.0965499877929688,0.6071904838801641,0.0,1.0,111.0,765,lv
234,0.0,0.0,1.0,0.0,744.0,0.4744031429290771,1.921785831451416,0.4625359319827404,0.0,1.0,112.0,765,lv
235,1.0,1.0,1.0,2.0,745.0,0.44580006599426264,2.072718858718872,0.6351294540757604,0.0,1.0,111.0,765,lv
236,0.0,0.0,1.0,0.0,744.0,0.3205838203430176,1.5810120105743408,0.2666000622944592,0.0,1.0,112.0,765,lv
237,1.0,0.0,0.0,0.0,743.0,0.4692580699920654,1.7430620193481443,0.27638915386411333,0.0,0.0,112.0,765,lv
238,0.0,1.0,0.0,3.0,745.0,0.4880299568176269,1.8968660831451416,0.4231498059669038,0.0,1.0,111.0,765,lv
239,1.0,0.0,0.0,0.0,744.0,0.6630520820617676,2.2664940357208248,0.6064870094063333,0.0,1.0,112.0,765,lv
240,1.0,0.0,0.0,0.0,743.0,0.43947005271911616,1.9400479793548584,0.5133056381603593,0.0,0.0,112.0,765,lv
241,1.0,1.0,1.0,3.0,745.0,0.683197021484375,2.3570687770843506,0.6867034334862734,0.0,1.0,111.0,765,lv
242,0.0,0.0,1.0,0.0,744.0,0.34064197540283203,1.9297661781311035,0.5999461174038849,0.0,1.0,112.0,765,lv
243,0.0,0.0,1.0,0.0,743.0,0.5053391456604004,2.034512996673584,0.5346046756793397,0.0,0.0,112.0,765,lv
244,1.0,1.0,1.0,3.0,745.0,0.3930521011352539,1.6501770019531252,0.268451098742902,0.0,1.0,111.0,765,lv
245,0.0,0.0,1.0,0.0,744.0,0.5481920242309569,2.1279230117797847,0.579438287598354,0.0,1.0,112.0,765,lv
246,0.0,0.0,1.0,0.0,743.0,0.479543924331665,2.1331140995025635,0.6625666828767032,0.0,0.0,112.0,765,lv
247,1.0,0.0,0.0,0.0,742.0,0.42927694320678716,2.03087306022644,0.6102213845192765,0.0,0.0,112.0,765,lv
248,1.0,1.0,1.0,2.0,743.0,0.3810169696807861,1.7443549633026123,0.3715432789268457,0.0,1.0,111.0,765,lv
249,0.0,0.0,1.0,0.0,742.0,0.4450700283050537,1.7990520000457764,0.3540109206185859,0.0,1.0,112.0,765,lv
250,0.0,0.0,1.0,0.0,741.0,0.533149003982544,1.848695993423462,0.31946714451283853,0.0,0.0,112.0,765,lv
251,0.0,0.0,1.0,0.0,740.0,0.5077650547027588,2.150441884994507,0.6529214482820948,0.0,0.0,112.0,765,lv
252,1.0,0.0,0.0,0.0,739.0,0.5362200736999512,2.0777289867401123,0.5475174752797034,0.0,0.0,112.0,765,lv
253,1.0,0.0,0.0,0.0,738.0,0.507680892944336,2.061067819595337,0.5752691652764531,0.0,0.0,112.0,765,lv
254,1.0,0.0,0.0,0.0,737.0,0.35611486434936523,1.9769098758697508,0.6355277879190373,0.0,0.0,112.0,765,lv
255,1.0,0.0,0.0,0.0,736.0,0.3788309097290039,1.9540619850158687,0.5896853950260609,0.0,0.0,112.0,765,lv
256,1.0,0.0,0.0,0.0,735.0,0.29594898223876953,1.789869785308838,0.4964025723098218,0.0,1.0,111.0,765,lv
257,0.0,1.0,0.0,0.0,734.0,0.2526290416717529,1.9319019317626955,0.6948176726266655,0.0,1.0,112.0,765,lv
258,0.0,0.0,1.0,0.0,733.0,0.4103660583496094,1.9375150203704836,0.5492240315271928,0.0,0.0,112.0,765,lv
259,1.0,1.0,1.0,4.0,736.0,0.27947092056274414,1.5429229736328125,0.25915598724849354,1.0,1.0,111.0,765,lv
260,0.0,1.0,0.0,2.0,737.0,0.492055892944336,2.0940229892730713,0.6195045006860613,0.0,0.0,111.0,765,lv
261,0.0,1.0,0.0,2.0,738.0,0.4731709957122803,1.9978210926055908,0.5341678109643737,0.0,0.0,111.0,765,lv
262,1.0,0.0,0.0,0.0,737.0,0.30217599868774414,1.8322370052337649,0.5331220996328023,0.0,1.0,112.0,765,lv
263,0.0,0.0,1.0,0.0,736.0,0.31497597694396967,1.589216947555542,0.27267512970947155,0.0,0.0,112.0,765,lv
264,1.0,0.0,0.0,0.0,735.0,0.4907779693603516,2.226108074188232,0.748326197238046,0.0,0.0,112.0,765,lv
265,0.0,0.0,1.0,0.0,734.0,0.20212507247924802,1.5215110778808592,0.33700332366987173,0.0,1.0,111.0,765,lv
266,0.0,1.0,0.0,1.0,734.0,0.4528360366821289,1.844252109527588,0.39793061250610634,0.0,1.0,112.0,765,lv
267,1.0,1.0,1.0,3.0,736.0,0.3746459484100342,2.077533006668091,0.7251891223116325,0.0,0.0,112.0,765,lv
268,1.0,0.0,0.0,0.0,735.0,0.4593849182128906,1.9623658657073972,0.5211563330269616,0.0,1.0,111.0,765,lv
269,1.0,0.0,0.0,0.0,734.0,0.3707160949707031,2.061174154281616,0.698886487522119,0.0,0.0,111.0,765,lv
270,0.0,0.0,1.0,0.0,733.0,0.27910590171813965,1.6418790817260744,0.3744918325528284,0.0,0.0,111.0,765,lv
271,1.0,1.0,1.0,1.0,733.0,0.4978599548339844,2.122583866119385,0.6301681433362286,0.0,0.0,111.0,765,lv
272,0.0,1.0,0.0,3.0,735.0,0.5502932071685792,1.8247439861297607,0.28870083228648086,0.0,0.0,111.0,765,lv
273,1.0,1.0,1.0,3.0,737.0,0.38799190521240245,1.6461668014526365,0.2682554847833365,0.0,0.0,111.0,765,lv
274,1.0,1.0,1.0,5.0,741.0,0.4130518436431885,1.9524888992309568,0.5371824702519761,0.0,0.0,111.0,765,lv
275,0.0,1.0,0.0,3.0,743.0,0.3351409435272217,1.9488840103149412,0.6193880440742693,0.0,0.0,111.0,765,lv
276,0.0,1.0,0.0,2.0,744.0,0.43118691444396967,2.105043172836304,0.6744363597089998,0.0,0.0,111.0,765,lv
277,1.0,1.0,1.0,4.0,747.0,0.1912391185760498,1.4480459690093992,0.27296990222311684,0.0,0.0,111.0,765,lv
278,0.0,0.0,1.0,0.0,746.0,0.4613001346588136,1.734817028045654,0.2745007882100871,0.0,1.0,112.0,765,lv
279,1.0,1.0,1.0,3.0,748.0,0.34406805038452143,2.0049610137939453,0.6790667246831864,0.0,1.0,111.0,765,lv
280,0.0,1.0,0.0,3.0,750.0,0.3341338634490967,1.6708259582519531,0.35034614241236817,0.0,0.0,111.0,765,lv
281,1.0,1.0,1.0,1.0,750.0,0.37284684181213373,1.6568510532379148,0.2906231688704213,0.0,0.0,111.0,765,lv
282,0.0,1.0,0.0,2.0,751.0,0.439918041229248,1.906162977218628,0.4799641869100488,0.0,0.0,111.0,765,lv
283,0.0,1.0,0.0,3.0,753.0,0.445084810256958,1.9090249538421633,0.4723926297267588,0.0,0.0,111.0,765,lv
284,1.0,1.0,1.0,3.0,755.0,0.3294050693511963,1.8189129829406736,0.5080059853184471,0.0,0.0,111.0,765,lv
285,1.0,1.0,1.0,4.0,758.0,0.4277300834655762,1.8877980709075928,0.4625593666503405,0.0,0.0,111.0,765,lv
286,0.0,0.0,1.0,0.0,757.0,0.3434910774230957,1.9962360858917243,0.6753330651735429,0.0,1.0,112.0,765,lv
287,0.0,1.0,0.0,4.0,760.0,0.28150796890258784,1.7531940937042239,0.4788124963399436,0.0,1.0,111.0,765,lv
288,0.0,0.0,1.0,0.0,759.0,0.5726330280303955,1.943007946014404,0.38862741312719457,1.0,1.0,112.0,765,lv
289,1.0,0.0,0.0,0.0,758.0,0.7127070426940918,2.0697829723358154,0.35848966330381604,0.0,0.0,112.0,765,lv
290,1.0,1.0,1.0,3.0,760.0,0.7960770130157471,2.1213991641998287,0.32999562835531526,0.0,1.0,111.0,765,lv
291,0.0,0.0,1.0,0.0,759.0,0.8154749870300293,2.376904964447021,0.5733594491235028,0.0,1.0,112.0,765,lv
292,1.0,0.0,0.0,0.0,758.0,0.4992609024047853,1.8154680728912356,0.3225120031481934,0.0,0.0,112.0,765,lv
293,1.0,0.0,0.0,0.0,757.0,0.4966731071472168,1.8293089866638184,0.3352159479888476,0.0,0.0,112.0,765,lv
294,0.0,1.0,0.0,3.0,759.0,0.4283738136291504,2.0899360179901123,0.6581958351528562,0.0,0.0,112.0,765,lv
295,0.0,1.0,0.0,3.0,761.0,0.408149003982544,2.130904197692871,0.7390599011620865,0.0,0.0,112.0,765,lv
296,0.0,1.0,0.0,2.0,762.0,0.43087911605834955,2.1148929595947266,0.687435919916185,0.0,0.0,112.0,765,lv
297,1.0,0.0,0.0,0.0,761.0,0.29928898811340326,1.739042043685913,0.4434229280318675,0.0,1.0,111.0,765,lv
298,0.0,1.0,0.0,4.0,764.0,0.4760160446166992,2.0211138725280766,0.564526587287046,0.0,1.0,112.0,765,lv
299,0.0,0.0,1.0,0.0,763.0,0.4673860073089599,2.1276040077209473,0.6753761454563052,0.0,1.0,111.0,765,lv
300,0.0,0.0,1.0,0.0,762.0,0.4641950130462646,1.9826848506927488,0.5250234967416275,0.0,0.0,111.0,765,lv
301,1.0,1.0,1.0,2.0,763.0,0.5919320583343506,2.1916520595550537,0.6166015461220375,0.0,1.0,112.0,765,lv
302,1.0,0.0,0.0,0.0,762.0,0.7853591442108154,3.8002431392669687,0.2506740267833046,1.0,1.0,111.0,765,lv
303,1.0,1.0,1.0,3.0,764.0,0.5080859661102295,2.1580398082733154,0.65833669572176,0.0,1.0,112.0,765,lv
304,1.0,1.0,1.0,2.0,765.0,0.556130886077881,2.02350401878357,0.4820956598957541,0.0,0.0,112.0,765,lv
305,1.0,0.0,0.0,0.0,764.0,0.39286994934082037,1.9449510574340816,0.5603574588617835,0.0,1.0,111.0,765,lv
306,1.0,0.0,0.0,0.0,763.0,0.3115508556365966,1.9289410114288328,0.6392510783696356,0.0,0.0,111.0,765,lv
307,0.0,0.0,1.0,0.0,762.0,0.4493539333343506,2.189069986343384,0.7449631282941372,0.0,0.0,111.0,765,lv
308,0.0,1.0,0.0,2.0,763.0,0.3010830879211425,1.873906135559082,0.5857576083215469,0.0,0.0,111.0,765,lv
309,1.0,1.0,1.0,3.0,765.0,0.33183383941650396,1.5886900424957275,0.25820262632430624,0.0,0.0,111.0,765,lv
310,1.0,1.0,1.0,2.0,766.0,0.4966049194335937,2.1055538654327393,0.6134342636532869,0.0,0.0,111.0,765,lv
311,1.0,1.0,1.0,2.0,767.0,0.30760979652404785,1.9836320877075195,0.6970440452128872,0.0,0.0,111.0,765,lv
312,0.0,0.0,1.0,0.0,766.0,0.42538404464721674,2.006983995437622,0.604175970779754,0.0,1.0,112.0,765,lv
313,0.0,1.0,0.0,3.0,768.0,0.417773962020874,1.8849787712097168,0.4727236853110081,0.0,1.0,111.0,765,lv
314,0.0,1.0,0.0,2.0,769.0,0.41555595397949213,2.082435846328736,0.6716755113719873,0.0,0.0,111.0,765,lv
315,1.0,1.0,1.0,3.0,771.0,0.2602641582489014,1.6925468444824219,0.4478416093144488,0.0,0.0,111.0,765,lv
316,0.0,0.0,1.0,0.0,770.0,0.4129791259765625,1.9750161170959473,0.5727704618796119,0.0,1.0,112.0,765,lv
317,1.0,0.0,0.0,0.0,769.0,0.26074695587158203,1.7183198928833008,0.4745990296931772,0.0,0.0,112.0,765,lv
318,1.0,0.0,0.0,0.0,768.0,0.3090720176696777,1.9095051288604736,0.6173708027300342,0.0,1.0,111.0,765,lv
319,1.0,1.0,1.0,4.0,771.0,0.3905260562896729,2.1163530349731445,0.7336252155150133,0.0,1.0,112.0,765,lv
320,0.0,0.0,1.0,0.0,770.0,0.28386902809143066,1.574751853942871,0.2922531138649747,0.0,1.0,111.0,765,lv
321,1.0,0.0,0.0,0.0,769.0,0.4712848663330079,1.7326710224151614,0.2750054803752072,0.0,0.0,111.0,765,lv
322,1.0,1.0,1.0,4.0,772.0,0.4240071773529053,2.007869005203247,0.5992506806805262,0.0,0.0,111.0,765,lv
323,0.0,1.0,0.0,2.0,773.0,0.3794128894805908,2.0542659759521484,0.6701393918235773,0.0,0.0,111.0,765,lv
324,1.0,0.0,0.0,0.0,772.0,0.23946499824523926,1.7931509017944336,0.5634708517292029,0.0,1.0,112.0,765,lv
325,0.0,0.0,1.0,0.0,771.0,0.4392020702362061,1.8545219898223877,0.4348630989834851,0.0,0.0,112.0,765,lv
326,0.0,1.0,0.0,2.0,772.0,0.5155839920043945,2.1813948154449463,0.6660947993651465,0.0,1.0,111.0,765,lv
327,1.0,1.0,1.0,2.0,773.0,0.44334888458251953,2.156821012496948,0.7229479072949851,0.0,0.0,111.0,765,lv
328,1.0,0.0,0.0,0.0,772.0,0.4074170589447021,1.930970907211304,0.5375138806035877,0.0,1.0,112.0,765,lv
329,1.0,1.0,1.0,4.0,775.0,0.42418503761291504,1.9846611022949217,0.5721958954741883,0.0,1.0,111.0,765,lv
330,1.0,0.0,0.0,0.0,774.0,0.6208841800689697,1.9776771068573,0.36679181182163406,0.0,1.0,112.0,765,lv
331,1.0,0.0,0.0,0.0,773.0,0.348628044128418,1.9065558910369873,0.5564581877993511,0.0,1.0,111.0,765,lv
332,0.0,1.0,0.0,2.0,774.0,0.7946991920471191,2.3593959808349605,0.5659840432224198,0.0,0.0,111.0,765,lv
333,1.0,1.0,1.0,3.0,776.0,0.519110918045044,1.9723851680755613,0.455262789902998,0.0,0.0,111.0,765,lv
334,0.0,1.0,0.0,4.0,779.0,0.3935070037841797,1.8031470775604248,0.40851567317762655,0.0,0.0,111.0,765,lv
335,1.0,1.0,1.0,3.0,781.0,0.4506378173828125,2.091446876525879,0.6497850735821302,0.0,0.0,111.0,765,lv
336,0.0,1.0,0.0,2.0,782.0,0.4386789798736572,1.8431401252746584,0.4098681743572837,0.0,0.0,111.0,765,lv
337,0.0,0.0,1.0,0.0,781.0,0.619386911392212,2.180356025695801,0.5734877857491024,0.0,1.0,112.0,765,lv
338,0.0,1.0,0.0,0.0,780.0,0.548090934753418,1.9755549430847168,0.43258381939922247,0.0,1.0,111.0,765,lv
339,1.0,0.0,0.0,0.0,779.0,0.3979551792144775,1.776664972305298,0.376019330992342,0.0,0.0,111.0,765,lv
340,1.0,0.0,0.0,0.0,778.0,0.2892889976501465,1.9771938323974607,0.7029370165014217,0.0,1.0,112.0,765,lv
341,0.0,0.0,1.0,0.0,777.0,0.5520188808441162,1.9844331741333008,0.4377367562049866,0.0,1.0,111.0,765,lv
342,1.0,0.0,0.0,0.0,776.0,0.5717301368713379,2.043292999267578,0.4810105147689088,0.0,0.0,111.0,765,lv
343,0.0,0.0,1.0,0.0,775.0,0.38347101211547846,2.075650930404663,0.7064992705394341,0.0,1.0,112.0,765,lv
344,0.0,0.0,1.0,0.0,774.0,0.3971688747406006,1.9126069545745847,0.5193897275418472,0.0,0.0,112.0,765,lv
345,1.0,1.0,1.0,3.0,776.0,0.2755990028381348,1.5347309112548828,0.2710739222689877,0.0,1.0,111.0,765,lv
346,1.0,0.0,0.0,0.0,775.0,0.41629791259765625,1.9918251037597656,0.5793271886894071,0.0,1.0,112.0,765,lv
347,1.0,0.0,0.0,0.0,774.0,0.4260959625244141,2.0785968303680415,0.6745111554438068,1.0,0.0,112.0,765,lv
348,0.0,0.0,1.0,0.0,773.0,0.4007720947265625,1.97317099571228,0.5812187528271592,0.0,0.0,112.0,765,lv
349,0.0,0.0,1.0,0.0,772.0,0.4292001724243164,1.757699966430664,0.33921229691687427,0.0,0.0,112.0,765,lv
350,0.0,1.0,0.0,2.0,773.0,0.3936469554901123,1.8350250720977788,0.4575616350644154,0.0,0.0,112.0,765,lv
351,0.0,1.0,0.0,3.0,775.0,0.459284782409668,1.875635862350464,0.43322913419644726,0.0,0.0,112.0,765,lv
352,0.0,1.0,0.0,3.0,777.0,0.4789738655090332,1.775588035583496,0.29237370813069913,0.0,0.0,112.0,765,lv
353,1.0,1.0,1.0,1.0,777.0,0.3654220104217529,1.8500118255615237,0.4922285946823456,0.0,0.0,112.0,765,lv
354,0.0,1.0,0.0,3.0,779.0,0.30944395065307617,1.723816156387329,0.43280366559677685,0.0,0.0,112.0,765,lv
355,1.0,1.0,1.0,4.0,782.0,0.2281990051269531,1.6494090557098389,0.4156511424671568,0.0,0.0,112.0,765,lv
356,1.0,1.0,1.0,0.0,781.0,0.3922200202941895,1.9058909416198728,0.5214656862859667,0.0,0.0,112.0,765,lv
357,0.0,1.0,0.0,3.0,783.0,0.31032586097717285,1.9196350574493408,0.6244051037246182,0.0,0.0,112.0,765,lv
358,0.0,1.0,0.0,3.0,785.0,0.4157869815826416,1.9431920051574707,0.5344305758057061,0.0,0.0,112.0,765,lv
359,1.0,0.0,0.0,0.0,784.0,0.2708740234375,1.608583927154541,0.343250929895109,0.0,1.0,111.0,765,lv
360,0.0,1.0,0.0,2.0,785.0,0.5518720149993896,1.9031879901885984,0.363173719345408,0.0,1.0,112.0,765,lv
361,0.0,1.0,0.0,3.0,787.0,0.4339687824249268,1.8759601116180415,0.4557676486383071,0.0,0.0,112.0,765,lv
362,1.0,1.0,1.0,2.0,788.0,0.4146549701690674,1.7851178646087644,0.37432863673592015,0.0,0.0,112.0,765,lv
363,0.0,1.0,0.0,1.0,788.0,0.4034178256988525,1.7940018177032473,0.401688626922608,0.0,0.0,112.0,765,lv
