,choice,accuracy,solution,reward,cumulative_reward,rt,total_trial_time,iti,cp_with_slow_fast,obs_cp_with_slow_fast,high_val_cue,ID,condition
0,1.0,1.0,1.0,1.0,600.0,0.5257449150085449,2.060730934143066,0.5456105863085267,0.0,0.0,112.0,770,hc
1,0.0,0.0,1.0,0.0,599.0,0.29689717292785645,1.8124630451202393,0.5248837536411404,0.0,1.0,111.0,770,hc
2,1.0,0.0,0.0,0.0,598.0,0.21024918556213376,1.4960229396820068,0.3045534896269422,0.0,0.0,111.0,770,hc
3,1.0,1.0,1.0,3.0,600.0,0.27639722824096674,1.937236785888672,0.6750796851530769,0.0,1.0,112.0,770,hc
4,0.0,1.0,0.0,3.0,602.0,0.2870721817016601,1.8131928443908687,0.5382493218402618,0.0,0.0,112.0,770,hc
5,1.0,1.0,1.0,2.0,603.0,0.24845218658447266,1.7184560298919678,0.4735217864631329,0.0,0.0,112.0,770,hc
6,0.0,0.0,1.0,0.0,602.0,0.26283121109008784,1.628087043762207,0.3684747720314275,0.0,1.0,111.0,770,hc
7,1.0,0.0,0.0,0.0,601.0,0.252579927444458,1.8750579357147217,0.6266958396126693,0.0,0.0,111.0,770,hc
8,0.0,0.0,1.0,0.0,600.0,0.20699000358581543,1.8234100341796875,0.6335042383108378,0.0,0.0,111.0,770,hc
9,1.0,0.0,0.0,0.0,599.0,0.44174313545227045,1.9859378337860107,0.5530076051172804,0.0,0.0,111.0,770,hc
10,0.0,0.0,1.0,0.0,598.0,0.25642514228820795,1.617434024810791,0.37070450958786233,0.0,1.0,112.0,770,hc
11,0.0,0.0,1.0,0.0,597.0,0.32277703285217285,1.9548940658569331,0.6420091468047425,0.0,1.0,111.0,770,hc
12,0.0,1.0,0.0,2.0,598.0,0.3988659381866455,2.1114010810852046,0.7201355688457609,0.0,0.0,111.0,770,hc
13,0.0,1.0,0.0,2.0,599.0,0.30431699752807617,1.5914409160614014,0.2954237823090382,0.0,0.0,111.0,770,hc
14,0.0,0.0,1.0,0.0,598.0,0.3459718227386474,2.067691087722778,0.7294537843661417,0.0,1.0,112.0,770,hc
15,0.0,1.0,0.0,2.0,599.0,0.25538086891174316,1.9073860645294187,0.6703162799830112,0.0,1.0,111.0,770,hc
16,0.0,0.0,1.0,0.0,598.0,0.2707738876342773,1.7039408683776858,0.4412263174710915,0.0,1.0,112.0,770,hc
17,0.0,1.0,0.0,1.0,598.0,0.21994495391845703,1.652945041656494,0.4442749760090681,0.0,1.0,111.0,770,hc
18,0.0,0.0,1.0,0.0,597.0,0.2498888969421387,1.7563071250915527,0.5172536620321063,1.0,1.0,112.0,770,hc
19,0.0,0.0,1.0,0.0,596.0,0.2342729568481445,1.5756258964538572,0.34314833641749354,0.0,0.0,112.0,770,hc
20,0.0,0.0,1.0,0.0,595.0,0.37071800231933594,2.066928148269653,0.7097891325524108,0.0,0.0,112.0,770,hc
21,0.0,1.0,0.0,3.0,597.0,0.21108508110046384,1.8888900279998777,0.6987709365518844,0.0,1.0,111.0,770,hc
22,1.0,0.0,0.0,0.0,596.0,0.31119394302368164,1.8143429756164553,0.5134221300625726,0.0,1.0,112.0,770,hc
23,1.0,0.0,0.0,0.0,595.0,0.31526684761047363,1.6823170185089114,0.3792684062258144,0.0,0.0,112.0,770,hc
24,1.0,0.0,0.0,0.0,594.0,0.3289968967437744,1.6042549610137937,0.2836990048788621,0.0,1.0,111.0,770,hc
25,1.0,0.0,0.0,0.0,593.0,0.28328800201416016,1.9241421222686768,0.6409343079992313,0.0,0.0,111.0,770,hc
26,1.0,1.0,1.0,3.0,595.0,0.2906601428985596,1.7773778438568115,0.5018287995598826,0.0,0.0,111.0,770,hc
27,1.0,0.0,0.0,0.0,594.0,0.2544090747833252,1.7001872062683105,0.4521651559835603,0.0,1.0,112.0,770,hc
28,1.0,1.0,1.0,3.0,596.0,0.24644994735717776,1.9176690578460691,0.6697041729689843,0.0,1.0,111.0,770,hc
29,1.0,1.0,1.0,2.0,597.0,0.26082301139831543,1.7086708545684812,0.4620132648630186,0.0,0.0,111.0,770,hc
30,0.0,1.0,0.0,3.0,599.0,0.3099679946899414,1.9884121417999268,0.7002780298317012,0.0,0.0,111.0,770,hc
31,1.0,0.0,0.0,0.0,598.0,0.2759628295898437,1.5285558700561523,0.26269331581686395,0.0,1.0,112.0,770,hc
32,1.0,0.0,0.0,0.0,597.0,0.34534287452697754,1.7560961246490476,0.418719071074339,0.0,0.0,112.0,770,hc
33,0.0,1.0,0.0,3.0,599.0,0.26485991477966303,1.8376770019531248,0.5729976614445738,0.0,1.0,111.0,770,hc
34,0.0,0.0,1.0,0.0,598.0,0.2775681018829346,1.5375449657440183,0.27759214472796934,0.0,1.0,112.0,770,hc
35,0.0,0.0,1.0,0.0,597.0,0.2762629985809326,1.8276350498199463,0.5716816115259741,0.0,0.0,112.0,770,hc
36,0.0,0.0,1.0,0.0,596.0,0.2031159400939941,1.708069086074829,0.5135517139155892,0.0,1.0,111.0,770,hc
37,0.0,1.0,0.0,3.0,598.0,0.3010809421539306,1.6024711132049563,0.3159980269706297,0.0,1.0,112.0,770,hc
38,1.0,1.0,1.0,2.0,599.0,0.26540994644165034,1.9412908554077148,0.6736777658591031,0.0,0.0,112.0,770,hc
39,1.0,1.0,1.0,1.0,599.0,0.27717685699462885,1.700942039489746,0.4416038337257476,0.0,0.0,112.0,770,hc
40,0.0,1.0,0.0,3.0,601.0,0.21925091743469244,1.4628300666809082,0.2547144010315509,0.0,0.0,112.0,770,hc
41,0.0,1.0,0.0,3.0,603.0,0.2656431198120117,1.9162161350250244,0.653912408899292,0.0,0.0,112.0,770,hc
42,0.0,1.0,0.0,2.0,604.0,0.18300509452819824,1.8470439910888672,0.6677242155946524,0.0,0.0,112.0,770,hc
43,0.0,1.0,0.0,0.0,603.0,0.2141520977020264,1.8091099262237549,0.5936605680963567,0.0,0.0,112.0,770,hc
44,1.0,0.0,0.0,0.0,602.0,0.3361790180206299,1.9367499351501465,0.6138031852238935,0.0,1.0,111.0,770,hc
45,0.0,1.0,0.0,1.0,602.0,0.21292591094970706,1.9369008541107176,0.7339883377526318,0.0,1.0,112.0,770,hc
46,1.0,1.0,1.0,4.0,605.0,0.3000130653381348,1.7708621025085447,0.4718772985639675,0.0,0.0,112.0,770,hc
47,1.0,1.0,1.0,3.0,607.0,0.2813279628753662,1.9955809116363523,0.7174362766007997,0.0,0.0,112.0,770,hc
48,0.0,1.0,0.0,3.0,609.0,0.26542186737060547,1.5533168315887451,0.28785222622189577,0.0,0.0,112.0,770,hc
49,0.0,1.0,0.0,4.0,612.0,0.3004579544067383,1.636698007583618,0.34123530447245876,0.0,0.0,112.0,770,hc
50,1.0,1.0,1.0,4.0,615.0,0.23322701454162595,1.734372854232788,0.5088624483724474,0.0,0.0,112.0,770,hc
51,0.0,0.0,1.0,0.0,614.0,0.16889095306396482,1.6003541946411135,0.4426987564164076,0.0,1.0,111.0,770,hc
52,0.0,1.0,0.0,2.0,615.0,0.24502778053283686,1.9089119434356687,0.668137610310213,0.0,1.0,112.0,770,hc
53,0.0,1.0,0.0,3.0,617.0,0.24135804176330564,1.674023151397705,0.442575709655998,1.0,0.0,112.0,770,hc
54,0.0,0.0,1.0,0.0,616.0,0.22081899642944333,1.915920972824097,0.7081527534455213,0.0,1.0,111.0,770,hc
55,0.0,0.0,1.0,0.0,615.0,0.26513695716857916,1.6920020580291748,0.43389687238673674,0.0,0.0,111.0,770,hc
56,1.0,1.0,1.0,2.0,616.0,0.32615590095520014,2.044421911239624,0.7281083058559593,0.0,1.0,112.0,770,hc
57,0.0,0.0,1.0,0.0,615.0,0.12986516952514648,1.8132121562957764,0.6914561359474088,0.0,0.0,112.0,770,hc
58,1.0,1.0,1.0,0.0,614.0,0.1330430507659912,1.6062469482421875,0.4813347291167069,0.0,1.0,111.0,770,hc
59,0.0,1.0,0.0,3.0,616.0,0.3744680881500244,1.7093510627746584,0.35758912201402693,0.0,1.0,112.0,770,hc
60,0.0,0.0,1.0,0.0,615.0,0.5427980422973633,2.1307010650634766,0.6047690505044367,0.0,1.0,111.0,770,hc
61,0.0,1.0,0.0,2.0,616.0,0.2655360698699951,1.531978130340576,0.27054084676465323,0.0,1.0,112.0,770,hc
62,0.0,0.0,1.0,0.0,615.0,0.31328606605529785,1.880475997924805,0.5677653139845864,0.0,1.0,111.0,770,hc
63,1.0,0.0,0.0,0.0,614.0,0.31603407859802246,1.693739891052246,0.3781394720432016,0.0,0.0,111.0,770,hc
64,1.0,1.0,1.0,1.0,614.0,0.3737621307373047,1.6698307991027834,0.3148283201049257,0.0,1.0,112.0,770,hc
65,1.0,0.0,0.0,0.0,613.0,0.31618213653564453,1.9139680862426756,0.6118878949494349,0.0,1.0,111.0,770,hc
66,1.0,0.0,0.0,0.0,612.0,0.2635471820831299,1.6754729747772217,0.42097613801619527,0.0,0.0,111.0,770,hc
67,1.0,1.0,1.0,2.0,613.0,0.2712569236755371,1.6653928756713867,0.4031277809764549,0.0,1.0,112.0,770,hc
68,0.0,0.0,1.0,0.0,612.0,0.2797360420227051,1.9545531272888188,0.6741487719504266,0.0,1.0,111.0,770,hc
69,0.0,1.0,0.0,3.0,614.0,0.3166959285736084,1.641906976699829,0.33316950492832653,0.0,1.0,112.0,770,hc
70,1.0,1.0,1.0,0.0,613.0,0.28975987434387207,1.7416799068450928,0.4581386851426653,0.0,0.0,112.0,770,hc
71,1.0,1.0,1.0,3.0,615.0,0.32253193855285645,1.9186551570892336,0.6100784528917876,0.0,0.0,112.0,770,hc
72,0.0,0.0,1.0,0.0,614.0,0.1979198455810547,1.799288988113403,0.6094385170141716,0.0,1.0,111.0,770,hc
73,0.0,1.0,0.0,1.0,614.0,0.2849419116973877,1.7022180557250974,0.428603255314666,0.0,1.0,112.0,770,hc
74,0.0,1.0,0.0,2.0,615.0,0.3340399265289306,1.9547889232635496,0.6332844085794822,0.0,0.0,112.0,770,hc
75,1.0,0.0,0.0,0.0,614.0,0.2524430751800537,1.7142801284790041,0.4644768285327012,0.0,1.0,111.0,770,hc
76,0.0,0.0,1.0,0.0,613.0,0.2275118827819824,1.6018710136413574,0.3998270581229607,0.0,0.0,111.0,770,hc
77,1.0,1.0,1.0,3.0,615.0,0.346869945526123,2.052295923233032,0.7019112417019439,0.0,1.0,112.0,770,hc
78,0.0,1.0,0.0,3.0,617.0,0.2298939228057861,1.8195579051971436,0.5883930347655217,0.0,0.0,112.0,770,hc
79,1.0,1.0,1.0,3.0,619.0,0.2283730506896973,1.700628042221069,0.4725524982171092,0.0,0.0,112.0,770,hc
80,1.0,0.0,0.0,0.0,618.0,0.3204519748687744,1.643862009048462,0.3332808303381902,0.0,1.0,111.0,770,hc
81,0.0,0.0,1.0,0.0,617.0,0.3115389347076416,1.5986011028289795,0.29869014029593915,0.0,0.0,111.0,770,hc
82,1.0,1.0,1.0,3.0,619.0,0.3922131061553955,1.6191558837890625,0.2513132089183194,0.0,1.0,112.0,770,hc
83,1.0,1.0,1.0,2.0,620.0,0.2969300746917725,1.743675947189331,0.4448881712658311,1.0,0.0,112.0,770,hc
84,1.0,0.0,0.0,0.0,619.0,0.2735939025878906,1.8030898571014404,0.5478984771588753,0.0,1.0,111.0,770,hc
85,0.0,0.0,1.0,0.0,618.0,0.3076939582824707,2.020443916320801,0.734882669921115,0.0,0.0,111.0,770,hc
86,1.0,0.0,0.0,0.0,617.0,0.23743200302124026,1.7478301525115967,0.5163997855115674,0.0,0.0,111.0,770,hc
87,0.0,0.0,1.0,0.0,616.0,0.2524909973144531,1.987324953079224,0.7368918118485505,0.0,0.0,111.0,770,hc
88,0.0,0.0,1.0,0.0,615.0,0.2912158966064453,1.566361904144287,0.2871654318635938,0.0,0.0,111.0,770,hc
89,1.0,1.0,1.0,3.0,617.0,0.3625829219818115,2.0478439331054688,0.6847081915687017,0.0,1.0,112.0,770,hc
90,0.0,1.0,0.0,2.0,618.0,0.21663713455200195,1.5993010997772217,0.3843819559469431,0.0,1.0,111.0,770,hc
91,1.0,0.0,0.0,0.0,617.0,0.26974606513977045,1.979491949081421,0.7136195882465716,0.0,1.0,112.0,770,hc
92,1.0,0.0,0.0,0.0,616.0,0.27409291267395014,1.5323059558868408,0.2798218968799705,0.0,0.0,112.0,770,hc
93,1.0,1.0,1.0,2.0,617.0,0.3038530349731445,1.763065814971924,0.476086086415084,0.0,1.0,111.0,770,hc
94,1.0,0.0,0.0,0.0,616.0,0.31629109382629395,1.8637869358062744,0.5565383770219858,0.0,1.0,112.0,770,hc
95,0.0,0.0,1.0,0.0,615.0,0.3286302089691162,1.8899269104003904,0.5798654680847235,0.0,0.0,112.0,770,hc
96,1.0,0.0,0.0,0.0,614.0,0.2635409832000733,1.5187048912048338,0.265664224843482,0.0,0.0,112.0,770,hc
97,1.0,0.0,0.0,0.0,613.0,0.2861440181732178,2.031000137329101,0.7462473244229445,0.0,0.0,112.0,770,hc
98,0.0,1.0,0.0,4.0,616.0,0.2805020809173584,1.5979819297790527,0.3280799075929189,0.0,1.0,111.0,770,hc
99,0.0,0.0,1.0,0.0,615.0,0.2915468215942382,1.9633190631866448,0.6910871115575501,0.0,1.0,112.0,770,hc
100,0.0,0.0,1.0,0.0,614.0,0.2700400352478028,1.6863920688629148,0.42787704540207794,0.0,0.0,112.0,770,hc
101,0.0,1.0,0.0,3.0,616.0,0.3026659488677978,1.7190189361572261,0.4303048159365703,0.0,0.0,112.0,770,hc
102,0.0,1.0,0.0,2.0,617.0,0.2821118831634521,1.7035701274871828,0.4339543210648004,0.0,0.0,112.0,770,hc
103,0.0,0.0,1.0,0.0,616.0,0.3064429759979248,1.6647119522094727,0.36548057025810804,0.0,1.0,111.0,770,hc
104,0.0,1.0,0.0,5.0,620.0,0.26287698745727534,1.9983279705047607,0.730200752785047,0.0,1.0,112.0,770,hc
105,1.0,1.0,1.0,2.0,621.0,0.30257987976074213,1.9015829563140867,0.6153172839722292,0.0,0.0,112.0,770,hc
106,1.0,1.0,1.0,4.0,624.0,0.2800171375274659,1.5851390361785886,0.30086760822219527,0.0,0.0,112.0,770,hc
107,0.0,1.0,0.0,2.0,625.0,0.29673695564270014,1.886446952819824,0.5871405895586623,0.0,0.0,112.0,770,hc
108,1.0,1.0,1.0,4.0,628.0,0.291546106338501,1.5780699253082275,0.298912173405987,0.0,0.0,112.0,770,hc
109,1.0,1.0,1.0,2.0,629.0,0.31319308280944824,2.030488967895508,0.7124045531718819,0.0,0.0,112.0,770,hc
110,0.0,0.0,1.0,0.0,628.0,0.26261305809021,1.8204140663146968,0.566379610443072,0.0,1.0,111.0,770,hc
111,0.0,0.0,1.0,0.0,627.0,0.2542300224304199,1.9896161556243896,0.7391620365641659,1.0,0.0,111.0,770,hc
112,1.0,0.0,0.0,0.0,626.0,0.3020169734954834,1.674351930618286,0.3807231973330508,0.0,0.0,111.0,770,hc
113,1.0,0.0,0.0,0.0,625.0,0.34137988090515137,1.6202590465545654,0.3011460495438746,0.0,0.0,111.0,770,hc
114,0.0,0.0,1.0,0.0,624.0,0.33613109588623047,1.95407509803772,0.6216415120180435,0.0,0.0,111.0,770,hc
115,0.0,0.0,1.0,0.0,623.0,0.2511539459228516,1.9436159133911128,0.6986278166994548,0.0,0.0,111.0,770,hc
116,1.0,1.0,1.0,2.0,624.0,0.30417704582214355,2.0153200626373287,0.7139896630367533,0.0,1.0,112.0,770,hc
117,0.0,1.0,0.0,2.0,625.0,0.263286828994751,1.5460569858551023,0.2939299837858512,0.0,0.0,112.0,770,hc
118,0.0,0.0,1.0,0.0,624.0,0.5073490142822266,1.912879943847656,0.4234451866983456,0.0,1.0,111.0,770,hc
119,0.0,0.0,1.0,0.0,623.0,0.27875280380249023,1.5217218399047854,0.2620727963246455,0.0,0.0,111.0,770,hc
120,0.0,0.0,1.0,0.0,622.0,0.31518912315368647,1.9570159912109373,0.6520680527589852,0.0,0.0,111.0,770,hc
121,0.0,1.0,0.0,3.0,624.0,0.32159185409545893,1.7794430255889893,0.4651592157618346,0.0,1.0,112.0,770,hc
122,0.0,0.0,1.0,0.0,623.0,0.2440230846405029,1.8303749561309812,0.6121491911344916,0.0,1.0,111.0,770,hc
123,0.0,0.0,1.0,0.0,622.0,0.23069906234741205,1.874030828475952,0.6529033556404521,0.0,0.0,111.0,770,hc
124,0.0,1.0,0.0,2.0,623.0,0.21846890449523923,1.5229070186614988,0.309585617318264,0.0,0.0,111.0,770,hc
125,1.0,1.0,1.0,3.0,625.0,0.33386182785034174,1.6213521957397459,0.2977219693198316,0.0,0.0,111.0,770,hc
126,1.0,1.0,1.0,4.0,628.0,0.31023406982421875,1.880692958831787,0.5948236811778945,0.0,0.0,111.0,770,hc
127,1.0,1.0,1.0,4.0,631.0,0.27294182777404785,1.5233728885650635,0.268639099053841,0.0,0.0,111.0,770,hc
128,1.0,1.0,1.0,2.0,632.0,0.3006579875946045,1.9434301853179927,0.6450620894232392,0.0,0.0,111.0,770,hc
129,0.0,0.0,1.0,0.0,631.0,0.2844560146331787,1.658517837524414,0.387286456560069,0.0,0.0,111.0,770,hc
130,1.0,0.0,0.0,0.0,630.0,0.2758760452270508,1.545011043548584,0.28246663986431936,0.0,1.0,112.0,770,hc
131,1.0,0.0,0.0,0.0,629.0,0.24785304069519046,1.6658899784088137,0.4149686670774617,0.0,0.0,112.0,770,hc
132,0.0,0.0,1.0,0.0,628.0,0.3029031753540039,1.7387290000915527,0.4537673818658282,0.0,0.0,112.0,770,hc
133,1.0,0.0,0.0,0.0,627.0,0.3920140266418457,1.8416888713836668,0.4622253889452564,0.0,1.0,111.0,770,hc
134,0.0,0.0,1.0,0.0,626.0,0.25173401832580566,1.602312088012695,0.3646848311538983,0.0,0.0,111.0,770,hc
135,0.0,0.0,1.0,0.0,625.0,0.2574610710144043,1.596250057220459,0.3610092034884471,0.0,0.0,111.0,770,hc
136,0.0,1.0,0.0,2.0,626.0,0.26389217376708984,1.959496021270752,0.7035965845799546,0.0,0.0,111.0,770,hc
137,1.0,0.0,0.0,0.0,625.0,0.2572259902954101,1.6450228691101076,0.3989961170942912,0.0,1.0,112.0,770,hc
138,0.0,1.0,0.0,1.0,625.0,0.3743209838867188,1.9098780155181885,0.5421477447453203,0.0,1.0,111.0,770,hc
139,0.0,0.0,1.0,0.0,624.0,0.2703580856323242,1.7399821281433103,0.4822822613951325,1.0,1.0,112.0,770,hc
140,0.0,0.0,1.0,0.0,623.0,0.32041597366333,1.8641309738159175,0.546433807066192,0.0,0.0,112.0,770,hc
141,0.0,0.0,1.0,0.0,622.0,0.2714500427246094,1.7081840038299558,0.454815848690062,0.0,1.0,111.0,770,hc
142,0.0,0.0,1.0,0.0,621.0,0.3698790073394775,1.917923927307129,0.5560480473725231,0.0,1.0,112.0,770,hc
143,1.0,1.0,1.0,4.0,624.0,0.2962610721588135,1.5832810401916506,0.2896929937448797,0.0,1.0,111.0,770,hc
144,1.0,0.0,0.0,0.0,623.0,0.6679809093475342,2.0797109603881836,0.41936191771041526,0.0,0.0,111.0,770,hc
145,0.0,0.0,1.0,0.0,622.0,0.4457530975341797,1.7354538440704346,0.2883994165298937,0.0,1.0,112.0,770,hc
146,1.0,0.0,0.0,0.0,621.0,0.41739892959594727,1.7823829650878904,0.3707790522347014,0.0,0.0,112.0,770,hc
147,0.0,0.0,1.0,0.0,620.0,0.31820106506347656,1.6391379833221438,0.3266857033548082,0.0,1.0,111.0,770,hc
148,0.0,1.0,0.0,3.0,622.0,0.26192498207092285,1.6649749279022215,0.40833264432583244,0.0,1.0,112.0,770,hc
149,0.0,1.0,0.0,2.0,623.0,0.2562828063964844,1.4989619255065918,0.25754525919657184,0.0,0.0,112.0,770,hc
150,0.0,1.0,0.0,3.0,625.0,0.26736903190612793,1.536704063415527,0.27763436427744315,0.0,0.0,112.0,770,hc
151,1.0,1.0,1.0,3.0,627.0,0.3820128440856934,1.6815838813781736,0.30926978895661683,0.0,0.0,112.0,770,hc
152,1.0,1.0,1.0,1.0,627.0,0.3308169841766357,1.9178481101989744,0.5935631261920852,0.0,0.0,112.0,770,hc
153,0.0,1.0,0.0,2.0,628.0,0.2922029495239257,1.6872651576995845,0.4144477320655827,0.0,0.0,112.0,770,hc
154,1.0,0.0,0.0,0.0,627.0,0.2899668216705322,1.7748949527740479,0.5060060680000767,0.0,1.0,111.0,770,hc
155,0.0,0.0,1.0,0.0,626.0,0.2889671325683594,1.5561490058898924,0.2791344234828702,0.0,0.0,111.0,770,hc
156,0.0,0.0,1.0,0.0,625.0,0.4366590976715088,1.7043721675872805,0.28358475342533607,0.0,1.0,112.0,770,hc
157,0.0,1.0,0.0,4.0,628.0,0.22217202186584473,1.8425538539886477,0.6258681369027572,0.0,1.0,111.0,770,hc
158,1.0,0.0,0.0,0.0,627.0,0.18884992599487302,1.5776929855346682,0.4038856454322329,0.0,1.0,112.0,770,hc
159,1.0,1.0,1.0,3.0,629.0,0.26854491233825684,1.5441370010375974,0.2815511943953946,0.0,0.0,112.0,770,hc
160,1.0,0.0,0.0,0.0,628.0,0.3702390193939209,1.7687129974365237,0.41686514473793207,1.0,1.0,111.0,770,hc
161,0.0,0.0,1.0,0.0,627.0,0.2440140247344971,1.5051250457763674,0.27223711890776403,0.0,0.0,111.0,770,hc
162,0.0,1.0,0.0,2.0,628.0,0.2770190238952637,1.5294580459594727,0.26843842584334865,0.0,1.0,112.0,770,hc
163,1.0,0.0,0.0,0.0,627.0,0.33272600173950195,1.583096981048584,0.251623194544668,0.0,1.0,111.0,770,hc
164,1.0,1.0,1.0,2.0,628.0,0.3164770603179932,1.5875811576843262,0.272595026107342,0.0,1.0,112.0,770,hc
165,1.0,0.0,0.0,0.0,627.0,0.31918811798095703,1.8006179332733157,0.4897487555935052,0.0,1.0,111.0,770,hc
166,1.0,1.0,1.0,2.0,628.0,0.2783219814300537,1.534909963607788,0.2583134587402192,0.0,0.0,111.0,770,hc
167,0.0,0.0,1.0,0.0,627.0,0.259990930557251,1.6470370292663576,0.40525832530281347,0.0,1.0,112.0,770,hc
168,0.0,0.0,1.0,0.0,626.0,0.28698205947875977,1.9638791084289553,0.685615618588926,0.0,1.0,111.0,770,hc
169,0.0,1.0,0.0,0.0,626.0,0.009363174438476562,5.688599824905396,0.5579555816197472,-2.0,-2.0,112.0,770,hc
170,0.0,0.0,1.0,0.0,625.0,0.2613070011138916,1.6715350151062014,0.42963044068974693,0.0,1.0,111.0,770,hc
171,0.0,1.0,0.0,3.0,627.0,0.26970386505126953,1.942306995391846,0.688530950551035,0.0,1.0,112.0,770,hc
172,0.0,1.0,0.0,4.0,630.0,0.2537140846252441,1.8972928524017332,0.6526162213214624,0.0,0.0,112.0,770,hc
173,0.0,1.0,0.0,1.0,630.0,0.270766019821167,2.0001769065856934,0.7361189492369247,0.0,0.0,112.0,770,hc
174,0.0,1.0,0.0,2.0,631.0,0.25483608245849604,1.9851500988006592,0.7380529562457385,0.0,0.0,112.0,770,hc
175,0.0,1.0,0.0,2.0,632.0,0.28157186508178716,1.8102989196777344,0.5319891093172089,0.0,0.0,112.0,770,hc
176,0.0,1.0,0.0,2.0,633.0,0.35794711112976074,2.041752815246582,0.6903529711444221,0.0,0.0,112.0,770,hc
177,1.0,1.0,1.0,2.0,634.0,0.31373596191406244,1.850142002105713,0.5407535601116947,0.0,0.0,112.0,770,hc
178,1.0,1.0,1.0,3.0,636.0,0.35979294776916504,1.9437382221221924,0.6011685349693857,0.0,0.0,112.0,770,hc
179,0.0,1.0,0.0,1.0,636.0,0.2860291004180908,1.8853769302368164,0.6033138385116111,0.0,0.0,112.0,770,hc
180,0.0,0.0,1.0,0.0,635.0,0.2443869113922119,1.8262319564819331,0.5796529313525988,0.0,1.0,111.0,770,hc
181,0.0,1.0,0.0,3.0,637.0,0.2750051021575928,1.7769951820373533,0.5234642401416119,0.0,0.0,111.0,770,hc
182,1.0,0.0,0.0,0.0,636.0,0.26668000221252447,1.610949993133545,0.35132546769892464,0.0,1.0,112.0,770,hc
183,0.0,0.0,1.0,0.0,635.0,0.3410670757293701,2.0038928985595703,0.6716631440652283,0.0,0.0,112.0,770,hc
184,1.0,1.0,1.0,5.0,639.0,0.33512783050537104,1.8037440776824956,0.4757081605027588,0.0,0.0,112.0,770,hc
185,0.0,0.0,1.0,0.0,638.0,0.2622277736663818,1.9471421241760252,0.6893792961973699,1.0,1.0,111.0,770,hc
186,1.0,0.0,0.0,0.0,637.0,0.2792649269104004,1.8496649265289304,0.5726066337231377,0.0,0.0,111.0,770,hc
187,0.0,1.0,0.0,1.0,637.0,0.27042603492736816,1.7095830440521242,0.44904342198588787,0.0,1.0,112.0,770,hc
188,0.0,0.0,1.0,0.0,636.0,0.2567400932312012,1.55486798286438,0.3041382735017398,0.0,1.0,111.0,770,hc
189,0.0,1.0,0.0,4.0,639.0,0.4958350658416749,2.1949319839477535,0.6987644870061016,0.0,1.0,112.0,770,hc
190,0.0,1.0,0.0,3.0,641.0,0.2758750915527344,1.8715579509735107,0.60386466335914,0.0,0.0,112.0,770,hc
191,0.0,0.0,1.0,0.0,640.0,0.30029296875,1.8999478816986084,0.6038985636144654,0.0,1.0,111.0,770,hc
192,1.0,0.0,0.0,0.0,639.0,0.3224098682403564,1.8303909301757808,0.5177396155382514,0.0,0.0,111.0,770,hc
193,1.0,0.0,0.0,0.0,638.0,0.3240730762481689,1.8255040645599363,0.5100802261642849,0.0,0.0,111.0,770,hc
194,0.0,1.0,0.0,4.0,641.0,0.2624688148498535,1.7401859760284422,0.4837073851972504,0.0,0.0,111.0,770,hc
195,1.0,1.0,1.0,3.0,643.0,0.3215751647949219,1.7358150482177737,0.4196748202836186,0.0,0.0,111.0,770,hc
196,0.0,1.0,0.0,1.0,643.0,0.2792840003967285,1.7801611423492432,0.5164927778358199,0.0,0.0,111.0,770,hc
197,1.0,0.0,0.0,0.0,642.0,0.30399489402771,1.5898480415344236,0.28997076351366424,0.0,0.0,111.0,770,hc
198,1.0,0.0,0.0,0.0,641.0,0.3197319507598877,1.9968271255493169,0.6864884525173842,0.0,0.0,111.0,770,hc
199,1.0,1.0,1.0,2.0,642.0,0.20872902870178225,1.5010008811950684,0.3046731381891408,0.0,1.0,112.0,770,hc
200,1.0,0.0,0.0,0.0,641.0,0.2707769870758057,1.6025240421295166,0.340554198213338,0.0,1.0,111.0,770,hc
201,1.0,0.0,0.0,0.0,640.0,0.20792794227600095,1.5372180938720703,0.344491274897269,0.0,0.0,111.0,770,hc
202,1.0,1.0,1.0,1.0,640.0,0.5015649795532227,2.007067918777466,0.5181240712216383,0.0,0.0,111.0,770,hc
203,0.0,1.0,0.0,3.0,642.0,0.2749650478363037,1.9962079524993896,0.7311019780492863,0.0,0.0,111.0,770,hc
204,1.0,1.0,1.0,3.0,644.0,0.23473596572875974,1.671475887298584,0.4527488685829638,0.0,0.0,111.0,770,hc
205,1.0,1.0,1.0,0.0,643.0,0.2274179458618164,1.762044906616211,0.548093090953307,0.0,0.0,111.0,770,hc
206,0.0,1.0,0.0,1.0,643.0,0.35248494148254395,1.618891954421997,0.2840323218051726,0.0,0.0,111.0,770,hc
207,1.0,1.0,1.0,3.0,645.0,0.4322381019592285,1.784548044204712,0.35193973769694764,0.0,0.0,111.0,770,hc
208,0.0,1.0,0.0,3.0,647.0,0.23509693145751956,1.8446781635284424,0.613120907491391,0.0,0.0,111.0,770,hc
209,1.0,1.0,1.0,3.0,649.0,0.2717399597167969,1.9173250198364256,0.6638312747123973,0.0,0.0,111.0,770,hc
210,0.0,0.0,1.0,0.0,648.0,0.27817606925964355,1.92649507522583,0.6737506985956012,0.0,0.0,111.0,770,hc
211,1.0,0.0,0.0,0.0,647.0,0.2658491134643554,1.7873160839080808,0.5279576737587857,0.0,1.0,112.0,770,hc
212,0.0,1.0,0.0,5.0,651.0,0.3316311836242676,1.5798768997192383,0.2581966815173529,0.0,1.0,111.0,770,hc
213,0.0,1.0,0.0,2.0,652.0,0.35140204429626465,1.9195730686187744,0.5775145681333981,0.0,0.0,111.0,770,hc
214,0.0,1.0,0.0,3.0,654.0,0.33579397201538086,1.6474039554595947,0.3252875336413725,0.0,0.0,111.0,770,hc
215,1.0,1.0,1.0,3.0,656.0,0.3798630237579346,1.7668728828430178,0.3921820293574707,0.0,0.0,111.0,770,hc
216,0.0,0.0,1.0,0.0,655.0,0.2603199481964112,1.8202719688415527,0.5789837574618552,1.0,1.0,112.0,770,hc
217,0.0,1.0,0.0,2.0,656.0,0.28461718559265137,2.0062880516052246,0.7352238116333174,0.0,1.0,111.0,770,hc
218,1.0,1.0,1.0,2.0,657.0,0.2780539989471436,1.890973091125488,0.6263889731486322,0.0,0.0,111.0,770,hc
219,0.0,0.0,1.0,0.0,656.0,0.2917389869689941,1.8532159328460691,0.5797148236771003,0.0,1.0,112.0,770,hc
220,1.0,0.0,0.0,0.0,655.0,0.3167130947113037,1.675565004348755,0.3722998722652178,0.0,0.0,112.0,770,hc
221,1.0,1.0,1.0,2.0,656.0,0.3575489521026612,1.9117741584777832,0.5672634549987329,0.0,1.0,111.0,770,hc
222,1.0,1.0,1.0,3.0,658.0,0.3139808177947998,2.0308659076690674,0.7147979243530518,0.0,0.0,111.0,770,hc
223,0.0,0.0,1.0,0.0,657.0,0.3302748203277588,1.6769261360168455,0.35879876865636046,0.0,1.0,112.0,770,hc
224,1.0,0.0,0.0,0.0,656.0,0.5940628051757812,2.2428019046783447,0.6680667590184575,0.0,0.0,112.0,770,hc
225,1.0,1.0,1.0,3.0,658.0,0.27219700813293457,1.8195338249206543,0.5544770119837884,0.0,1.0,111.0,770,hc
226,0.0,0.0,1.0,0.0,657.0,0.270564079284668,1.9548151493072508,0.692548342128982,0.0,1.0,112.0,770,hc
227,1.0,0.0,0.0,0.0,656.0,0.2455639839172363,1.9260499477386477,0.6854198366320959,0.0,0.0,112.0,770,hc
228,1.0,0.0,0.0,0.0,655.0,0.26429510116577143,1.5580830574035647,0.2939924095112812,0.0,0.0,112.0,770,hc
229,0.0,0.0,1.0,0.0,654.0,0.3263509273529053,1.8396809101104736,0.5335223751922284,0.0,0.0,112.0,770,hc
230,1.0,1.0,1.0,3.0,656.0,0.26538896560668945,1.727041959762573,0.4606875143951948,0.0,1.0,111.0,770,hc
231,0.0,0.0,1.0,0.0,655.0,0.2728509902954101,1.724010944366455,0.4681153222266728,0.0,1.0,112.0,770,hc
232,0.0,0.0,1.0,0.0,654.0,0.32159185409545893,1.882838010787964,0.5675987571973231,0.0,0.0,112.0,770,hc
233,0.0,0.0,1.0,0.0,653.0,0.2682759761810303,1.6749260425567627,0.4094672989211616,0.0,0.0,112.0,770,hc
234,1.0,1.0,1.0,2.0,654.0,0.33875894546508784,1.6570661067962649,0.33335889891029025,0.0,1.0,111.0,770,hc
235,1.0,1.0,1.0,2.0,655.0,0.3400919437408447,1.703842878341675,0.37058271857116465,0.0,0.0,111.0,770,hc
236,0.0,0.0,1.0,0.0,654.0,0.29818892478942877,1.9585511684417725,0.662245975934986,0.0,1.0,112.0,770,hc
237,1.0,1.0,1.0,1.0,654.0,0.2801611423492432,1.8936719894409175,0.6227302223761957,1.0,1.0,111.0,770,hc
238,0.0,1.0,0.0,2.0,655.0,0.33528709411621094,2.0455360412597656,0.7182552651710168,0.0,0.0,111.0,770,hc
239,0.0,0.0,1.0,0.0,654.0,0.3313400745391846,1.8262760639190676,0.494883938442603,0.0,1.0,112.0,770,hc
240,0.0,1.0,0.0,3.0,656.0,0.36368703842163086,2.0352299213409424,0.6800127496329713,0.0,1.0,111.0,770,hc
241,0.0,1.0,0.0,3.0,658.0,0.27654910087585444,1.6937100887298586,0.440715734672832,0.0,0.0,111.0,770,hc
242,0.0,1.0,0.0,2.0,659.0,0.3064749240875244,1.8930320739746096,0.6003364129192719,0.0,0.0,111.0,770,hc
243,0.0,0.0,1.0,0.0,658.0,0.2555890083312988,1.901709079742432,0.6520973929120216,0.0,1.0,112.0,770,hc
244,0.0,0.0,1.0,0.0,657.0,0.4776761531829834,2.084765911102295,0.6203052244849696,0.0,1.0,111.0,770,hc
245,0.0,1.0,0.0,2.0,658.0,0.2784299850463868,1.5443880558013916,0.26518083932044884,0.0,1.0,112.0,770,hc
246,0.0,0.0,1.0,0.0,657.0,0.35316109657287603,1.7213010787963867,0.3864129099568557,0.0,1.0,111.0,770,hc
247,1.0,0.0,0.0,0.0,656.0,0.4689397811889647,1.8355200290679932,0.37202187216543364,0.0,0.0,111.0,770,hc
248,0.0,0.0,1.0,0.0,655.0,0.27060103416442877,1.8291828632354736,0.5677694362176137,0.0,0.0,111.0,770,hc
249,0.0,0.0,1.0,0.0,654.0,0.32730698585510254,1.8979411125183103,0.5824125813842835,0.0,0.0,111.0,770,hc
250,0.0,0.0,1.0,0.0,653.0,0.25628209114074707,1.84398889541626,0.5931841681547881,0.0,0.0,111.0,770,hc
251,1.0,0.0,0.0,0.0,652.0,0.33311605453491205,2.0566368103027344,0.7331039035982319,0.0,0.0,111.0,770,hc
252,1.0,1.0,1.0,2.0,653.0,0.3064301013946533,1.6215808391571045,0.32184773185395693,0.0,1.0,112.0,770,hc
253,1.0,0.0,0.0,0.0,652.0,0.3647949695587159,1.9159331321716304,0.5542999053191203,0.0,1.0,111.0,770,hc
254,1.0,0.0,0.0,0.0,651.0,0.3212001323699952,2.014775037765503,0.7027939954468415,0.0,0.0,111.0,770,hc
255,1.0,1.0,1.0,1.0,651.0,0.29959988594055176,2.046225070953369,0.7486577775707786,0.0,1.0,112.0,770,hc
256,0.0,1.0,0.0,2.0,652.0,0.3586900234222412,2.047729969024658,0.6965411745249833,0.0,0.0,112.0,770,hc
257,0.0,0.0,1.0,0.0,651.0,0.39441514015197754,1.8954219818115237,0.5089239751632219,0.0,1.0,111.0,770,hc
258,1.0,1.0,1.0,0.0,650.0,0.29845595359802246,1.86529803276062,0.5742415625334008,0.0,1.0,112.0,770,hc
259,0.0,1.0,0.0,3.0,652.0,0.3039851188659668,1.779365062713623,0.4871026473677273,0.0,0.0,112.0,770,hc
260,0.0,1.0,0.0,3.0,654.0,0.6226108074188232,2.176095962524414,0.5632337838591804,0.0,0.0,112.0,770,hc
261,0.0,0.0,1.0,0.0,653.0,0.2800168991088867,1.7716801166534426,0.5017146868366378,0.0,1.0,111.0,770,hc
262,1.0,0.0,0.0,0.0,652.0,0.3227548599243164,1.665329933166504,0.3506293809292357,0.0,0.0,111.0,770,hc
263,0.0,0.0,1.0,0.0,651.0,0.23428416252136236,1.665767192840576,0.43307408472175374,1.0,0.0,111.0,770,hc
264,0.0,0.0,1.0,0.0,650.0,0.24559783935546875,1.9364159107208248,0.6859820911450244,0.0,1.0,112.0,770,hc
265,0.0,0.0,1.0,0.0,649.0,0.2903330326080322,1.8985290527343748,0.6180198033201838,0.0,1.0,111.0,770,hc
266,1.0,1.0,1.0,1.0,649.0,0.3044168949127197,1.8851590156555171,0.5866325397218861,0.0,1.0,112.0,770,hc
267,0.0,1.0,0.0,2.0,650.0,0.2751529216766357,1.8172941207885744,0.5540625746327745,0.0,0.0,112.0,770,hc
268,1.0,1.0,1.0,3.0,652.0,0.3314640522003174,1.8437018394470213,0.5145313874186523,0.0,0.0,112.0,770,hc
269,1.0,0.0,0.0,0.0,651.0,0.3352701663970947,1.7065260410308836,0.38795039437206286,0.0,1.0,111.0,770,hc
270,0.0,1.0,0.0,4.0,654.0,0.3686690330505371,2.0706090927124023,0.7083340093516037,0.0,1.0,112.0,770,hc
271,1.0,1.0,1.0,4.0,657.0,0.24607586860656736,1.6379411220550535,0.4133214597299105,0.0,0.0,112.0,770,hc
272,0.0,0.0,1.0,0.0,656.0,0.38179183006286627,1.9358489513397217,0.5657904543163781,0.0,1.0,111.0,770,hc
273,1.0,0.0,0.0,0.0,655.0,0.2719130516052246,1.5726680755615234,0.30546349776394144,0.0,0.0,111.0,770,hc
274,1.0,0.0,0.0,0.0,654.0,0.3142359256744385,1.7374598979949951,0.426234292488921,0.0,0.0,111.0,770,hc
275,0.0,0.0,1.0,0.0,653.0,0.32813310623168945,1.797739028930664,0.4739971270702291,0.0,0.0,111.0,770,hc
276,1.0,0.0,0.0,0.0,652.0,0.3080730438232422,1.9802730083465576,0.6874822264745791,0.0,0.0,111.0,770,hc
277,0.0,0.0,1.0,0.0,651.0,0.2697451114654541,1.9622509479522705,0.6998000326355119,0.0,0.0,111.0,770,hc
278,1.0,0.0,0.0,0.0,650.0,0.23922801017761236,1.7422890663146973,0.5090275762320372,0.0,0.0,111.0,770,hc
279,1.0,1.0,1.0,3.0,652.0,0.2789311408996582,1.6738209724426267,0.39975985998061986,0.0,1.0,112.0,770,hc
280,1.0,1.0,1.0,2.0,653.0,0.26770687103271484,1.9616858959198,0.6945892113665306,0.0,0.0,112.0,770,hc
281,1.0,1.0,1.0,1.0,653.0,0.4056169986724854,1.820417881011963,0.43200137275491857,0.0,0.0,112.0,770,hc
282,1.0,1.0,1.0,4.0,656.0,0.24308490753173825,1.4797379970550535,0.26199696547836393,0.0,0.0,112.0,770,hc
283,0.0,1.0,0.0,2.0,657.0,0.3048050403594971,1.9669859409332275,0.6786308935830035,0.0,0.0,112.0,770,hc
284,0.0,0.0,1.0,0.0,656.0,0.294205904006958,2.004151821136474,0.7328158884032415,0.0,1.0,111.0,770,hc
285,1.0,1.0,1.0,3.0,658.0,0.2516658306121826,1.9448988437652588,0.694520133390032,0.0,1.0,112.0,770,hc
286,1.0,0.0,0.0,0.0,657.0,0.2863349914550781,1.545013189315796,0.2734150366326837,0.0,1.0,111.0,770,hc
287,1.0,0.0,0.0,0.0,656.0,0.2943809032440185,1.9231820106506348,0.6462811091810355,0.0,0.0,111.0,770,hc
288,1.0,1.0,1.0,3.0,658.0,0.2707898616790772,1.701550006866455,0.44813549088961,0.0,1.0,112.0,770,hc
289,1.0,1.0,1.0,2.0,659.0,0.3408498764038086,1.704110860824585,0.38572712895659067,0.0,0.0,112.0,770,hc
290,1.0,0.0,0.0,0.0,658.0,0.3262898921966553,1.5846879482269287,0.27061118575625986,0.0,1.0,111.0,770,hc
291,1.0,1.0,1.0,2.0,659.0,0.29700517654418945,1.564215898513794,0.26828255973315634,0.0,1.0,112.0,770,hc
292,1.0,1.0,1.0,0.0,658.0,0.23856496810913086,1.8514649868011472,0.6194247774356064,0.0,0.0,112.0,770,hc
293,1.0,0.0,0.0,0.0,657.0,0.24047112464904785,1.947121143341064,0.7165385116675816,0.0,1.0,111.0,770,hc
294,0.0,1.0,0.0,2.0,658.0,0.3105020523071289,1.685833930969238,0.3861494921864923,1.0,0.0,111.0,770,hc
295,1.0,0.0,0.0,0.0,657.0,0.3022270202636719,1.744469165802002,0.4473062667265388,0.0,1.0,112.0,770,hc
296,0.0,1.0,0.0,2.0,658.0,0.3089518547058105,1.6851708889007568,0.39929508260663377,0.0,1.0,111.0,770,hc
297,1.0,0.0,0.0,0.0,657.0,0.28791093826293945,1.7657260894775388,0.4816664287145962,0.0,1.0,112.0,770,hc
298,1.0,1.0,1.0,2.0,658.0,0.352043867111206,1.6502299308776858,0.3154793562883108,0.0,1.0,111.0,770,hc
299,1.0,1.0,1.0,3.0,660.0,0.3151509761810303,1.9213621616363523,0.6199546360952001,0.0,0.0,111.0,770,hc
300,1.0,1.0,1.0,3.0,662.0,0.26288604736328125,1.9474339485168457,0.700701871212714,0.0,0.0,111.0,770,hc
301,1.0,1.0,1.0,2.0,663.0,0.5077121257781984,45.66470909118652,0.6510856721210678,1.0,1.0,112.0,770,hc
302,0.0,0.0,1.0,0.0,662.0,0.27382612228393555,1.624703884124756,0.3595087304220604,0.0,1.0,111.0,770,hc
303,1.0,0.0,0.0,0.0,661.0,0.2452070713043213,1.5612850189208987,0.33755143274586286,0.0,0.0,111.0,770,hc
304,1.0,1.0,1.0,4.0,664.0,0.24359607696533206,1.5324289798736574,0.3034583101699709,0.0,0.0,111.0,770,hc
305,0.0,1.0,0.0,1.0,664.0,0.2393159866333008,1.6681010723114011,0.4381623020666318,0.0,0.0,111.0,770,hc
306,1.0,1.0,1.0,3.0,666.0,0.2767109870910644,1.915584087371826,0.6535910160169588,0.0,0.0,111.0,770,hc
307,1.0,0.0,0.0,0.0,665.0,0.2951698303222656,1.6145761013031004,0.3185886825872804,0.0,1.0,112.0,770,hc
308,0.0,0.0,1.0,0.0,664.0,0.28853583335876465,1.96710205078125,0.6854260053480604,0.0,0.0,112.0,770,hc
309,1.0,0.0,0.0,0.0,663.0,0.25798797607421875,1.6877989768981934,0.4402088368454237,0.0,1.0,111.0,770,hc
310,0.0,0.0,1.0,0.0,662.0,0.297760009765625,1.5526299476623535,0.25979342857029986,0.0,0.0,111.0,770,hc
311,0.0,0.0,1.0,0.0,661.0,0.27965784072875977,1.702716112136841,0.4290619223640124,0.0,0.0,111.0,770,hc
312,1.0,0.0,0.0,0.0,660.0,0.2817258834838867,1.546003818511963,0.2753082986822425,0.0,0.0,111.0,770,hc
313,0.0,0.0,1.0,0.0,659.0,0.2778019905090332,1.890537977218628,0.6322406339323476,0.0,0.0,111.0,770,hc
314,1.0,0.0,0.0,0.0,658.0,0.26283597946167,1.6981978416442873,0.43072729578322316,0.0,0.0,111.0,770,hc
315,1.0,0.0,0.0,0.0,657.0,0.3365790843963623,1.809497117996216,0.4902316919569256,0.0,0.0,111.0,770,hc
316,1.0,0.0,0.0,0.0,656.0,0.27494907379150396,1.6389710903167725,0.37942511315426247,0.0,0.0,111.0,770,hc
317,0.0,1.0,0.0,3.0,658.0,0.3207530975341797,1.9516289234161377,0.6475330391526122,0.0,1.0,112.0,770,hc
318,1.0,1.0,1.0,2.0,659.0,0.2358059883117676,1.752164125442505,0.5332339953031728,0.0,0.0,112.0,770,hc
319,0.0,1.0,0.0,3.0,661.0,0.2490780353546142,1.8909981250762935,0.6408769883061947,0.0,0.0,112.0,770,hc
320,0.0,1.0,0.0,0.0,660.0,0.31479215621948237,1.560602903366089,0.2519686491644742,0.0,0.0,112.0,770,hc
321,1.0,0.0,0.0,0.0,659.0,0.34536409378051763,1.729755163192749,0.3816676393752947,0.0,1.0,111.0,770,hc
322,0.0,0.0,1.0,0.0,658.0,0.36468601226806646,2.017725944519043,0.6658644529845729,0.0,0.0,111.0,770,hc
323,1.0,1.0,1.0,2.0,659.0,0.2774021625518798,1.6628170013427737,0.3957090808675212,0.0,1.0,112.0,770,hc
324,1.0,1.0,1.0,2.0,660.0,0.29547810554504395,1.713792085647583,0.4428768312266889,1.0,0.0,112.0,770,hc
325,0.0,1.0,0.0,3.0,662.0,0.33087587356567383,1.9073138236999512,0.583437641983902,0.0,0.0,112.0,770,hc
326,0.0,1.0,0.0,4.0,665.0,0.30430793762207037,1.6019058227539062,0.3024161329593417,0.0,0.0,112.0,770,hc
327,1.0,1.0,1.0,2.0,666.0,0.4122810363769531,1.985263109207153,0.5708338493386607,0.0,0.0,112.0,770,hc
328,1.0,1.0,1.0,4.0,669.0,0.3260879516601562,1.5685930252075198,0.2564905238158505,0.0,0.0,112.0,770,hc
329,1.0,1.0,1.0,2.0,670.0,0.3704240322113037,2.070044040679932,0.7094881695038545,0.0,0.0,112.0,770,hc
330,1.0,1.0,1.0,3.0,672.0,0.288848876953125,1.941206932067871,0.6675432932265275,0.0,0.0,112.0,770,hc
331,0.0,1.0,0.0,2.0,673.0,0.28887104988098145,1.9161729812622077,0.6338170339642926,0.0,0.0,112.0,770,hc
332,1.0,0.0,0.0,0.0,672.0,0.3283209800720215,2.060356855392456,0.7274849674991565,0.0,1.0,111.0,770,hc
333,1.0,0.0,0.0,0.0,671.0,0.29937005043029785,1.8235881328582764,0.5347133538664728,0.0,0.0,111.0,770,hc
334,1.0,1.0,1.0,4.0,674.0,0.2720911502838135,2.003643035888672,0.7382249075737202,0.0,1.0,112.0,770,hc
335,1.0,1.0,1.0,2.0,675.0,0.29314208030700684,1.6285068988800049,0.35056780086658146,0.0,0.0,112.0,770,hc
336,1.0,1.0,1.0,3.0,677.0,0.3419299125671387,1.7561631202697754,0.4234277977151229,0.0,0.0,112.0,770,hc
337,1.0,1.0,1.0,4.0,680.0,0.3039519786834717,1.961811065673828,0.6684216383984023,0.0,0.0,112.0,770,hc
338,0.0,0.0,1.0,0.0,679.0,0.3523869514465332,1.629577875137329,0.2818121602537005,0.0,1.0,111.0,770,hc
339,1.0,0.0,0.0,0.0,678.0,0.42120981216430653,1.939417123794556,0.5377229539447574,0.0,0.0,111.0,770,hc
340,1.0,1.0,1.0,4.0,681.0,0.5258839130401612,1.823839902877808,0.31188562189461744,0.0,1.0,112.0,770,hc
341,1.0,0.0,0.0,0.0,680.0,0.2902319431304932,1.7831830978393555,0.5116019863071645,0.0,1.0,111.0,770,hc
342,0.0,1.0,0.0,2.0,681.0,0.2989430427551269,1.6027181148529053,0.3146113748455878,0.0,1.0,112.0,770,hc
343,0.0,1.0,0.0,2.0,682.0,0.3010189533233642,1.8363230228424068,0.5507860085599321,0.0,0.0,112.0,770,hc
344,0.0,1.0,0.0,3.0,684.0,0.2880001068115235,1.994744062423706,0.7120789450017816,0.0,0.0,112.0,770,hc
345,1.0,1.0,1.0,3.0,686.0,0.26171088218688965,1.8958599567413328,0.658132038147556,0.0,0.0,112.0,770,hc
346,1.0,1.0,1.0,1.0,686.0,0.2708008289337159,1.872910976409912,0.6145152391817345,0.0,0.0,112.0,770,hc
347,0.0,1.0,0.0,0.0,685.0,0.34218883514404297,1.9794671535491943,0.6606827101781189,0.0,0.0,112.0,770,hc
348,0.0,1.0,0.0,0.0,684.0,0.3059029579162598,1.6052820682525635,0.3164276904547033,0.0,0.0,112.0,770,hc
349,0.0,1.0,0.0,2.0,685.0,0.4992880821228027,2.1468639373779297,0.6467766097536004,0.0,0.0,112.0,770,hc
350,1.0,1.0,1.0,2.0,686.0,0.31107401847839355,1.8649160861968996,0.5781314028093307,0.0,0.0,112.0,770,hc
351,1.0,1.0,1.0,4.0,689.0,0.28346300125122076,1.7857129573822017,0.5139876396623473,0.0,0.0,112.0,770,hc
352,0.0,1.0,0.0,2.0,690.0,0.3101680278778076,1.5509569644927976,0.2652844212724155,0.0,0.0,112.0,770,hc
353,0.0,1.0,0.0,3.0,692.0,0.37335109710693365,1.8497290611267088,0.4982103762348081,0.0,0.0,112.0,770,hc
354,0.0,1.0,0.0,2.0,693.0,0.2724549770355225,1.9251790046691892,0.673263853792524,1.0,0.0,112.0,770,hc
355,1.0,0.0,0.0,0.0,692.0,0.26813387870788574,1.7762229442596433,0.5164385154766232,0.0,1.0,111.0,770,hc
356,0.0,0.0,1.0,0.0,691.0,0.3468661308288575,1.91633415222168,0.5661159492357811,0.0,0.0,111.0,770,hc
357,1.0,0.0,0.0,0.0,690.0,0.1973719596862793,1.5542728900909424,0.3540526898262739,0.0,0.0,111.0,770,hc
358,0.0,0.0,1.0,0.0,689.0,0.2672860622406006,1.7588121891021726,0.496110179087263,0.0,0.0,111.0,770,hc
359,0.0,1.0,0.0,3.0,691.0,0.3063719272613525,1.7741730213165283,0.4870630757065932,0.0,1.0,112.0,770,hc
360,1.0,0.0,0.0,0.0,690.0,0.3101150989532471,1.7050468921661377,0.4089213437752654,0.0,1.0,111.0,770,hc
361,0.0,1.0,0.0,2.0,691.0,0.26416683197021484,1.9648301601409917,0.7069116039318205,0.0,1.0,112.0,770,hc
362,0.0,0.0,1.0,0.0,690.0,0.2575359344482422,1.5889320373535156,0.3463002350885563,0.0,1.0,111.0,770,hc
363,1.0,1.0,1.0,2.0,691.0,0.3632640838623047,1.9239630699157713,0.5701191371170695,0.0,1.0,112.0,770,hc
364,1.0,0.0,0.0,0.0,690.0,0.2661170959472656,1.9367020130157473,0.6734783442045167,0.0,1.0,111.0,770,hc
365,0.0,0.0,1.0,0.0,689.0,0.20479202270507807,1.5702490806579585,0.3774669095598839,0.0,0.0,111.0,770,hc
366,1.0,1.0,1.0,2.0,690.0,0.3021228313446045,1.6713039875030515,0.3821990660002948,0.0,1.0,112.0,770,hc
367,0.0,0.0,1.0,0.0,689.0,0.30985307693481445,1.8611750602722172,0.5599333012637197,0.0,1.0,111.0,770,hc
368,1.0,1.0,1.0,3.0,691.0,0.22892594337463376,1.6529860496520996,0.42978248999787777,0.0,1.0,112.0,770,hc
369,0.0,1.0,0.0,4.0,694.0,0.26287698745727534,1.6447989940643308,0.3913356962709076,0.0,0.0,112.0,770,hc
370,0.0,1.0,0.0,1.0,694.0,0.38302206993103033,2.0933120250701904,0.7178035294146907,0.0,0.0,112.0,770,hc
371,0.0,0.0,1.0,0.0,693.0,0.2800719738006592,1.5636818408966064,0.2820182208073338,0.0,1.0,111.0,770,hc
372,1.0,1.0,1.0,3.0,695.0,0.3821079730987549,2.043642997741699,0.6753372352413036,0.0,1.0,112.0,770,hc
373,0.0,1.0,0.0,2.0,696.0,0.25017404556274414,1.990639925003052,0.7493408165199716,0.0,0.0,112.0,770,hc
374,0.0,0.0,1.0,0.0,695.0,0.29723906517028803,1.9800209999084473,0.6795500072459133,0.0,1.0,111.0,770,hc
375,0.0,0.0,1.0,0.0,694.0,0.3247702121734619,1.576932191848755,0.27366517874295354,0.0,0.0,111.0,770,hc
376,1.0,0.0,0.0,0.0,693.0,0.36942195892333984,2.066511869430541,0.7064455044852347,0.0,0.0,111.0,770,hc
377,1.0,0.0,0.0,0.0,692.0,0.3497738838195801,1.9886710643768315,0.6453128163383272,0.0,0.0,111.0,770,hc
378,0.0,0.0,1.0,0.0,691.0,0.2595820426940918,1.7565281391143799,0.5187139041400758,0.0,0.0,111.0,770,hc
379,0.0,0.0,1.0,0.0,690.0,0.2931108474731445,1.7985279560089114,0.5173554648687566,0.0,0.0,111.0,770,hc
380,1.0,1.0,1.0,3.0,692.0,0.3389549255371094,1.7947049140930176,0.4621907221494567,0.0,1.0,112.0,770,hc
381,1.0,1.0,1.0,2.0,693.0,0.41968011856079107,1.8856430053710935,0.481248890904766,1.0,0.0,112.0,770,hc
382,1.0,1.0,1.0,2.0,694.0,0.30548310279846197,1.598302125930786,0.3131307659335266,0.0,0.0,112.0,770,hc
383,0.0,1.0,0.0,0.0,693.0,0.35747289657592773,2.0482399463653564,0.7110668113191092,0.0,0.0,112.0,770,hc
384,1.0,0.0,0.0,0.0,692.0,0.31656789779663086,1.9142961502075195,0.6088931362614424,0.0,1.0,111.0,770,hc
385,1.0,0.0,0.0,0.0,691.0,0.27703690528869623,1.5256569385528564,0.26831507063230214,0.0,0.0,111.0,770,hc
386,1.0,0.0,0.0,0.0,690.0,0.2618141174316406,1.6680278778076172,0.4029547769664065,0.0,0.0,111.0,770,hc
387,1.0,0.0,0.0,0.0,689.0,0.15715694427490232,1.4522027969360354,0.3053152520849541,0.0,1.0,112.0,770,hc
388,0.0,1.0,0.0,2.0,690.0,0.29421091079711914,1.8225629329681403,0.5444115498185821,0.0,0.0,112.0,770,hc
389,1.0,1.0,1.0,2.0,691.0,0.3075840473175049,1.909065961837768,0.6201502882827322,0.0,0.0,112.0,770,hc
390,0.0,1.0,0.0,2.0,692.0,0.2660801410675049,1.8543391227722168,0.5912395444284462,0.0,0.0,112.0,770,hc
391,1.0,0.0,0.0,0.0,691.0,0.2940199375152588,1.7897229194641113,0.5145134061489574,0.0,1.0,111.0,770,hc
392,0.0,1.0,0.0,4.0,694.0,0.26075792312622076,1.7915210723876953,0.5560754303359889,0.0,1.0,112.0,770,hc
393,1.0,0.0,0.0,0.0,693.0,0.318774938583374,1.9285900592803955,0.6179833425636276,0.0,1.0,111.0,770,hc
394,1.0,1.0,1.0,1.0,693.0,0.2585558891296387,1.965460062026977,0.7167612846071858,0.0,1.0,112.0,770,hc
395,0.0,1.0,0.0,2.0,694.0,0.25890493392944336,1.8585739135742188,0.6088741991208269,0.0,0.0,112.0,770,hc
396,0.0,1.0,0.0,4.0,697.0,0.334954023361206,1.7595591545104978,0.43536416967287056,0.0,0.0,112.0,770,hc
397,0.0,1.0,0.0,2.0,698.0,0.3463320732116699,2.0536808967590328,0.7054874310876488,0.0,0.0,112.0,770,hc
398,1.0,1.0,1.0,3.0,700.0,0.26648497581481934,1.5542662143707275,0.29364342828988554,0.0,0.0,112.0,770,hc
399,1.0,1.0,1.0,1.0,700.0,0.5746002197265625,2.053964853286743,0.4975336857888083,0.0,0.0,112.0,770,hc
400,1.0,1.0,1.0,2.0,701.0,0.25863003730773926,1.608720779418945,0.3731173428718745,0.0,0.0,112.0,770,hc
401,0.0,0.0,1.0,0.0,700.0,0.3269989490509033,1.7228288650512695,0.412632250269513,0.0,1.0,111.0,770,hc
402,1.0,1.0,1.0,3.0,702.0,0.3363659381866455,1.84987998008728,0.5291527285338511,0.0,1.0,112.0,770,hc
403,1.0,0.0,0.0,0.0,701.0,0.3155019283294678,1.962965965270996,0.6587369221890895,1.0,1.0,111.0,770,hc
404,1.0,0.0,0.0,0.0,700.0,0.2818300724029541,1.65001106262207,0.37579782309167925,0.0,0.0,111.0,770,hc
405,1.0,1.0,1.0,3.0,702.0,0.5149071216583252,2.244439125061035,0.7366198727103968,0.0,1.0,112.0,770,hc
406,0.0,1.0,0.0,2.0,703.0,0.3470640182495117,1.7962710857391357,0.4499814858739865,0.0,0.0,112.0,770,hc
407,1.0,0.0,0.0,0.0,702.0,0.3030500411987305,2.0336420536041255,0.7334135741284664,0.0,1.0,111.0,770,hc
408,1.0,0.0,0.0,0.0,701.0,0.2507350444793701,1.8942558765411377,0.6445653986699391,0.0,0.0,111.0,770,hc
409,0.0,1.0,0.0,1.0,701.0,0.30054497718811035,1.947861194610596,0.6591327081953755,0.0,1.0,112.0,770,hc
410,0.0,0.0,1.0,0.0,700.0,0.2945749759674072,1.5750319957733157,0.3012768754657933,0.0,1.0,111.0,770,hc
411,1.0,0.0,0.0,0.0,699.0,0.3442819118499756,1.5967519283294673,0.26484468951869405,0.0,0.0,111.0,770,hc
412,1.0,0.0,0.0,0.0,698.0,0.30501294136047363,1.6620230674743652,0.3768380766936804,0.0,0.0,111.0,770,hc
413,0.0,0.0,1.0,0.0,697.0,0.30342984199523926,1.9005398750305171,0.6105463627254305,0.0,0.0,111.0,770,hc
414,0.0,0.0,1.0,0.0,696.0,0.2125048637390137,1.7016270160675047,0.4957096754187708,0.0,0.0,111.0,770,hc
415,0.0,0.0,1.0,0.0,695.0,0.2475728988647461,1.9586520195007324,0.72089222046225,0.0,0.0,111.0,770,hc
416,1.0,1.0,1.0,2.0,696.0,0.2709970474243164,1.8171210289001467,0.5549315025587859,0.0,1.0,112.0,770,hc
417,1.0,1.0,1.0,5.0,700.0,0.31938505172729487,1.6293010711669917,0.31791322345116874,0.0,0.0,112.0,770,hc
418,0.0,1.0,0.0,2.0,701.0,0.477161169052124,2.0342230796813965,0.5519873799386465,0.0,0.0,112.0,770,hc
419,0.0,1.0,0.0,4.0,704.0,0.28883886337280273,1.6766359806060793,0.3955393646345472,0.0,0.0,112.0,770,hc
420,1.0,0.0,0.0,0.0,703.0,0.3022060394287109,1.5593550205230713,0.2717644553553245,0.0,1.0,111.0,770,hc
421,1.0,0.0,0.0,0.0,702.0,0.3163011074066162,1.6735680103302,0.3619992896694693,0.0,0.0,111.0,770,hc
422,1.0,1.0,1.0,2.0,703.0,0.2871179580688477,1.6563370227813723,0.38504855150861855,0.0,1.0,112.0,770,hc
423,1.0,0.0,0.0,0.0,702.0,0.28942012786865234,1.5450479984283447,0.26365538127592547,0.0,1.0,111.0,770,hc
424,1.0,1.0,1.0,3.0,704.0,0.2820768356323242,1.5455491542816164,0.27592052338888123,0.0,1.0,112.0,770,hc
425,1.0,1.0,1.0,2.0,705.0,0.24516487121582034,1.7101778984069824,0.4693126982850265,0.0,0.0,112.0,770,hc
426,0.0,0.0,1.0,0.0,704.0,0.29604387283325195,2.0353732109069824,0.7381485249196239,0.0,1.0,111.0,770,hc
427,0.0,0.0,1.0,0.0,703.0,0.3152890205383301,1.9076938629150393,0.595775298870858,0.0,0.0,111.0,770,hc
428,0.0,0.0,1.0,0.0,702.0,0.3003411293029785,1.9563171863555908,0.6687755799137871,0.0,0.0,111.0,770,hc
429,0.0,1.0,0.0,0.0,702.0,0.07176995277404785,5.687481880187988,0.4900757530989553,-2.0,-2.0,111.0,770,hc
430,1.0,0.0,0.0,0.0,701.0,0.26963996887207037,1.8191738128662107,0.559240648141017,0.0,0.0,111.0,770,hc
431,0.0,0.0,1.0,0.0,700.0,0.22199797630310056,1.8627648353576656,0.6553413003690051,0.0,0.0,111.0,770,hc
432,0.0,0.0,1.0,0.0,699.0,0.2653851509094238,1.9036650657653809,0.6428634274752429,0.0,0.0,111.0,770,hc
433,1.0,0.0,0.0,0.0,698.0,0.2844688892364502,1.8524448871612549,0.5783700960528266,0.0,0.0,111.0,770,hc
434,0.0,1.0,0.0,1.0,698.0,0.2815508842468262,1.8568999767303465,0.58534701920443,1.0,1.0,112.0,770,hc
435,1.0,1.0,1.0,2.0,699.0,0.2959640026092529,1.701487064361572,0.403805876655201,0.0,0.0,112.0,770,hc
436,0.0,1.0,0.0,1.0,699.0,0.2789778709411621,1.6972138881683347,0.4177258960454282,0.0,0.0,112.0,770,hc
437,1.0,1.0,1.0,4.0,702.0,0.2981078624725341,1.7424349784851074,0.4435541037711044,0.0,0.0,112.0,770,hc
438,0.0,1.0,0.0,2.0,703.0,0.3048200607299805,1.879355907440185,0.5895470169122679,0.0,0.0,112.0,770,hc
439,0.0,1.0,0.0,3.0,705.0,0.3075270652770996,1.7080450057983398,0.4145574093552508,0.0,0.0,112.0,770,hc
440,0.0,1.0,0.0,3.0,707.0,0.31662511825561523,1.6006569862365723,0.29869967197109876,0.0,0.0,112.0,770,hc
441,0.0,1.0,0.0,2.0,708.0,0.2786428928375244,1.8213679790496824,0.553235578702442,0.0,0.0,112.0,770,hc
442,1.0,1.0,1.0,3.0,710.0,0.2953429222106933,1.9657149314880369,0.6689114483046265,0.0,0.0,112.0,770,hc
443,1.0,1.0,1.0,4.0,713.0,0.28879618644714355,1.9260249137878416,0.6450733669301524,0.0,0.0,112.0,770,hc
444,0.0,0.0,1.0,0.0,712.0,0.25914788246154785,1.7924568653106687,0.5543682992161708,0.0,1.0,111.0,770,hc
445,0.0,1.0,0.0,1.0,712.0,0.28024697303771967,1.5407800674438477,0.26220959170642694,0.0,1.0,112.0,770,hc
446,0.0,1.0,0.0,3.0,714.0,0.27993702888488764,2.0031361579895015,0.7316064376324238,0.0,0.0,112.0,770,hc
447,0.0,0.0,1.0,0.0,713.0,0.2840349674224853,1.5795037746429441,0.3116111584344068,0.0,1.0,111.0,770,hc
448,0.0,0.0,1.0,0.0,712.0,0.32373309135437006,1.7836608886718748,0.4785313497937807,0.0,0.0,111.0,770,hc
449,1.0,1.0,1.0,2.0,713.0,0.2995281219482422,1.7122461795806885,0.4242572975887446,0.0,1.0,112.0,770,hc
450,0.0,0.0,1.0,0.0,712.0,0.28496789932250977,1.91192889213562,0.6360784729338093,0.0,1.0,111.0,770,hc
451,0.0,0.0,1.0,0.0,711.0,0.2772059440612793,1.63320517539978,0.3696351813603618,0.0,0.0,111.0,770,hc
452,0.0,0.0,1.0,0.0,710.0,0.2909131050109863,1.6360740661621092,0.35579095449150994,0.0,0.0,111.0,770,hc
453,1.0,1.0,1.0,3.0,712.0,0.35362792015075684,1.9664909839630127,0.6221166945888835,0.0,1.0,112.0,770,hc
454,1.0,0.0,0.0,0.0,711.0,0.3121211528778076,1.993223905563354,0.6820435941850772,0.0,1.0,111.0,770,hc
455,1.0,1.0,1.0,3.0,713.0,0.2630929946899414,1.5877690315246582,0.32027362323711045,0.0,1.0,112.0,770,hc
456,1.0,1.0,1.0,2.0,714.0,0.3258309364318848,1.6163959503173826,0.30343496297586814,0.0,0.0,112.0,770,hc
457,1.0,1.0,1.0,3.0,716.0,0.2851691246032715,1.5437109470367432,0.263920892615914,0.0,0.0,112.0,770,hc
458,0.0,0.0,1.0,0.0,715.0,0.30692410469055176,1.745255947113037,0.459078599268932,0.0,1.0,111.0,770,hc
459,1.0,1.0,1.0,2.0,716.0,0.36905908584594727,2.001854181289673,0.6441620672395304,0.0,1.0,112.0,770,hc
460,0.0,1.0,0.0,2.0,717.0,0.2540419101715088,1.591068983078003,0.3522757110963371,0.0,0.0,112.0,770,hc
461,1.0,1.0,1.0,1.0,717.0,0.3270909786224365,1.7106969356536863,0.396338729140143,0.0,0.0,112.0,770,hc
462,0.0,0.0,1.0,0.0,716.0,0.264233112335205,1.87847900390625,0.6246636561411624,1.0,1.0,111.0,770,hc
463,0.0,0.0,1.0,0.0,715.0,0.3268918991088867,1.6022231578826907,0.2940024897996058,0.0,0.0,111.0,770,hc
464,1.0,1.0,1.0,2.0,716.0,0.33098316192626953,1.659135818481445,0.33652895160726354,0.0,0.0,111.0,770,hc
465,1.0,1.0,1.0,4.0,719.0,0.3293509483337402,1.6846690177917478,0.3545921254905764,0.0,1.0,112.0,770,hc
466,1.0,0.0,0.0,0.0,718.0,0.3211629390716553,1.584918975830078,0.27301322746990536,0.0,1.0,111.0,770,hc
467,0.0,0.0,1.0,0.0,717.0,0.2628068923950196,1.67914080619812,0.4187416842563751,0.0,0.0,111.0,770,hc
468,1.0,0.0,0.0,0.0,716.0,0.32755589485168457,1.5710039138793945,0.25657725276392485,0.0,0.0,111.0,770,hc
469,1.0,0.0,0.0,0.0,715.0,0.4209439754486084,2.0199689865112305,0.6096608385790429,0.0,0.0,111.0,770,hc
470,0.0,1.0,0.0,2.0,716.0,0.34950494766235357,1.86030912399292,0.5201631586507318,0.0,1.0,112.0,770,hc
471,1.0,1.0,1.0,2.0,717.0,0.6197948455810546,2.329190969467163,0.7159910756078435,0.0,0.0,112.0,770,hc
472,0.0,1.0,0.0,4.0,720.0,0.2426400184631348,1.729222059249878,0.4955079481223564,0.0,0.0,112.0,770,hc
473,1.0,1.0,1.0,2.0,721.0,0.277925968170166,1.5972590446472166,0.34300772275904495,0.0,0.0,112.0,770,hc
474,0.0,0.0,1.0,0.0,720.0,0.3009841442108154,1.7714319229125979,0.4810111838772627,0.0,1.0,111.0,770,hc
475,0.0,1.0,0.0,1.0,720.0,0.28439784049987793,1.8781979084014888,0.6091666957585742,0.0,1.0,112.0,770,hc
476,0.0,0.0,1.0,0.0,719.0,0.317086935043335,1.5852129459381104,0.2781800362558284,0.0,1.0,111.0,770,hc
477,0.0,0.0,1.0,0.0,718.0,0.3828458786010743,2.0520980358123775,0.6799428083009462,0.0,0.0,111.0,770,hc
478,0.0,0.0,1.0,0.0,717.0,0.23691511154174805,1.8877890110015867,0.6678367347621932,0.0,0.0,111.0,770,hc
479,0.0,0.0,1.0,0.0,716.0,0.2859261035919189,1.7239890098571775,0.44212135845564576,0.0,0.0,111.0,770,hc
480,0.0,1.0,0.0,1.0,716.0,0.3414449691772461,1.6694238185882568,0.3449938901187578,0.0,1.0,112.0,770,hc
481,1.0,0.0,0.0,0.0,715.0,0.36178183555603033,2.03589415550232,0.680754977538554,0.0,1.0,111.0,770,hc
482,0.0,0.0,1.0,0.0,714.0,0.3446907997131348,1.781177997589111,0.4622113029898112,0.0,0.0,111.0,770,hc
483,1.0,1.0,1.0,2.0,715.0,0.4172310829162598,2.1037211418151855,0.6991401619340116,0.0,1.0,112.0,770,hc
484,0.0,1.0,0.0,2.0,716.0,0.27871203422546387,1.680614948272705,0.3968346922259525,0.0,0.0,112.0,770,hc
485,1.0,0.0,0.0,0.0,715.0,0.3259642124176025,1.6011800765991209,0.29820404109469517,0.0,1.0,111.0,770,hc
486,0.0,0.0,1.0,0.0,714.0,0.38609290122985845,1.9925100803375244,0.6237583196887487,0.0,0.0,111.0,770,hc
487,1.0,1.0,1.0,2.0,715.0,0.28816318511962885,1.9315819740295408,0.6554233557003774,0.0,1.0,112.0,770,hc
488,1.0,0.0,0.0,0.0,714.0,0.3210070133209228,1.7329330444335935,0.42203471106254015,0.0,1.0,111.0,770,hc
489,1.0,1.0,1.0,2.0,715.0,0.32468700408935547,1.5680470466613765,0.2570039380605024,0.0,1.0,112.0,770,hc
490,1.0,0.0,0.0,0.0,714.0,0.3349988460540772,1.9650540351867676,0.6383943503049393,0.0,1.0,111.0,770,hc
491,0.0,0.0,1.0,0.0,713.0,0.31332898139953613,1.628584861755371,0.3174117615604428,1.0,0.0,111.0,770,hc
492,1.0,1.0,1.0,3.0,715.0,0.291079044342041,1.7810330390930176,0.4983517116273208,0.0,1.0,112.0,770,hc
493,1.0,1.0,1.0,3.0,717.0,0.2975559234619141,1.5518748760223389,0.26720568711181447,0.0,0.0,112.0,770,hc
494,0.0,1.0,0.0,2.0,718.0,0.29691004753112793,1.7735829353332517,0.4739892720243841,0.0,0.0,112.0,770,hc
495,0.0,0.0,1.0,0.0,717.0,0.3422749042510986,2.0152831077575684,0.689149318701653,0.0,1.0,111.0,770,hc
496,1.0,1.0,1.0,1.0,717.0,0.3047199249267578,1.9062449932098384,0.6122354837403875,0.0,1.0,112.0,770,hc
497,1.0,0.0,0.0,0.0,716.0,0.316784143447876,1.7548680305480957,0.4507148907707219,0.0,1.0,111.0,770,hc
498,0.0,0.0,1.0,0.0,715.0,0.3471338748931885,2.05971908569336,0.710276814694027,0.0,0.0,111.0,770,hc
499,1.0,1.0,1.0,1.0,715.0,0.2702910900115967,1.6096539497375488,0.3536993208199574,0.0,1.0,112.0,770,hc
500,1.0,0.0,0.0,0.0,714.0,0.30462002754211426,1.8954889774322508,0.599016422669632,0.0,1.0,111.0,770,hc
501,0.0,0.0,1.0,0.0,713.0,0.2676639556884766,1.9507079124450684,0.6830642554549079,0.0,1.0,112.0,770,hc
502,0.0,1.0,0.0,2.0,714.0,0.27177095413208,1.9458239078521729,0.6789492111716209,0.0,0.0,112.0,770,hc
503,1.0,1.0,1.0,4.0,717.0,0.2915081977844238,1.773123025894165,0.5023816471735185,0.0,0.0,112.0,770,hc
504,1.0,1.0,1.0,3.0,719.0,0.2622191905975341,1.7513291835784912,0.4871529392203572,0.0,0.0,112.0,770,hc
505,1.0,0.0,0.0,0.0,718.0,0.28019094467163086,1.8494389057159424,0.5699277694212975,0.0,1.0,111.0,770,hc
506,0.0,1.0,0.0,4.0,721.0,0.2602789402008057,1.8529491424560545,0.6062804629656952,0.0,1.0,112.0,770,hc
507,1.0,1.0,1.0,3.0,723.0,0.290306806564331,1.7933337688446045,0.516445767953602,0.0,0.0,112.0,770,hc
508,1.0,0.0,0.0,0.0,722.0,0.2994389533996582,1.569793224334717,0.2699396833275173,0.0,1.0,111.0,770,hc
509,0.0,0.0,1.0,0.0,721.0,0.33477091789245605,2.0385069847106934,0.7080250877717702,0.0,0.0,111.0,770,hc
510,0.0,1.0,0.0,2.0,722.0,0.3165891170501709,1.5705780982971191,0.2625425022838164,0.0,1.0,112.0,770,hc
511,1.0,1.0,1.0,4.0,725.0,0.35096597671508784,1.632774829864502,0.295349039277454,0.0,0.0,112.0,770,hc
512,0.0,0.0,1.0,0.0,724.0,0.32769680023193354,2.012601137161255,0.7076051369199634,0.0,1.0,111.0,770,hc
513,1.0,0.0,0.0,0.0,723.0,0.352107048034668,1.7174758911132812,0.37551924480645593,0.0,0.0,111.0,770,hc
514,0.0,1.0,0.0,0.0,722.0,0.3554952144622803,1.929794073104858,0.5885051957051264,0.0,1.0,112.0,770,hc
515,1.0,0.0,0.0,0.0,721.0,0.2812228202819824,1.9189751148223877,0.6408606432962369,0.0,1.0,111.0,770,hc
516,0.0,1.0,0.0,4.0,724.0,0.2926621437072754,1.7495090961456297,0.4739767719797183,0.0,1.0,112.0,770,hc
517,0.0,0.0,1.0,0.0,723.0,0.3786771297454834,1.8377530574798588,0.4618077408224828,1.0,1.0,111.0,770,hc
518,1.0,1.0,1.0,4.0,726.0,0.4185459613800048,1.8416318893432615,0.43691646920806654,0.0,1.0,112.0,770,hc
519,0.0,0.0,1.0,0.0,725.0,0.3554890155792236,1.7650330066680908,0.41870298629981423,0.0,1.0,111.0,770,hc
520,0.0,1.0,0.0,1.0,725.0,0.3368968963623047,2.0445427894592285,0.7130665405585047,0.0,1.0,112.0,770,hc
521,0.0,0.0,1.0,0.0,724.0,0.37953901290893555,1.672044038772583,0.3023198650737106,0.0,0.0,112.0,770,hc
522,0.0,0.0,1.0,0.0,723.0,0.2832791805267334,1.6806559562683105,0.3995845090373216,0.0,1.0,111.0,770,hc
523,0.0,1.0,0.0,1.0,723.0,0.2919750213623047,2.0288448333740234,0.7448210370200474,0.0,1.0,112.0,770,hc
524,0.0,0.0,1.0,0.0,722.0,0.2495589256286621,1.5036997795104978,0.2657855690098184,0.0,1.0,111.0,770,hc
525,1.0,0.0,0.0,0.0,721.0,0.3807671070098877,1.7486171722412107,0.3643986812642512,0.0,0.0,111.0,770,hc
526,0.0,0.0,1.0,0.0,720.0,0.246488094329834,1.6992318630218501,0.463600021152229,0.0,0.0,111.0,770,hc
527,0.0,0.0,1.0,0.0,719.0,0.28959703445434565,1.8497619628906243,0.579994170679774,0.0,0.0,111.0,770,hc
528,0.0,0.0,1.0,0.0,718.0,0.2416079044342041,1.7045948505401611,0.4847590208735156,0.0,0.0,111.0,770,hc
529,1.0,1.0,1.0,1.0,718.0,0.2930140495300293,1.588508129119873,0.3068779044351648,0.0,1.0,112.0,770,hc
530,1.0,1.0,1.0,3.0,720.0,0.29270195960998535,1.7674200534820557,0.4908630159274472,0.0,0.0,112.0,770,hc
531,0.0,0.0,1.0,0.0,719.0,0.2832159996032715,1.648115873336792,0.3725144728238244,0.0,1.0,111.0,770,hc
532,1.0,0.0,0.0,0.0,718.0,0.31826996803283686,1.93325400352478,0.6222558314342839,0.0,0.0,111.0,770,hc
533,0.0,0.0,1.0,0.0,717.0,0.2829868793487549,1.7134149074554443,0.436005526778889,0.0,0.0,111.0,770,hc
534,0.0,1.0,0.0,2.0,718.0,0.34731507301330566,1.760914087295532,0.41365039850038565,0.0,1.0,112.0,770,hc
535,0.0,0.0,1.0,0.0,717.0,0.3863739967346192,2.016392946243286,0.646533568681039,0.0,1.0,111.0,770,hc
536,1.0,0.0,0.0,0.0,716.0,0.2998061180114746,1.75349497795105,0.4670160997518764,1.0,0.0,111.0,770,hc
537,0.0,1.0,0.0,2.0,717.0,0.30421495437622076,1.5951459407806399,0.2957461155326983,0.0,1.0,112.0,770,hc
538,1.0,0.0,0.0,0.0,716.0,0.2809181213378906,1.5922298431396482,0.32135645939380797,0.0,1.0,111.0,770,hc
539,0.0,0.0,1.0,0.0,715.0,0.32095217704772944,1.7703030109405515,0.45828497682766,0.0,0.0,111.0,770,hc
540,0.0,1.0,0.0,0.0,714.0,0.25432705879211426,1.79610800743103,0.5543662855160782,0.0,1.0,112.0,770,hc
541,1.0,1.0,1.0,2.0,715.0,0.24541401863098145,1.7052018642425537,0.4597510708858337,0.0,0.0,112.0,770,hc
542,1.0,0.0,0.0,0.0,714.0,0.29048705101013184,1.6303920745849605,0.3570028680336772,0.0,1.0,111.0,770,hc
543,0.0,0.0,1.0,0.0,713.0,0.2621908187866211,1.6998889446258545,0.4402285785765517,0.0,0.0,111.0,770,hc
544,1.0,1.0,1.0,1.0,713.0,0.28041100502014166,1.5353198051452637,0.2591488126794979,0.0,1.0,112.0,770,hc
545,0.0,0.0,1.0,0.0,712.0,0.3570199012756348,1.676565170288086,0.3357128402112965,0.0,0.0,112.0,770,hc
546,1.0,0.0,0.0,0.0,711.0,0.3167209625244141,1.605254888534546,0.29110557422659683,0.0,1.0,111.0,770,hc
547,1.0,1.0,1.0,3.0,713.0,0.32880377769470215,2.037574052810669,0.7116593959953021,0.0,1.0,112.0,770,hc
548,1.0,1.0,1.0,1.0,713.0,0.2955210208892822,1.7054080963134766,0.4174428843194906,0.0,0.0,112.0,770,hc
549,0.0,0.0,1.0,0.0,712.0,0.34998106956481934,1.6206750869750977,0.2717229814993822,0.0,1.0,111.0,770,hc
550,0.0,1.0,0.0,3.0,714.0,0.30836319923400884,1.9371738433837888,0.6419006849997142,0.0,1.0,112.0,770,hc
551,0.0,0.0,1.0,0.0,713.0,0.409113883972168,1.7476019859313967,0.35656644992197645,0.0,1.0,111.0,770,hc
552,0.0,1.0,0.0,3.0,715.0,0.40513801574707037,2.1015639305114746,0.707839175935892,0.0,1.0,112.0,770,hc
553,1.0,1.0,1.0,2.0,716.0,0.4642040729522705,2.1978209018707275,0.7390815093806836,0.0,0.0,112.0,770,hc
554,0.0,1.0,0.0,1.0,716.0,0.3862190246582031,1.775921821594238,0.3987550010604487,0.0,0.0,112.0,770,hc
555,0.0,1.0,0.0,4.0,719.0,0.3465888500213623,1.7961289882659912,0.4615901748155047,0.0,0.0,112.0,770,hc
556,1.0,1.0,1.0,2.0,720.0,0.2837059497833252,1.9605720043182373,0.6886838245845597,0.0,0.0,112.0,770,hc
557,0.0,1.0,0.0,3.0,722.0,0.2731640338897705,2.0073029994964604,0.7460436367746374,0.0,0.0,112.0,770,hc
558,1.0,1.0,1.0,2.0,723.0,0.3592948913574219,1.758736848831177,0.421852728848018,0.0,0.0,112.0,770,hc
559,0.0,0.0,1.0,0.0,722.0,0.3366029262542725,1.6543450355529783,0.32639893177693674,0.0,1.0,111.0,770,hc
560,0.0,1.0,0.0,3.0,724.0,0.35362792015075684,2.086353063583374,0.7457352416649841,0.0,1.0,112.0,770,hc
561,1.0,0.0,0.0,0.0,723.0,0.3674221038818359,2.099005937576294,0.7448658449605432,0.0,1.0,111.0,770,hc
562,0.0,0.0,1.0,0.0,722.0,0.36848998069763184,2.054203987121582,0.6992361899524577,0.0,0.0,111.0,770,hc
563,0.0,1.0,0.0,2.0,723.0,0.29690098762512207,1.6732168197631836,0.37285731801554717,0.0,1.0,112.0,770,hc
564,0.0,0.0,1.0,0.0,722.0,0.4683020114898682,1.9682419300079343,0.5077274191587882,0.0,1.0,111.0,770,hc
565,1.0,1.0,1.0,2.0,723.0,0.2716169357299805,2.001527070999145,0.7424059983179386,0.0,1.0,112.0,770,hc
566,1.0,0.0,0.0,0.0,722.0,0.34063196182250977,2.0600509643554688,0.7359086315343337,0.0,1.0,111.0,770,hc
567,1.0,0.0,0.0,0.0,721.0,0.2690701484680176,1.6074800491333008,0.3438937769230214,0.0,0.0,111.0,770,hc
568,0.0,1.0,0.0,3.0,723.0,0.35312294960021967,1.7485828399658203,0.4091479028892637,0.0,1.0,112.0,770,hc
569,1.0,0.0,0.0,0.0,722.0,0.3171939849853516,1.7770709991455078,0.4697107048562751,0.0,1.0,111.0,770,hc
570,1.0,1.0,1.0,3.0,724.0,0.3259308338165283,1.8212919235229488,0.5076057536765184,1.0,1.0,112.0,770,hc
571,0.0,1.0,0.0,2.0,725.0,0.27732706069946284,1.814733982086182,0.5556799177175643,0.0,0.0,112.0,770,hc
572,1.0,0.0,0.0,0.0,724.0,0.27373600006103516,1.5990450382232666,0.3383938370036798,0.0,1.0,111.0,770,hc
573,1.0,1.0,1.0,0.0,723.0,0.3138260841369629,1.927455186843872,0.6156164958945807,0.0,1.0,112.0,770,hc
574,1.0,1.0,1.0,0.0,722.0,0.2705008983612061,1.6361019611358645,0.3687602637753797,0.0,0.0,112.0,770,hc
575,1.0,0.0,0.0,0.0,721.0,0.3202378749847412,2.03284215927124,0.7180151332245082,0.0,1.0,111.0,770,hc
576,0.0,1.0,0.0,1.0,721.0,0.29895782470703125,1.7449069023132324,0.44662832696842897,0.0,1.0,112.0,770,hc
577,1.0,0.0,0.0,0.0,720.0,0.2867968082427978,1.9831740856170652,0.7129342265812513,0.0,1.0,111.0,770,hc
578,1.0,0.0,0.0,0.0,719.0,0.300523042678833,1.7885260581970215,0.5017600284643877,0.0,0.0,111.0,770,hc
579,0.0,1.0,0.0,3.0,721.0,0.2805759906768798,1.578223943710327,0.2969957527523974,0.0,1.0,112.0,770,hc
580,0.0,0.0,1.0,0.0,720.0,0.28695011138916016,1.7381038665771484,0.4683052954142152,0.0,1.0,111.0,770,hc
581,0.0,0.0,1.0,0.0,719.0,0.43501186370849604,1.7708640098571775,0.33939882306413827,0.0,0.0,111.0,770,hc
582,0.0,0.0,1.0,0.0,718.0,0.31655716896057123,2.0538721084594727,0.7429385269390995,0.0,0.0,111.0,770,hc
583,0.0,0.0,1.0,0.0,717.0,0.33762311935424805,1.625998020172119,0.30282921214689684,0.0,0.0,111.0,770,hc
584,0.0,1.0,0.0,1.0,717.0,0.39323115348815924,2.0148630142211914,0.6341072112022066,0.0,1.0,112.0,770,hc
585,1.0,1.0,1.0,0.0,716.0,0.27161383628845215,1.6089279651641843,0.3434416067717164,0.0,0.0,112.0,770,hc
586,1.0,0.0,0.0,0.0,715.0,0.38066887855529785,1.8292901515960691,0.4560259818502186,0.0,1.0,111.0,770,hc
587,0.0,1.0,0.0,4.0,718.0,0.2954280376434326,1.798485994338989,0.5045395445938561,0.0,1.0,112.0,770,hc
588,1.0,0.0,0.0,0.0,717.0,0.3004820346832276,2.0106170177459717,0.7150375422753523,0.0,1.0,111.0,770,hc
589,1.0,1.0,1.0,3.0,719.0,0.4525530338287354,2.0154600143432617,0.5807374340106943,0.0,1.0,112.0,770,hc
590,1.0,0.0,0.0,0.0,718.0,0.3229429721832276,1.7329819202423096,0.4306266472000834,0.0,1.0,111.0,770,hc
591,1.0,0.0,0.0,0.0,717.0,0.2856419086456299,1.7205410003662107,0.4512299561544541,0.0,0.0,111.0,770,hc
592,1.0,1.0,1.0,1.0,717.0,0.26637697219848633,2.001114845275879,0.7354844804272774,0.0,1.0,112.0,770,hc
593,0.0,0.0,1.0,0.0,716.0,0.3205549716949463,1.5677151679992676,0.25379026294854634,0.0,1.0,111.0,770,hc
594,0.0,1.0,0.0,1.0,716.0,0.4359159469604492,1.932631969451904,0.5029123777221761,0.0,1.0,112.0,770,hc
595,1.0,1.0,1.0,4.0,719.0,0.2925829887390137,1.773015022277832,0.4927022514642998,1.0,0.0,112.0,770,hc
596,1.0,0.0,0.0,0.0,718.0,0.2669680118560791,1.531502962112427,0.2745072679045616,0.0,1.0,111.0,770,hc
597,0.0,1.0,0.0,2.0,719.0,0.2567179203033447,1.6786949634552,0.4364557668007055,0.0,1.0,112.0,770,hc
598,1.0,1.0,1.0,4.0,722.0,0.22445082664489746,1.8957011699676516,0.6819519323510126,0.0,0.0,112.0,770,hc
599,0.0,1.0,0.0,2.0,723.0,0.2614610195159912,1.8995730876922607,0.6483548294819717,0.0,0.0,112.0,770,hc
600,0.0,1.0,0.0,3.0,725.0,0.3361320495605469,1.8146488666534424,0.4965923884205437,0.0,0.0,112.0,770,hc
601,0.0,0.0,1.0,0.0,724.0,0.292496919631958,1.8029677867889404,0.5329394884200407,0.0,1.0,111.0,770,hc
0,0.0,0.0,1.0,0.0,599.0,0.5040149688720703,2.051256895065308,0.5527522436511848,0.0,0.0,112.0,768,lc
1,1.0,0.0,0.0,0.0,598.0,0.2931070327758789,1.79685115814209,0.5163928266124239,0.0,1.0,111.0,768,lc
2,0.0,1.0,0.0,0.0,598.0,0.02082514762878418,5.839387893676759,0.6892328920235342,-2.0,-2.0,111.0,768,lc
3,1.0,0.0,0.0,0.0,597.0,0.333946943283081,2.053768157958984,0.7263978213373942,0.0,0.0,111.0,768,lc
4,0.0,1.0,0.0,4.0,600.0,0.2370970249176025,1.97347092628479,0.7498860800045357,0.0,0.0,111.0,768,lc
5,0.0,0.0,1.0,0.0,599.0,0.2297370433807373,1.6527409553527834,0.41976576468869004,0.0,1.0,112.0,768,lc
6,1.0,0.0,0.0,0.0,598.0,0.3777918815612793,1.6808929443359375,0.3175151457901865,0.0,0.0,112.0,768,lc
7,1.0,0.0,0.0,0.0,597.0,0.521589994430542,2.0784249305725098,0.5624522713564243,0.0,1.0,111.0,768,lc
8,0.0,1.0,0.0,2.0,598.0,0.20493912696838376,1.9112629890441892,0.7236272344352758,0.0,0.0,111.0,768,lc
9,1.0,1.0,1.0,2.0,599.0,0.3783369064331055,2.0373899936676025,0.6778483796272448,0.0,0.0,111.0,768,lc
10,0.0,1.0,0.0,3.0,601.0,0.18721485137939453,1.8760139942169187,0.7039372847589338,0.0,0.0,111.0,768,lc
11,0.0,1.0,0.0,3.0,603.0,0.2739319801330566,1.847984075546265,0.5854667702911148,0.0,0.0,111.0,768,lc
12,1.0,0.0,0.0,0.0,602.0,0.7147419452667236,2.2564289569854736,0.5420530351780074,0.0,1.0,112.0,768,lc
13,0.0,1.0,0.0,3.0,604.0,0.6730442047119141,2.0490911006927486,0.391392974960184,0.0,0.0,112.0,768,lc
14,0.0,0.0,1.0,0.0,603.0,0.921156167984009,2.254814863204956,0.3463829952722771,0.0,1.0,111.0,768,lc
15,0.0,1.0,0.0,3.0,605.0,0.36423301696777344,1.8091511726379397,0.4554566185995978,0.0,1.0,112.0,768,lc
16,1.0,1.0,1.0,2.0,606.0,0.31961607933044434,1.7298500537872312,0.418813146495302,0.0,1.0,111.0,768,lc
17,1.0,1.0,1.0,0.0,606.0,1.035339117050171,2.4795718193054204,0.41519876677737033,-1.0,-1.0,111.0,768,lc
18,1.0,1.0,1.0,1.0,606.0,0.8747580051422118,2.154489040374756,0.30322732645959377,0.0,0.0,111.0,768,lc
19,1.0,0.0,0.0,0.0,605.0,0.4540960788726807,2.0974888801574707,0.6507900775390079,0.0,0.0,111.0,768,lc
20,1.0,1.0,1.0,2.0,606.0,0.6452550888061523,2.180464029312134,0.5311414809327789,0.0,0.0,111.0,768,lc
21,0.0,0.0,1.0,0.0,605.0,0.37366414070129395,1.8767869472503664,0.5246985240652835,0.0,1.0,112.0,768,lc
22,1.0,1.0,1.0,2.0,606.0,0.1200721263885498,1.368655204772949,0.26039052470399177,0.0,1.0,111.0,768,lc
23,1.0,0.0,0.0,0.0,605.0,0.1557610034942627,1.873165845870972,0.733138472615073,0.0,0.0,111.0,768,lc
24,1.0,0.0,0.0,0.0,604.0,0.8083679676055908,2.211859941482544,0.41210821524573027,0.0,0.0,111.0,768,lc
25,0.0,1.0,0.0,3.0,606.0,0.2825961112976074,1.9808619022369385,0.7099142401246077,0.0,0.0,111.0,768,lc
26,0.0,1.0,0.0,2.0,607.0,0.11229705810546876,1.4754469394683838,0.3686438993876176,0.0,0.0,111.0,768,lc
27,0.0,1.0,0.0,2.0,608.0,0.34902000427246094,1.999516010284424,0.651292408111554,0.0,0.0,111.0,768,lc
28,0.0,1.0,0.0,1.0,608.0,0.21010398864746094,1.8547079563140867,0.6560850972583631,0.0,0.0,111.0,768,lc
29,0.0,0.0,1.0,0.0,607.0,0.19112300872802732,1.468213081359863,0.2914030232930516,0.0,0.0,111.0,768,lc
30,1.0,1.0,1.0,1.0,607.0,0.2245960235595703,1.8957750797271729,0.6868911094635908,0.0,0.0,111.0,768,lc
31,1.0,0.0,0.0,0.0,606.0,0.2406160831451416,1.9536659717559812,0.7239406340285441,0.0,1.0,112.0,768,lc
32,0.0,1.0,0.0,3.0,608.0,0.33666801452636724,1.782785177230835,0.4570798396229626,0.0,1.0,111.0,768,lc
33,0.0,1.0,0.0,2.0,609.0,0.3434150218963623,2.0288188457489014,0.6691265983873691,0.0,0.0,111.0,768,lc
34,0.0,0.0,1.0,0.0,608.0,0.6861240863800049,2.2693212032318115,0.5886300892270036,0.0,0.0,111.0,768,lc
35,0.0,1.0,0.0,3.0,610.0,0.5475590229034424,1.9197070598602293,0.3753139752588048,0.0,0.0,111.0,768,lc
36,1.0,0.0,0.0,0.0,609.0,0.1919429302215576,1.757887840270996,0.5831222575851722,1.0,0.0,111.0,768,lc
37,0.0,1.0,0.0,3.0,611.0,0.3023478984832764,1.5806248188018797,0.2807598339820126,0.0,1.0,112.0,768,lc
38,0.0,0.0,1.0,0.0,610.0,0.22270703315734866,1.8738548755645752,0.6709847899722029,0.0,0.0,112.0,768,lc
39,0.0,1.0,0.0,0.0,610.0,0.007437944412231444,5.546842098236084,0.418397000742345,-2.0,-2.0,112.0,768,lc
40,1.0,0.0,0.0,0.0,609.0,0.29068803787231445,1.967789888381958,0.6859797506787699,0.0,0.0,112.0,768,lc
41,1.0,0.0,0.0,0.0,609.0,0.06775999069213867,5.739215850830079,0.5422926749317946,-2.0,-2.0,112.0,768,lc
42,0.0,1.0,0.0,3.0,611.0,0.5539350509643555,2.0161859989166255,0.4753573941935495,0.0,0.0,112.0,768,lc
43,1.0,1.0,1.0,3.0,613.0,0.5633840560913085,2.1800739765167236,0.6220198045807284,0.0,0.0,112.0,768,lc
44,1.0,0.0,0.0,0.0,612.0,0.37618088722229,1.8883280754089355,0.5272284492794366,0.0,1.0,111.0,768,lc
45,0.0,0.0,1.0,0.0,612.0,1.2428309917449953,2.6258599758148193,0.37004910391419404,-1.0,-1.0,112.0,768,lc
46,1.0,0.0,0.0,0.0,611.0,0.5416159629821777,1.7996571063995361,0.2699133943123402,0.0,1.0,111.0,768,lc
47,0.0,0.0,1.0,0.0,611.0,1.7506308555603025,3.0365469455718994,0.2566483815309735,-1.0,-1.0,111.0,768,lc
48,1.0,1.0,1.0,3.0,613.0,0.4584910869598388,1.7720839977264404,0.3287108568911054,0.0,0.0,111.0,768,lc
49,1.0,1.0,1.0,3.0,615.0,0.5658459663391113,1.957157135009766,0.4025455362035013,0.0,0.0,111.0,768,lc
50,1.0,0.0,0.0,0.0,615.0,1.1902360916137698,2.714988946914673,0.5009031251468321,-1.0,-1.0,111.0,768,lc
51,1.0,0.0,0.0,0.0,615.0,3.2686209678649907,4.917588949203491,0.6186206891623882,-1.0,-1.0,111.0,768,lc
52,1.0,0.0,0.0,0.0,614.0,0.7971580028533934,2.4581890106201167,0.660164178029401,0.0,0.0,111.0,768,lc
53,1.0,0.0,0.0,0.0,613.0,0.6952850818634033,2.2936902046203613,0.6040615260932833,0.0,0.0,111.0,768,lc
54,1.0,0.0,0.0,0.0,613.0,1.2503831386566162,2.7366528511047363,0.4576888241927334,-1.0,-1.0,111.0,768,lc
55,1.0,0.0,0.0,0.0,612.0,0.36212396621704096,1.6462001800537107,0.3041460966021127,0.0,0.0,111.0,768,lc
56,1.0,1.0,1.0,0.0,612.0,2.483160972595215,4.195138931274414,0.6824299784205908,-1.0,-1.0,111.0,768,lc
57,1.0,1.0,1.0,0.0,612.0,3.220193862915039,4.901386976242065,0.650732155805759,-1.0,-1.0,111.0,768,lc
58,1.0,1.0,1.0,0.0,612.0,2.512408971786499,4.15987491607666,0.6274648549548063,-1.0,-1.0,111.0,768,lc
59,1.0,1.0,1.0,1.0,612.0,0.37055087089538574,1.8070530891418457,0.4514822580028645,0.0,0.0,111.0,768,lc
60,1.0,0.0,0.0,0.0,611.0,0.6238811016082764,2.201601028442383,0.5863926243591295,0.0,0.0,111.0,768,lc
61,1.0,1.0,1.0,0.0,611.0,4.357970952987671,5.650119066238403,0.27045596104964253,-1.0,-1.0,111.0,768,lc
62,0.0,0.0,1.0,0.0,610.0,0.3032140731811524,1.9069929122924805,0.6105208769147802,0.0,0.0,111.0,768,lc
63,1.0,0.0,0.0,0.0,609.0,0.2592868804931641,1.9669160842895508,0.727434622323817,0.0,0.0,111.0,768,lc
64,0.0,0.0,1.0,0.0,608.0,0.2906157970428466,1.8818309307098389,0.6094376881817204,0.0,1.0,112.0,768,lc
65,0.0,0.0,1.0,0.0,607.0,0.6173999309539794,1.9801177978515625,0.373266038352353,0.0,1.0,111.0,768,lc
66,0.0,0.0,1.0,0.0,606.0,0.3282008171081543,2.034290075302124,0.7239460841641736,0.0,0.0,111.0,768,lc
67,1.0,0.0,0.0,0.0,605.0,0.1969149112701416,1.533246040344238,0.34099171997725597,0.0,0.0,111.0,768,lc
68,0.0,1.0,0.0,2.0,606.0,0.20357704162597656,1.7760021686553955,0.5834735168681213,0.0,0.0,111.0,768,lc
69,1.0,0.0,0.0,0.0,605.0,0.3122828006744385,1.650467872619629,0.3343071345041759,0.0,0.0,111.0,768,lc
70,1.0,0.0,0.0,0.0,604.0,0.4324309825897216,1.6934411525726316,0.26124783944856883,0.0,0.0,111.0,768,lc
71,0.0,0.0,1.0,0.0,603.0,0.3121089935302734,1.733868837356567,0.4283237520576058,0.0,1.0,112.0,768,lc
72,0.0,1.0,0.0,3.0,605.0,0.4797909259796143,2.0960822105407715,0.6243116846824671,0.0,1.0,111.0,768,lc
73,0.0,1.0,0.0,3.0,607.0,0.4659631252288818,1.7924919128417969,0.3338665291211135,0.0,1.0,112.0,768,lc
74,0.0,1.0,0.0,3.0,609.0,0.22692203521728516,1.668192148208618,0.4520239752658068,0.0,1.0,111.0,768,lc
75,0.0,0.0,1.0,0.0,608.0,0.14005398750305176,1.6633849143981931,0.5320567463846843,0.0,0.0,111.0,768,lc
76,1.0,0.0,0.0,0.0,607.0,0.19875812530517575,1.7801160812377927,0.5788689379334168,0.0,1.0,112.0,768,lc
77,0.0,0.0,1.0,0.0,606.0,0.5080831050872803,1.8331930637359617,0.3455095959974028,0.0,0.0,112.0,768,lc
78,1.0,1.0,1.0,3.0,608.0,0.20284485816955566,1.8436429500579836,0.6558171697386525,1.0,0.0,112.0,768,lc
79,0.0,1.0,0.0,2.0,609.0,0.3059818744659424,1.5702500343322752,0.276584107427217,0.0,0.0,112.0,768,lc
80,0.0,1.0,0.0,1.0,609.0,0.303278923034668,1.983326196670532,0.6928607285997374,0.0,0.0,112.0,768,lc
81,0.0,0.0,1.0,0.0,609.0,0.0017809867858886719,5.518203973770142,0.3950697809389872,-2.0,-2.0,111.0,768,lc
82,1.0,0.0,0.0,0.0,608.0,0.4135489463806151,2.016296148300171,0.6111974642741167,0.0,1.0,112.0,768,lc
83,0.0,0.0,1.0,0.0,607.0,0.8980247974395752,2.51552677154541,0.6268377760506926,0.0,1.0,111.0,768,lc
84,1.0,0.0,0.0,0.0,607.0,0.03440403938293457,5.79939603805542,0.6431715084687452,-2.0,-2.0,111.0,768,lc
85,1.0,0.0,0.0,0.0,607.0,0.013342857360839844,5.391450881958009,0.2686224543754548,-2.0,-2.0,111.0,768,lc
86,1.0,0.0,0.0,0.0,607.0,1.9788460731506352,3.3888740539550777,0.3908704202948116,-1.0,-1.0,111.0,768,lc
87,1.0,0.0,0.0,0.0,606.0,0.4605951309204102,1.897355079650879,0.4548912842745133,0.0,0.0,111.0,768,lc
88,1.0,1.0,1.0,3.0,608.0,0.3757469654083252,1.835905075073242,0.4741954655591156,0.0,0.0,111.0,768,lc
89,1.0,1.0,1.0,1.0,608.0,0.3734550476074218,1.6775548458099363,0.3187036645060666,0.0,0.0,111.0,768,lc
90,1.0,1.0,1.0,0.0,608.0,1.1081080436706543,2.5976037979125977,0.4662451916283626,-1.0,-1.0,111.0,768,lc
91,1.0,1.0,1.0,0.0,608.0,1.0732409954071045,2.716825008392333,0.6163993097131837,-1.0,-1.0,111.0,768,lc
92,1.0,1.0,1.0,4.0,611.0,0.29265713691711426,1.7189509868621826,0.4356227791419532,0.0,0.0,111.0,768,lc
93,1.0,0.0,0.0,0.0,611.0,2.285156011581421,3.869180917739868,0.5548732952552813,-1.0,-1.0,111.0,768,lc
94,0.0,1.0,0.0,1.0,611.0,0.5446519851684569,2.166025161743164,0.6375813771050104,0.0,0.0,111.0,768,lc
95,0.0,1.0,0.0,3.0,613.0,0.30597996711730957,1.7477200031280513,0.4522641552523852,0.0,0.0,111.0,768,lc
96,0.0,0.0,1.0,0.0,613.0,1.762979984283447,3.25014591217041,0.4692008747853351,-1.0,-1.0,111.0,768,lc
97,1.0,1.0,1.0,0.0,613.0,1.6911170482635496,2.9992170333862305,0.28544137253715823,-1.0,-1.0,111.0,768,lc
98,0.0,0.0,1.0,0.0,613.0,2.4152071475982666,4.11481499671936,0.6667249374154793,-1.0,-1.0,111.0,768,lc
99,1.0,1.0,1.0,0.0,612.0,0.18472409248352048,1.5630719661712646,0.3801885725561879,0.0,0.0,111.0,768,lc
100,0.0,1.0,0.0,1.0,612.0,0.27675509452819824,1.7903630733489992,0.5371302881937887,0.0,0.0,111.0,768,lc
101,0.0,0.0,1.0,0.0,611.0,0.3038649559020996,1.609050989151001,0.3131857478528551,0.0,0.0,111.0,768,lc
102,1.0,0.0,0.0,0.0,610.0,0.41589307785034174,1.7783842086791992,0.3749226942261884,0.0,0.0,111.0,768,lc
103,1.0,1.0,1.0,0.0,609.0,0.235537052154541,1.4823949337005615,0.25753365436897874,0.0,0.0,111.0,768,lc
104,1.0,0.0,0.0,0.0,608.0,0.3772931098937988,2.0368309020996094,0.6773337516911231,0.0,0.0,111.0,768,lc
105,1.0,1.0,1.0,0.0,608.0,0.034767866134643555,5.795595169067383,0.639902597123231,-2.0,-2.0,111.0,768,lc
106,1.0,1.0,1.0,0.0,607.0,0.3572268486022949,1.6658160686492922,0.3228125221520601,0.0,0.0,111.0,768,lc
107,0.0,1.0,0.0,1.0,607.0,0.7416880130767822,2.1135590076446533,0.38642586196281936,1.0,1.0,112.0,768,lc
108,1.0,0.0,0.0,0.0,606.0,0.6810998916625975,2.1728358268737793,0.4925787158167082,0.0,1.0,111.0,768,lc
109,0.0,1.0,0.0,4.0,609.0,0.36230611801147455,1.866382837295532,0.5090328972490761,0.0,1.0,112.0,768,lc
110,0.0,0.0,1.0,0.0,608.0,0.35276794433593756,1.6949419975280762,0.3542114059449096,0.0,0.0,112.0,768,lc
111,1.0,1.0,1.0,2.0,609.0,0.390841007232666,1.8832929134368896,0.5041063201367075,0.0,0.0,112.0,768,lc
112,0.0,0.0,1.0,0.0,608.0,0.34458303451538086,1.7461211681365965,0.41707722398923,0.0,0.0,112.0,768,lc
113,1.0,0.0,0.0,0.0,607.0,0.25571203231811523,1.5731880664825442,0.32379983266028806,0.0,0.0,112.0,768,lc
114,1.0,1.0,1.0,0.0,607.0,1.2700049877166748,2.6662938594818115,0.37351334602503933,-1.0,-1.0,111.0,768,lc
115,1.0,0.0,0.0,0.0,606.0,0.348567008972168,1.8441720008850095,0.5009821786582384,0.0,1.0,112.0,768,lc
116,0.0,1.0,0.0,3.0,608.0,0.33269500732421875,1.621270179748535,0.28921593517872574,0.0,1.0,111.0,768,lc
117,1.0,0.0,0.0,0.0,607.0,0.24896788597106936,1.5941858291625979,0.3500786740783097,0.0,0.0,111.0,768,lc
118,1.0,1.0,1.0,1.0,607.0,0.22412395477294916,1.9286530017852783,0.7117994605049311,0.0,0.0,111.0,768,lc
119,1.0,1.0,1.0,4.0,610.0,0.19847607612609863,1.6517648696899416,0.4639132249817804,0.0,0.0,111.0,768,lc
120,1.0,0.0,0.0,0.0,610.0,0.004453897476196288,5.816497087478639,0.6970581773496896,-2.0,-2.0,111.0,768,lc
121,0.0,1.0,0.0,0.0,610.0,0.0937368869781494,5.7752671241760245,0.5727678793367736,-2.0,-2.0,111.0,768,lc
122,1.0,0.0,0.0,0.0,609.0,0.2790050506591797,1.5720598697662351,0.2952239887235802,0.0,0.0,111.0,768,lc
123,1.0,0.0,0.0,0.0,608.0,0.42230081558227534,1.9844830036163328,0.579521161723154,0.0,1.0,112.0,768,lc
124,1.0,1.0,1.0,2.0,609.0,0.6839809417724609,1.9339628219604483,0.26386962927261753,0.0,1.0,111.0,768,lc
125,1.0,0.0,0.0,0.0,608.0,0.25671291351318365,1.9182767868041988,0.6818299634275364,0.0,0.0,111.0,768,lc
126,1.0,1.0,1.0,3.0,610.0,0.9923980236053466,2.378624200820923,0.39421682742519115,0.0,0.0,111.0,768,lc
127,1.0,1.0,1.0,0.0,610.0,1.591938018798828,3.26128602027893,0.6553987397260355,-1.0,-1.0,111.0,768,lc
128,1.0,1.0,1.0,0.0,610.0,1.305393934249878,2.5915269851684566,0.26385872420209205,-1.0,-1.0,111.0,768,lc
129,0.0,0.0,1.0,0.0,609.0,0.6451292037963867,1.939824104309082,0.3039804623160566,0.0,0.0,111.0,768,lc
130,0.0,1.0,0.0,2.0,610.0,0.22028589248657224,1.5932700634002686,0.3805678321922574,0.0,0.0,111.0,768,lc
131,0.0,0.0,1.0,0.0,609.0,0.2929251194000244,1.5754189491271973,0.30614467531728967,0.0,0.0,111.0,768,lc
132,1.0,1.0,1.0,3.0,611.0,0.6455609798431396,2.3330929279327393,0.6889764830211732,0.0,0.0,111.0,768,lc
133,1.0,0.0,0.0,0.0,610.0,0.2704660892486572,1.63741397857666,0.3767995154014006,0.0,0.0,111.0,768,lc
134,1.0,0.0,0.0,0.0,609.0,0.2551238536834717,1.79703688621521,0.557075006238364,0.0,0.0,111.0,768,lc
135,1.0,0.0,0.0,0.0,608.0,0.4740931987762451,2.1394238471984863,0.6797917105427098,0.0,0.0,111.0,768,lc
136,1.0,1.0,1.0,2.0,609.0,0.8599550724029541,2.2608301639556885,0.42434937660670097,0.0,0.0,111.0,768,lc
137,1.0,1.0,1.0,0.0,609.0,1.6883227825164795,3.1658959388732915,0.4570127572271449,-1.0,-1.0,112.0,768,lc
138,1.0,0.0,0.0,0.0,609.0,1.286837100982666,2.994420051574707,0.6846748891951496,-1.0,-1.0,111.0,768,lc
139,1.0,1.0,1.0,0.0,609.0,2.710801839828491,4.297353029251099,0.5656925105174317,-1.0,-1.0,112.0,768,lc
140,0.0,1.0,0.0,0.0,609.0,5.742938995361328,7.484633922576904,0.7171819106102897,-1.0,-1.0,111.0,768,lc
141,1.0,1.0,1.0,4.0,612.0,0.2779388427734375,1.7290639877319334,0.4632873308142127,0.0,1.0,112.0,768,lc
142,1.0,1.0,1.0,0.0,612.0,1.2293348312377927,2.5846951007843018,0.34821611246234696,-1.0,-1.0,111.0,768,lc
143,1.0,0.0,0.0,0.0,611.0,0.629020929336548,2.2566769123077393,0.6380555802065679,0.0,1.0,112.0,768,lc
144,0.0,0.0,1.0,0.0,610.0,0.4324851036071776,1.7629911899566648,0.3347846197041278,0.0,0.0,112.0,768,lc
145,0.0,1.0,0.0,2.0,611.0,0.5218400955200196,2.2194550037384038,0.7039625599926396,0.0,0.0,112.0,768,lc
146,1.0,1.0,1.0,3.0,613.0,0.16825103759765625,1.5648000240325926,0.4024516918478071,1.0,1.0,111.0,768,lc
147,1.0,0.0,0.0,0.0,613.0,1.7166900634765625,3.305608987808228,0.5580735364759641,-1.0,-1.0,112.0,768,lc
148,1.0,1.0,1.0,3.0,615.0,0.34282779693603516,1.9134421348571775,0.5882369244357916,0.0,1.0,111.0,768,lc
149,0.0,0.0,1.0,0.0,615.0,2.420210123062134,4.162521839141847,0.7175202105377466,-1.0,-1.0,112.0,768,lc
150,1.0,0.0,0.0,0.0,614.0,0.3946249485015869,1.7876598834991457,0.405608665265839,0.0,1.0,111.0,768,lc
151,1.0,0.0,0.0,0.0,613.0,0.3334381580352784,2.0321249961853027,0.7041807919382926,0.0,0.0,111.0,768,lc
152,1.0,0.0,0.0,0.0,612.0,0.7840991020202637,2.1560170650482178,0.37730107888427367,0.0,0.0,111.0,768,lc
153,1.0,1.0,1.0,0.0,612.0,1.7171671390533447,3.0191500186920166,0.2800557197227562,-1.0,-1.0,111.0,768,lc
154,1.0,1.0,1.0,0.0,612.0,1.7955970764160156,3.314481019973755,0.5111216128717759,-1.0,-1.0,111.0,768,lc
155,1.0,1.0,1.0,0.0,612.0,1.3620660305023191,3.0287520885467525,0.6565301541142633,-1.0,-1.0,111.0,768,lc
156,1.0,1.0,1.0,3.0,614.0,0.5708439350128173,2.216195106506348,0.6561824360488293,0.0,0.0,111.0,768,lc
157,1.0,0.0,0.0,0.0,613.0,0.6092290878295898,2.198139905929565,0.6044775059950435,0.0,0.0,111.0,768,lc
158,1.0,1.0,1.0,3.0,615.0,0.2223060131072998,1.83499813079834,0.6228948171642708,0.0,0.0,111.0,768,lc
159,1.0,0.0,0.0,0.0,614.0,0.18806600570678714,1.8122859001159668,0.6352396501290939,0.0,1.0,112.0,768,lc
160,0.0,1.0,0.0,0.0,614.0,0.0491340160369873,5.903687000274657,0.722451149644302,-2.0,-2.0,111.0,768,lc
161,1.0,1.0,1.0,3.0,616.0,0.7956120967864991,2.4102339744567867,0.6162463368757702,0.0,1.0,112.0,768,lc
162,0.0,1.0,0.0,2.0,617.0,0.4851579666137695,2.1760330200195312,0.6923043033278584,0.0,0.0,112.0,768,lc
163,1.0,1.0,1.0,4.0,620.0,0.23548197746276855,1.775853157043457,0.5517369837095685,0.0,0.0,112.0,768,lc
164,1.0,1.0,1.0,2.0,621.0,0.2283351421356201,1.9569737911224367,0.7253127488616425,0.0,0.0,112.0,768,lc
165,0.0,0.0,1.0,0.0,620.0,0.3332488536834717,1.714339017868042,0.3900774572555709,0.0,0.0,112.0,768,lc
166,1.0,1.0,1.0,2.0,621.0,0.6016418933868408,2.142112970352173,0.5487795078870941,0.0,1.0,111.0,768,lc
167,1.0,0.0,0.0,0.0,620.0,0.27478194236755366,1.6215438842773438,0.3539569677588334,0.0,1.0,112.0,768,lc
168,0.0,0.0,1.0,0.0,619.0,0.19914889335632321,1.904309034347534,0.7080059480222977,0.0,0.0,112.0,768,lc
169,1.0,1.0,1.0,0.0,619.0,0.031213998794555657,5.476886987686156,0.3355337959780118,-2.0,-2.0,112.0,768,lc
170,1.0,1.0,1.0,2.0,620.0,0.38605499267578125,1.821907997131348,0.4407216678081927,0.0,0.0,112.0,768,lc
171,1.0,0.0,0.0,0.0,619.0,0.37952399253845215,1.6747899055480957,0.29911833196607335,0.0,1.0,111.0,768,lc
172,0.0,1.0,0.0,0.0,619.0,1.2381908893585205,2.79804801940918,0.5303664913955688,-1.0,-1.0,112.0,768,lc
173,1.0,1.0,1.0,2.0,620.0,0.1849730014801025,1.5664298534393308,0.39701663129230874,0.0,1.0,111.0,768,lc
174,1.0,1.0,1.0,4.0,623.0,0.5823559761047363,2.3018648624420166,0.7319791767408975,0.0,0.0,111.0,768,lc
175,1.0,1.0,1.0,3.0,625.0,0.19668412208557126,1.588292121887207,0.3873869597159881,0.0,0.0,111.0,768,lc
176,1.0,0.0,0.0,0.0,624.0,0.5235080718994141,2.0620949268341064,0.5494310825140803,0.0,0.0,111.0,768,lc
177,1.0,0.0,0.0,0.0,624.0,1.123812913894653,2.5381710529327393,0.3878929002702217,-1.0,-1.0,111.0,768,lc
178,1.0,0.0,0.0,0.0,623.0,0.37557196617126465,1.7989211082458496,0.43684625806064825,0.0,0.0,111.0,768,lc
179,1.0,1.0,1.0,4.0,626.0,0.3806240558624268,2.0140080451965328,0.6340679346555864,0.0,1.0,112.0,768,lc
180,1.0,1.0,1.0,3.0,628.0,0.6580400466918945,2.14885401725769,0.4998351148899869,0.0,1.0,111.0,768,lc
181,0.0,0.0,1.0,0.0,627.0,0.364232063293457,2.0131759643554688,0.6463062349765413,0.0,0.0,111.0,768,lc
182,1.0,1.0,1.0,3.0,629.0,0.44332003593444813,1.9800460338592527,0.5598938533272486,0.0,0.0,111.0,768,lc
183,1.0,0.0,0.0,0.0,628.0,0.5160269737243652,2.146420955657959,0.639643016875657,0.0,0.0,111.0,768,lc
184,1.0,0.0,0.0,0.0,628.0,1.1601088047027586,2.4638991355896005,0.2873737448676083,-1.0,-1.0,112.0,768,lc
185,1.0,1.0,1.0,3.0,630.0,0.5174310207366944,2.138967037200928,0.6261260205457553,0.0,1.0,111.0,768,lc
186,1.0,1.0,1.0,1.0,630.0,0.4972469806671143,2.139042854309082,0.6485497732865023,0.0,1.0,112.0,768,lc
187,1.0,1.0,1.0,0.0,630.0,1.4853920936584475,2.8977508544921875,0.38011668465104415,-1.0,-1.0,112.0,768,lc
188,1.0,1.0,1.0,3.0,632.0,0.41011691093444813,2.1347579956054688,0.7478758976421686,0.0,0.0,112.0,768,lc
189,1.0,0.0,0.0,0.0,631.0,0.39685797691345215,1.727453947067261,0.34253871444578243,0.0,0.0,112.0,768,lc
190,1.0,0.0,0.0,0.0,630.0,0.202584981918335,1.6989641189575195,0.5080969969183483,1.0,1.0,111.0,768,lc
191,0.0,1.0,0.0,2.0,631.0,0.20864105224609372,1.7343058586120603,0.542419454783182,0.0,0.0,111.0,768,lc
192,1.0,1.0,1.0,3.0,633.0,0.2623779773712158,1.7355628013610842,0.4781322284048685,0.0,0.0,111.0,768,lc
193,0.0,1.0,0.0,0.0,633.0,1.2950949668884275,2.9888169765472408,0.6835928331668031,-1.0,-1.0,112.0,768,lc
194,0.0,0.0,1.0,0.0,633.0,1.7572119235992432,3.3553459644317623,0.5725175505571268,-1.0,-1.0,111.0,768,lc
195,1.0,0.0,0.0,0.0,632.0,0.3993189334869385,2.011646032333374,0.6175500328838819,0.0,1.0,112.0,768,lc
196,0.0,1.0,0.0,3.0,634.0,0.6197431087493896,2.2704861164093018,0.6547784765359634,0.0,1.0,111.0,768,lc
197,0.0,0.0,1.0,0.0,633.0,0.2781331539154053,1.5451998710632322,0.2838062356862298,0.0,0.0,111.0,768,lc
198,1.0,0.0,0.0,0.0,632.0,0.2791769504547119,1.9118180274963377,0.6286729180623626,0.0,0.0,111.0,768,lc
199,0.0,0.0,1.0,0.0,631.0,0.24625897407531736,1.8558831214904783,0.6179752678493066,0.0,0.0,111.0,768,lc
200,1.0,0.0,0.0,0.0,630.0,0.19464516639709473,1.4545469284057615,0.27298162440033136,0.0,0.0,111.0,768,lc
201,0.0,1.0,0.0,2.0,631.0,0.3697049617767334,1.7157020568847654,0.3553447361364217,0.0,0.0,111.0,768,lc
202,1.0,1.0,1.0,3.0,633.0,0.25711989402771,1.952505111694336,0.7075456597364056,0.0,0.0,111.0,768,lc
203,0.0,1.0,0.0,2.0,634.0,0.1281218528747559,1.624690055847168,0.49923858466956,0.0,0.0,111.0,768,lc
204,0.0,0.0,1.0,0.0,633.0,0.126600980758667,1.423130989074707,0.30597430333838727,0.0,0.0,111.0,768,lc
205,0.0,0.0,1.0,0.0,632.0,0.12326288223266603,1.3805890083312988,0.27000344092835754,0.0,0.0,111.0,768,lc
206,0.0,0.0,1.0,0.0,631.0,0.15901899337768552,1.457414150238037,0.31080570613562086,0.0,1.0,112.0,768,lc
207,1.0,1.0,1.0,3.0,633.0,0.36805796623229986,1.8705658912658687,0.5145455484393316,0.0,1.0,111.0,768,lc
208,0.0,1.0,0.0,2.0,634.0,0.4933900833129883,1.835515022277832,0.3669957760364229,0.0,0.0,111.0,768,lc
209,0.0,1.0,0.0,0.0,634.0,0.0592198371887207,5.515560150146484,0.33285857217055564,-2.0,-2.0,111.0,768,lc
210,1.0,0.0,0.0,0.0,633.0,0.519995927810669,1.9162249565124512,0.3990854691783304,0.0,0.0,111.0,768,lc
211,0.0,0.0,1.0,0.0,632.0,0.2685198783874512,1.5499179363250735,0.2825650348675427,0.0,1.0,112.0,768,lc
212,1.0,1.0,1.0,2.0,633.0,0.3454549312591553,1.617959976196289,0.26727116135003615,1.0,0.0,112.0,768,lc
213,1.0,0.0,0.0,0.0,632.0,0.3798840045928955,1.8792328834533687,0.4963463284685283,0.0,0.0,112.0,768,lc
214,1.0,0.0,0.0,0.0,631.0,0.3062090873718262,1.946341037750244,0.6592754177110028,0.0,0.0,112.0,768,lc
215,1.0,1.0,1.0,3.0,633.0,0.1140291690826416,1.7870700359344485,0.679756592607518,0.0,0.0,112.0,768,lc
216,1.0,0.0,0.0,0.0,633.0,0.09476804733276366,5.553429126739501,0.3504862146836403,-2.0,-2.0,112.0,768,lc
217,1.0,0.0,0.0,0.0,632.0,0.120513916015625,1.4504220485687258,0.3343427582533902,0.0,0.0,112.0,768,lc
218,1.0,1.0,1.0,3.0,634.0,0.12238812446594237,1.792832851409912,0.676857914294802,0.0,1.0,111.0,768,lc
219,1.0,0.0,0.0,0.0,633.0,0.6502840518951416,2.267175912857056,0.6275770674992264,0.0,1.0,112.0,768,lc
220,1.0,0.0,0.0,0.0,632.0,0.37373685836792,1.655361890792847,0.30002206821005134,0.0,0.0,112.0,768,lc
221,1.0,1.0,1.0,1.0,632.0,0.660175085067749,2.3455607891082764,0.6952849239276524,0.0,0.0,112.0,768,lc
222,1.0,0.0,0.0,0.0,631.0,0.27195692062377924,1.9420449733734129,0.6873937162273462,0.0,0.0,112.0,768,lc
223,1.0,0.0,0.0,0.0,630.0,0.26908016204833984,1.9999029636383057,0.7373867956885914,0.0,0.0,112.0,768,lc
224,1.0,0.0,0.0,0.0,630.0,1.3011419773101807,2.9949049949646005,0.6658361566484972,-1.0,-1.0,112.0,768,lc
225,0.0,1.0,0.0,3.0,632.0,0.30119800567626953,1.761144161224365,0.4606270408886253,0.0,0.0,112.0,768,lc
226,0.0,0.0,1.0,0.0,631.0,0.3083209991455078,1.9505949020385744,0.6611259931803496,0.0,1.0,111.0,768,lc
227,0.0,0.0,1.0,0.0,630.0,0.2582690715789795,1.8402330875396733,0.6014800404753025,0.0,1.0,112.0,768,lc
228,0.0,0.0,1.0,0.0,629.0,0.2613539695739746,1.69431209564209,0.4460476511738112,0.0,0.0,112.0,768,lc
229,0.0,1.0,0.0,4.0,632.0,0.878174066543579,2.4601099491119385,0.5894796024904161,0.0,0.0,112.0,768,lc
230,0.0,0.0,1.0,0.0,631.0,0.2955608367919922,1.6828560829162595,0.3892791331949833,0.0,0.0,112.0,768,lc
231,1.0,0.0,0.0,0.0,630.0,0.4322299957275392,1.7170090675354004,0.2898205635761444,0.0,0.0,112.0,768,lc
232,1.0,1.0,1.0,2.0,631.0,0.3426251411437988,1.6469838619232176,0.32019666639677774,0.0,0.0,112.0,768,lc
233,1.0,1.0,1.0,1.0,631.0,0.26263904571533203,1.6190950870513918,0.3559995536200791,0.0,0.0,112.0,768,lc
234,1.0,0.0,0.0,0.0,630.0,0.25309896469116205,1.8792610168457031,0.6350290716884325,1.0,1.0,111.0,768,lc
235,0.0,0.0,1.0,0.0,629.0,0.1838068962097168,1.7684459686279297,0.5869441522731793,0.0,0.0,111.0,768,lc
236,1.0,1.0,1.0,1.0,629.0,0.19722414016723633,1.9038100242614744,0.7073959113298081,0.0,0.0,111.0,768,lc
237,1.0,1.0,1.0,1.0,629.0,0.22927498817443845,1.9108490943908687,0.701679228148292,0.0,0.0,111.0,768,lc
238,1.0,0.0,0.0,0.0,628.0,0.24464011192321775,1.620944023132324,0.3730684137460841,0.0,0.0,111.0,768,lc
239,1.0,1.0,1.0,2.0,629.0,0.2900280952453613,1.9209089279174805,0.6437684198047421,0.0,0.0,111.0,768,lc
240,1.0,1.0,1.0,0.0,628.0,0.22650098800659174,1.8276100158691408,0.6215071591377417,0.0,0.0,111.0,768,lc
241,1.0,1.0,1.0,3.0,630.0,0.2961649894714356,1.6748502254486082,0.3800008121850419,0.0,0.0,111.0,768,lc
242,1.0,0.0,0.0,0.0,629.0,0.6495769023895264,1.923171043395996,0.2867518172851264,0.0,0.0,111.0,768,lc
243,1.0,1.0,1.0,4.0,632.0,0.32126784324646007,1.9697167873382568,0.6561477983943456,0.0,1.0,112.0,768,lc
244,1.0,1.0,1.0,2.0,633.0,0.2727341651916504,1.6470398902893066,0.3868938162925017,0.0,1.0,111.0,768,lc
245,1.0,0.0,0.0,0.0,632.0,0.7066748142242432,2.1386191844940186,0.4421997377772172,0.0,0.0,111.0,768,lc
246,1.0,0.0,0.0,0.0,631.0,0.6215639114379882,1.8689589500427248,0.2614461962718288,0.0,0.0,111.0,768,lc
247,1.0,0.0,0.0,0.0,630.0,0.2297999858856201,1.5861899852752686,0.3642487303399344,0.0,1.0,112.0,768,lc
248,1.0,0.0,0.0,0.0,630.0,0.08752107620239258,5.906790018081665,0.7043330724113733,-2.0,-2.0,111.0,768,lc
249,0.0,0.0,1.0,0.0,630.0,1.9521300792694087,3.6964340209960938,0.7175957243208001,-1.0,-1.0,112.0,768,lc
250,1.0,0.0,0.0,0.0,629.0,0.9482960700988768,2.6261019706726074,0.677240929064066,0.0,1.0,111.0,768,lc
251,1.0,0.0,0.0,0.0,628.0,0.5517430305480957,2.119204044342041,0.5802940037437512,0.0,0.0,111.0,768,lc
252,1.0,1.0,1.0,1.0,628.0,0.1991219520568848,1.9097359180450435,0.7229776900530499,0.0,1.0,112.0,768,lc
253,1.0,1.0,1.0,3.0,630.0,0.2294931411743164,1.5530178546905518,0.3265219294034068,0.0,1.0,111.0,768,lc
254,1.0,0.0,0.0,0.0,629.0,0.4965629577636719,1.9362010955810545,0.4459861608777138,0.0,0.0,111.0,768,lc
255,0.0,0.0,1.0,0.0,628.0,0.4942889213562012,1.8248028755187988,0.35433730581149364,0.0,0.0,111.0,768,lc
256,1.0,0.0,0.0,0.0,627.0,0.44796895980834955,2.089226007461548,0.6433417805811813,0.0,0.0,111.0,768,lc
257,1.0,0.0,0.0,0.0,626.0,0.32682490348815924,1.798816919326782,0.4925664616882784,0.0,0.0,111.0,768,lc
258,1.0,0.0,0.0,0.0,625.0,0.24079990386962885,1.9450371265411377,0.7206233046120997,0.0,1.0,112.0,768,lc
259,1.0,1.0,1.0,0.0,625.0,1.2388241291046143,2.638674020767212,0.3764779663095856,-1.0,-1.0,112.0,768,lc
260,1.0,1.0,1.0,4.0,628.0,0.4866909980773926,2.0006918907165527,0.5270757920347892,1.0,0.0,112.0,768,lc
261,1.0,1.0,1.0,2.0,629.0,0.5407199859619142,1.821476936340332,0.29891181930416133,0.0,0.0,112.0,768,lc
262,1.0,1.0,1.0,3.0,631.0,0.4784541130065918,1.9289948940277095,0.4444992808946964,0.0,0.0,112.0,768,lc
263,1.0,1.0,1.0,3.0,633.0,0.3668761253356934,1.7151010036468506,0.359788228403769,0.0,0.0,112.0,768,lc
264,1.0,0.0,0.0,0.0,632.0,0.20222091674804688,1.517554998397827,0.3274267214749141,0.0,0.0,112.0,768,lc
265,1.0,0.0,0.0,0.0,631.0,0.12153005599975585,1.5644378662109375,0.4584736393779679,0.0,0.0,112.0,768,lc
266,1.0,1.0,1.0,2.0,632.0,0.2919790744781494,1.766566038131714,0.4917699464203521,0.0,0.0,112.0,768,lc
267,1.0,1.0,1.0,5.0,636.0,0.5053441524505615,1.753345966339111,0.26211518034126563,0.0,0.0,112.0,768,lc
268,1.0,1.0,1.0,4.0,639.0,0.2103710174560547,1.8260271549224851,0.6378346201655639,0.0,0.0,112.0,768,lc
269,1.0,1.0,1.0,1.0,639.0,0.6861670017242432,2.0111680030822754,0.332757882918706,0.0,0.0,112.0,768,lc
270,1.0,1.0,1.0,3.0,641.0,0.3765130043029785,1.764289140701294,0.3970615881087302,0.0,1.0,111.0,768,lc
271,1.0,0.0,0.0,0.0,640.0,0.5116100311279297,1.9177680015563965,0.431571699815279,0.0,1.0,112.0,768,lc
272,1.0,1.0,1.0,1.0,640.0,0.2300260066986084,1.8822898864746092,0.663695064357434,0.0,0.0,112.0,768,lc
273,1.0,0.0,0.0,0.0,639.0,0.4577069282531738,1.9174039363861084,0.4813902599865593,0.0,0.0,112.0,768,lc
274,1.0,1.0,1.0,4.0,642.0,0.18021011352539065,1.4769060611724851,0.3085473301352382,0.0,0.0,112.0,768,lc
275,1.0,1.0,1.0,4.0,645.0,0.33984398841857916,1.7489290237426753,0.424129185462736,0.0,0.0,112.0,768,lc
276,1.0,0.0,0.0,0.0,644.0,0.19192409515380857,1.7694520950317385,0.5934914982199153,0.0,0.0,112.0,768,lc
277,1.0,0.0,0.0,0.0,644.0,0.09404110908508301,5.928516864776612,0.72213494073389,-2.0,-2.0,112.0,768,lc
278,0.0,1.0,0.0,1.0,644.0,0.11620306968688962,1.7044348716735842,0.5934416167379493,0.0,0.0,112.0,768,lc
279,1.0,0.0,0.0,0.0,643.0,0.5962710380554199,1.92808198928833,0.3385919247624499,0.0,0.0,112.0,768,lc
280,1.0,1.0,1.0,0.0,643.0,1.2439510822296145,2.7930421829223633,0.5315817563941777,-1.0,-1.0,112.0,768,lc
281,1.0,1.0,1.0,3.0,645.0,0.490757942199707,2.2082388401031494,0.7397043943480065,0.0,0.0,112.0,768,lc
282,0.0,0.0,1.0,0.0,644.0,0.3892309665679932,1.9896650314331057,0.6128798592243841,0.0,0.0,112.0,768,lc
283,1.0,0.0,0.0,0.0,643.0,0.2719759941101075,1.5180799961090086,0.2647815386430988,0.0,0.0,112.0,768,lc
284,1.0,1.0,1.0,2.0,644.0,0.3763148784637452,1.9829740524291992,0.6308246884059576,0.0,0.0,112.0,768,lc
285,1.0,1.0,1.0,3.0,646.0,0.4190618991851808,1.7243850231170652,0.32227889647674635,0.0,0.0,112.0,768,lc
286,1.0,1.0,1.0,3.0,648.0,0.1998090744018554,1.80469799041748,0.6100935912134362,0.0,0.0,112.0,768,lc
287,1.0,1.0,1.0,3.0,650.0,0.4228191375732422,1.8241961002349851,0.4179186177071357,1.0,1.0,111.0,768,lc
288,1.0,1.0,1.0,4.0,653.0,0.526501178741455,2.2148759365081787,0.6992546106897801,0.0,0.0,111.0,768,lc
289,1.0,0.0,0.0,0.0,652.0,0.35989189147949213,1.9303770065307615,0.5798825927407607,0.0,1.0,112.0,768,lc
290,0.0,0.0,1.0,0.0,651.0,0.17935609817504883,1.6010720729827879,0.4478301071231077,0.0,1.0,111.0,768,lc
291,1.0,1.0,1.0,3.0,653.0,0.24051308631896964,1.710240125656128,0.4914494399163656,0.0,0.0,111.0,768,lc
292,1.0,0.0,0.0,0.0,653.0,0.08288192749023436,5.898985862731934,0.6907924697828896,-2.0,-2.0,111.0,768,lc
293,1.0,0.0,0.0,0.0,652.0,0.2332408428192138,1.9292180538177488,0.7031493673435683,0.0,0.0,111.0,768,lc
294,0.0,0.0,1.0,0.0,651.0,0.32367110252380366,1.7012009620666502,0.38810361449481123,0.0,0.0,111.0,768,lc
295,1.0,0.0,0.0,0.0,650.0,0.30483293533325195,1.959218978881836,0.6637960211549832,0.0,0.0,111.0,768,lc
296,1.0,0.0,0.0,0.0,649.0,0.43294811248779297,2.0036721229553223,0.5843112742268741,0.0,0.0,111.0,768,lc
297,1.0,0.0,0.0,0.0,648.0,0.4231760501861572,1.8122169971466064,0.3968081508785146,0.0,0.0,111.0,768,lc
298,1.0,1.0,1.0,5.0,652.0,0.5743451118469239,1.8878309726715088,0.3347934924865906,0.0,0.0,111.0,768,lc
299,1.0,1.0,1.0,4.0,655.0,0.23640799522399905,1.6185882091522215,0.3867449930494996,0.0,0.0,111.0,768,lc
300,1.0,0.0,0.0,0.0,654.0,0.2998459339141846,1.6590359210968015,0.36251777799869966,0.0,1.0,112.0,768,lc
301,0.0,0.0,1.0,0.0,653.0,0.20887899398803714,1.724666118621826,0.5371199386746591,0.0,0.0,112.0,768,lc
302,1.0,1.0,1.0,4.0,656.0,0.3045859336853028,1.5649819374084475,0.26913832428571066,0.0,1.0,111.0,768,lc
303,1.0,1.0,1.0,2.0,657.0,0.3379371166229248,1.8152961730957031,0.4842824403538072,0.0,0.0,111.0,768,lc
304,1.0,0.0,0.0,0.0,656.0,0.4862980842590332,1.8883299827575684,0.4061315936278276,0.0,0.0,111.0,768,lc
305,1.0,1.0,1.0,4.0,659.0,0.5011081695556641,1.9053988456726076,0.4116382656908718,0.0,0.0,111.0,768,lc
306,1.0,1.0,1.0,3.0,661.0,0.1601431369781494,1.8405590057373051,0.7019654151878687,0.0,0.0,111.0,768,lc
307,1.0,0.0,0.0,0.0,660.0,0.2332029342651367,1.8266789913177488,0.5955080573025646,0.0,0.0,111.0,768,lc
308,1.0,0.0,0.0,0.0,659.0,0.3015720844268798,1.9199090003967283,0.63215083322991,0.0,0.0,111.0,768,lc
309,1.0,1.0,1.0,3.0,661.0,0.3664619922637939,1.9328870773315427,0.5651944835860068,0.0,0.0,111.0,768,lc
310,1.0,1.0,1.0,2.0,662.0,0.5377299785614013,2.1025290489196777,0.5844909275202116,0.0,0.0,111.0,768,lc
311,1.0,1.0,1.0,1.0,662.0,0.2381429672241211,1.5883040428161619,0.35645017961354014,0.0,0.0,111.0,768,lc
312,1.0,1.0,1.0,5.0,666.0,0.34184598922729487,1.8022809028625488,0.4753862175275764,1.0,1.0,112.0,768,lc
313,1.0,1.0,1.0,3.0,668.0,0.2850139141082764,1.7824480533599851,0.5078297468789745,0.0,0.0,112.0,768,lc
314,1.0,1.0,1.0,1.0,668.0,0.32613897323608393,1.608017921447754,0.2995090629329111,0.0,0.0,112.0,768,lc
315,1.0,1.0,1.0,3.0,670.0,0.38005089759826655,1.8454082012176516,0.4614887131189234,0.0,0.0,112.0,768,lc
316,1.0,0.0,0.0,0.0,670.0,0.06981301307678224,5.7302680015563965,0.5419719581228237,-2.0,-2.0,112.0,768,lc
317,1.0,0.0,0.0,0.0,669.0,0.4147169589996338,1.7257177829742434,0.3180497280498099,0.0,0.0,112.0,768,lc
318,1.0,1.0,1.0,0.0,669.0,1.2534821033477783,2.6131181716918945,0.33128234965634723,-1.0,-1.0,111.0,768,lc
319,1.0,0.0,0.0,0.0,668.0,0.6605508327484131,2.0301029682159424,0.39474658529123957,0.0,1.0,112.0,768,lc
320,0.0,0.0,1.0,0.0,667.0,0.41428184509277344,2.1113879680633545,0.7058989236090504,0.0,0.0,112.0,768,lc
321,1.0,1.0,1.0,2.0,668.0,0.20866894721984866,1.5407698154449463,0.34714264590625943,0.0,1.0,111.0,768,lc
322,1.0,0.0,0.0,0.0,667.0,0.3354930877685547,1.7852060794830324,0.4656035473128524,0.0,0.0,111.0,768,lc
323,1.0,1.0,1.0,3.0,669.0,0.3544778823852539,1.7388019561767578,0.3879331613143872,0.0,0.0,111.0,768,lc
324,1.0,1.0,1.0,1.0,669.0,0.7412049770355223,2.3250119686126705,0.5961593279116035,0.0,0.0,111.0,768,lc
325,1.0,0.0,0.0,0.0,668.0,0.28161001205444336,1.5320649147033691,0.2620105998506842,0.0,1.0,112.0,768,lc
326,1.0,1.0,1.0,2.0,669.0,0.4803919792175292,1.9602150917053225,0.4887053463036292,0.0,1.0,111.0,768,lc
327,1.0,1.0,1.0,3.0,671.0,0.2397301197052002,1.8291199207305908,0.6011319428542321,0.0,0.0,111.0,768,lc
328,1.0,1.0,1.0,0.0,671.0,0.07341504096984862,5.850647926330566,0.6520557437872845,-2.0,-2.0,111.0,768,lc
329,1.0,1.0,1.0,3.0,673.0,0.20769095420837402,1.6385710239410403,0.4409226212553983,0.0,0.0,111.0,768,lc
330,1.0,0.0,0.0,0.0,672.0,0.3794429302215577,1.8315820693969729,0.4559324455802394,0.0,1.0,112.0,768,lc
331,1.0,0.0,0.0,0.0,671.0,0.3651199340820313,1.7607309818267822,0.40013122557283903,0.0,0.0,112.0,768,lc
332,0.0,0.0,1.0,0.0,670.0,0.28644704818725586,1.8252971172332764,0.5420342121274767,0.0,1.0,111.0,768,lc
333,1.0,1.0,1.0,4.0,673.0,0.2458369731903076,1.8354859352111816,0.5942332454873652,0.0,0.0,111.0,768,lc
334,1.0,0.0,0.0,0.0,672.0,0.2806549072265625,1.5647089481353758,0.2926609432118621,0.0,1.0,112.0,768,lc
335,1.0,1.0,1.0,2.0,673.0,0.5029640197753906,2.007637023925781,0.5167949710967336,0.0,1.0,111.0,768,lc
336,1.0,1.0,1.0,1.0,673.0,0.29334878921508784,1.8841919898986816,0.6010125891796385,1.0,1.0,112.0,768,lc
337,1.0,0.0,0.0,0.0,672.0,0.4070789813995361,2.003681898117065,0.6047907774949025,0.0,0.0,112.0,768,lc
338,1.0,0.0,0.0,0.0,672.0,0.09016299247741698,5.825331926345825,0.6137300149510554,-2.0,-2.0,112.0,768,lc
339,0.0,1.0,0.0,4.0,675.0,0.2736539840698242,1.7603850364685059,0.5076226021308622,0.0,0.0,112.0,768,lc
340,0.0,0.0,1.0,0.0,674.0,0.2841460704803467,1.9828569889068604,0.7070169053001869,0.0,0.0,112.0,768,lc
341,1.0,1.0,1.0,2.0,675.0,0.6447970867156982,2.1625270843505855,0.5198683549442416,0.0,0.0,112.0,768,lc
342,0.0,1.0,0.0,3.0,677.0,0.23319411277771,1.7284159660339355,0.4983902965589321,0.0,0.0,112.0,768,lc
343,1.0,1.0,1.0,3.0,679.0,0.1876089572906494,1.634300947189331,0.4663394204535812,0.0,0.0,112.0,768,lc
344,1.0,0.0,0.0,0.0,678.0,0.8657910823822021,2.4351761341094966,0.5683500610696665,0.0,0.0,112.0,768,lc
345,1.0,0.0,0.0,0.0,677.0,0.5295040607452394,1.7812941074371333,0.2663742682327171,0.0,0.0,112.0,768,lc
346,1.0,1.0,1.0,2.0,678.0,0.1482539176940918,1.658312797546387,0.5078662231842577,0.0,0.0,112.0,768,lc
347,1.0,1.0,1.0,4.0,681.0,0.7441408634185791,2.0818729400634766,0.35665616969158287,0.0,0.0,112.0,768,lc
348,1.0,1.0,1.0,3.0,683.0,0.4739348888397217,1.9870779514312744,0.5266980375187557,0.0,0.0,112.0,768,lc
349,1.0,1.0,1.0,2.0,684.0,0.32767510414123535,1.7359530925750732,0.429785599666088,0.0,0.0,112.0,768,lc
350,1.0,0.0,0.0,0.0,683.0,0.1714949607849121,1.6006228923797605,0.4471307535802985,0.0,0.0,112.0,768,lc
351,1.0,0.0,0.0,0.0,683.0,0.0692141056060791,5.490572929382324,0.3048032781360235,-2.0,-2.0,112.0,768,lc
352,1.0,0.0,0.0,0.0,682.0,0.2257239818572998,1.6393871307373047,0.42748926984837754,0.0,0.0,112.0,768,lc
353,1.0,1.0,1.0,4.0,685.0,0.2324411869049072,1.7033989429473875,0.4809123272857882,0.0,0.0,112.0,768,lc
354,1.0,0.0,0.0,0.0,684.0,0.39046406745910645,1.6294820308685303,0.260677061226089,0.0,0.0,112.0,768,lc
355,1.0,1.0,1.0,2.0,685.0,0.2933340072631836,1.9458799362182615,0.6729065090330733,0.0,0.0,112.0,768,lc
356,1.0,1.0,1.0,2.0,686.0,0.43133807182312006,1.8037140369415283,0.3769952141927223,0.0,0.0,112.0,768,lc
357,1.0,0.0,0.0,0.0,685.0,0.3693678379058838,1.7764351367950437,0.42015635597288636,0.0,0.0,112.0,768,lc
358,1.0,0.0,0.0,0.0,684.0,0.4671020507812499,1.9469978809356687,0.4838746808933584,0.0,0.0,112.0,768,lc
